currTime,s1,s2,s3,s4,s,AccX,AccY,AccZ,GyroX,GyroY,GyroZ,GRF
26,777.10,750.59,748.19,749.44,756.33,136.72,-877.44,479.98,-1.63,4.01,0.30,22.86
64,777.10,750.61,748.28,749.47,756.36,135.25,-887.70,477.05,1.86,3.15,-0.31,23.97
102,777.22,750.65,748.23,749.42,756.38,119.63,-896.00,494.14,0.66,1.26,-0.34,23.45
143,777.14,750.64,748.25,749.47,756.38,124.51,-895.02,496.09,-1.13,2.79,-0.80,23.65
181,777.03,750.64,748.26,749.51,756.36,147.46,-878.42,479.49,-0.74,0.55,-1.96,23.72
219,777.10,750.66,748.24,749.45,756.36,139.16,-883.30,491.70,-0.40,1.97,0.69,23.43
260,777.06,750.62,748.17,749.40,756.31,127.93,-886.72,487.30,-0.24,0.89,2.68,22.10
298,777.07,750.72,748.26,749.43,756.37,118.65,-877.93,485.84,-1.44,0.60,0.56,23.27
336,777.31,750.67,748.23,749.42,756.41,137.70,-866.70,490.23,-1.56,0.53,1.08,23.26
373,777.29,750.66,748.24,749.33,756.38,138.67,-873.05,491.70,1.80,3.76,-1.08,23.47
411,777.26,750.71,748.19,749.41,756.39,140.14,-877.93,495.12,0.33,0.95,0.21,21.44
449,777.36,750.64,748.28,749.36,756.41,134.77,-878.91,483.40,1.65,2.96,0.43,23.74
490,777.42,750.58,748.20,749.36,756.39,131.35,-878.91,488.28,-0.85,-1.10,1.63,23.66
528,777.40,750.61,748.20,749.22,756.36,129.39,-879.39,482.91,-2.71,-0.28,-0.02,23.57
566,777.77,750.43,748.14,749.14,756.37,132.81,-862.30,484.37,0.33,0.53,-0.45,24.23
604,778.10,750.35,748.09,749.07,756.40,144.53,-882.32,489.75,3.04,-0.31,1.21,24.27
642,778.01,750.38,748.12,749.03,756.39,159.18,-882.81,489.75,2.30,0.80,-2.80,24.27
680,777.96,750.36,748.06,749.08,756.37,120.61,-867.19,498.05,0.74,0.15,1.24,23.66
721,778.12,750.39,748.01,749.02,756.38,119.63,-876.95,486.82,0.15,4.30,-1.35,22.04
758,778.05,750.30,748.12,748.95,756.35,132.81,-876.46,500.49,0.97,-1.82,1.40,24.83
796,778.11,750.27,748.09,748.92,756.35,143.07,-890.62,486.82,-0.85,-2.02,-1.05,24.81
834,778.19,750.30,748.11,748.88,756.37,142.58,-874.02,478.03,1.09,0.88,0.01,24.71
872,778.22,750.23,748.07,748.91,756.36,137.70,-892.58,497.07,0.31,2.31,-0.93,24.85
914,778.28,750.26,748.06,748.86,756.37,136.72,-880.37,498.54,1.42,0.76,0.02,24.63
959,778.28,750.21,748.07,748.88,756.36,145.02,-876.95,490.23,-1.82,1.60,-0.74,24.96
997,778.16,750.27,748.09,748.92,756.36,133.79,-866.70,495.12,-1.45,0.75,0.09,24.77
1035,778.07,750.31,748.08,748.95,756.35,142.09,-876.95,477.54,-0.53,0.02,-1.05,24.56
1072,777.88,750.29,748.11,749.01,756.32,131.84,-879.39,496.09,0.40,0.76,-0.76,24.89
1110,777.90,750.31,748.15,749.03,756.35,136.23,-882.32,498.05,2.01,-0.14,0.21,25.01
1148,777.76,750.29,748.13,749.04,756.31,153.81,-876.46,485.84,-0.14,2.79,2.79,25.09
1190,777.54,750.40,748.16,749.16,756.31,130.86,-889.65,482.42,0.07,3.28,-1.81,24.67
1229,777.21,750.36,748.16,749.28,756.25,143.55,-888.67,489.75,-1.85,-1.48,1.49,24.93
1266,776.99,750.50,748.20,749.38,756.27,135.25,-881.35,493.65,0.62,0.67,0.24,24.38
1304,776.66,750.56,748.18,749.41,756.20,156.74,-889.65,496.58,0.89,2.76,-2.08,23.63
1342,776.47,750.57,748.26,749.46,756.19,131.84,-883.30,476.07,-0.07,1.33,0.18,24.53
1380,776.22,750.59,748.25,749.53,756.15,140.62,-887.21,478.03,-1.08,0.24,-0.13,24.46
1420,776.02,750.63,748.30,749.55,756.13,127.93,-881.84,479.98,-1.70,3.27,1.24,24.55
1458,775.87,750.67,748.34,749.62,756.12,144.04,-876.46,486.82,-0.34,2.76,-3.05,24.50
1496,775.78,750.68,748.24,749.67,756.09,121.58,-882.32,488.77,-0.52,1.03,-0.03,22.66
1534,775.70,750.63,748.38,749.67,756.09,126.46,-876.46,484.37,0.66,-0.95,3.10,24.93
1572,775.65,750.78,748.26,749.74,756.11,137.21,-891.11,484.37,0.03,2.15,-0.62,21.37
1610,775.53,750.73,748.34,749.64,756.06,119.14,-864.26,494.14,0.76,0.63,0.79,24.34
1650,775.55,750.78,748.25,749.67,756.07,134.77,-885.25,487.30,0.41,2.39,1.24,21.83
1688,775.44,750.72,748.31,749.66,756.03,131.35,-885.25,487.30,0.92,-0.99,0.73,24.32
1726,775.45,750.81,748.36,749.76,756.09,138.67,-874.51,500.98,0.15,-0.97,1.48,23.93
1764,775.39,750.77,748.29,749.83,756.07,118.16,-884.28,501.95,-0.85,-0.38,1.75,22.12
1802,775.46,750.72,748.33,749.79,756.08,125.00,-896.97,476.07,0.39,1.57,1.75,24.26
1840,775.51,750.74,748.33,749.71,756.07,132.32,-887.21,488.28,2.05,1.35,-1.62,24.21
1880,775.51,750.75,748.29,749.77,756.08,120.61,-915.04,467.29,-0.74,5.73,0.73,22.68
1919,775.49,750.75,748.33,749.83,756.10,118.16,-842.29,489.26,1.44,3.56,-0.06,23.50
1959,775.47,750.77,748.34,749.78,756.09,145.51,-881.35,486.82,-0.54,0.71,1.69,23.95
1997,775.60,750.77,748.33,749.84,756.13,132.32,-876.46,496.58,-1.29,-0.85,-3.00,23.27
2035,775.55,750.79,748.28,749.83,756.11,134.77,-887.70,485.84,0.78,1.95,0.94,21.06
2073,775.62,750.74,748.26,749.82,756.11,146.00,-875.00,502.44,1.51,3.07,-0.22,21.12
2114,775.60,750.76,748.33,749.74,756.11,141.11,-858.89,485.84,1.79,2.56,0.50,24.05
2152,775.68,750.73,748.28,749.80,756.12,140.14,-885.74,468.26,3.12,6.62,-0.75,22.12
2193,775.60,750.69,748.36,749.73,756.09,141.60,-902.83,503.42,0.60,1.68,-0.89,24.54
2231,775.61,750.79,748.38,749.80,756.15,126.95,-866.21,495.61,-1.47,2.21,-1.08,23.96
2269,775.58,750.75,748.28,749.83,756.11,135.74,-892.58,490.72,-1.61,3.46,1.21,21.62
2306,775.45,750.78,748.33,749.77,756.08,141.11,-896.97,492.19,-1.83,3.48,1.57,23.50
2348,775.36,750.79,748.30,749.79,756.06,129.39,-888.18,490.72,-2.37,-4.26,1.05,22.26
2387,775.43,750.76,748.32,749.80,756.08,156.25,-875.49,500.98,1.94,2.40,-1.11,23.29
2424,775.43,750.76,748.35,749.79,756.08,140.14,-886.72,497.56,4.24,1.82,1.44,24.12
2463,775.33,750.86,748.36,749.79,756.09,146.00,-897.46,479.98,-0.17,2.19,3.26,23.48
2500,775.31,750.77,748.25,749.88,756.05,134.77,-873.54,501.95,1.55,-0.01,1.36,20.14
2539,775.32,750.83,748.32,749.84,756.08,58.59,-898.93,467.77,4.89,-6.21,-0.37,22.08
2579,775.00,750.79,748.29,749.84,755.98,111.82,-893.07,536.13,39.93,-1.35,1.85,21.75
2617,774.93,750.87,748.37,749.78,755.99,117.68,-872.07,490.23,-18.00,-10.51,-1.31,23.90
2655,775.19,750.76,748.31,749.76,756.01,113.77,-879.39,475.59,6.99,4.62,2.47,23.52
2693,775.09,750.76,748.33,749.86,756.01,142.58,-899.41,478.03,-2.10,2.17,0.25,23.36
2731,775.19,750.78,748.37,749.84,756.04,129.39,-875.00,503.42,3.12,4.33,-0.67,24.19
2769,775.19,750.81,748.37,749.85,756.06,150.39,-862.79,473.63,-1.76,-1.78,-3.01,23.96
2809,775.21,750.86,748.34,749.83,756.06,136.72,-915.04,480.96,-1.53,2.36,3.95,22.53
2847,775.25,750.87,748.37,749.92,756.10,155.76,-866.70,466.31,-2.83,4.82,0.50,22.67
2884,775.22,750.85,748.32,749.88,756.07,143.07,-874.02,508.30,6.66,2.86,1.20,21.75
2922,775.11,750.84,748.29,749.87,756.03,142.58,-889.65,495.12,0.71,0.43,-0.89,20.83
2962,775.06,750.89,748.34,749.86,756.04,128.42,-881.35,504.88,0.27,1.19,2.32,22.08
3000,775.15,750.82,748.41,749.84,756.06,137.21,-889.16,485.35,1.07,2.82,2.95,24.11
3041,775.19,750.81,748.32,749.85,756.04,140.14,-875.00,490.23,1.69,1.80,-1.45,22.33
3079,775.22,750.87,748.36,749.82,756.07,135.25,-878.91,493.16,1.28,1.93,0.68,23.15
3116,775.30,750.88,748.37,749.80,756.09,132.81,-878.42,491.21,1.26,-0.87,0.06,23.41
3154,775.28,750.96,748.31,749.87,756.11,131.35,-878.42,488.28,-0.53,0.95,-0.03,20.05
3192,775.22,750.85,748.33,749.78,756.04,138.67,-888.18,498.54,0.24,3.32,1.09,22.65
3230,775.31,750.91,748.30,749.92,756.11,140.14,-879.39,483.89,1.40,1.14,0.82,19.69
3270,775.28,750.82,748.31,749.87,756.07,146.97,-879.39,479.98,-0.12,1.21,1.73,21.93
3309,775.36,750.83,748.32,749.85,756.09,150.39,-878.42,494.14,0.27,1.94,-3.08,22.16
3347,775.28,750.89,748.32,749.93,756.11,131.35,-895.51,486.82,0.54,1.76,0.04,20.55
3385,775.24,750.84,748.30,749.86,756.06,121.58,-882.81,486.82,-1.94,3.48,0.20,21.37
3423,775.23,750.83,748.35,749.88,756.07,136.72,-882.32,493.65,-0.66,0.33,0.40,22.96
3464,775.16,750.84,748.32,749.91,756.06,127.93,-878.91,485.84,0.33,-1.56,2.51,21.42
3504,775.12,750.88,748.35,749.88,756.06,131.84,-890.14,485.35,-0.33,1.75,0.40,22.42
3542,775.06,750.80,748.29,749.88,756.01,143.07,-882.32,484.86,-0.66,2.82,2.82,21.31
3580,775.00,750.79,748.24,749.86,755.97,130.86,-881.35,481.45,0.66,0.56,-0.11,20.21
3618,775.01,750.86,748.36,749.84,756.02,145.51,-873.54,500.49,1.87,1.63,1.53,23.10
3657,775.04,750.86,748.42,749.84,756.04,143.55,-883.30,490.72,0.21,4.22,1.33,24.01
3695,775.03,750.91,748.37,749.82,756.03,146.97,-891.60,483.89,1.18,2.12,0.91,23.04
3735,774.97,750.83,748.32,749.87,755.99,138.18,-880.37,503.91,0.31,1.04,0.48,22.11
3773,774.91,750.84,748.34,749.87,755.99,131.35,-884.28,492.19,-0.34,2.83,1.84,22.76
3811,774.95,750.91,748.31,749.91,756.02,142.09,-881.84,480.47,0.91,1.37,-0.94,20.60
3849,774.90,750.82,748.38,749.87,755.99,137.70,-882.32,486.82,0.10,1.95,1.92,24.15
3887,774.84,750.91,748.38,749.83,755.99,132.32,-878.91,486.82,0.52,3.31,2.13,23.46
3925,774.84,750.93,748.32,749.81,755.97,124.51,-878.42,500.98,-1.37,0.97,0.79,21.58
3966,774.88,750.88,748.37,749.86,756.00,144.53,-875.49,498.54,-0.05,0.68,-1.40,23.23
4006,774.80,750.92,748.41,749.79,755.98,142.09,-887.21,498.05,-1.19,0.48,0.07,23.78
4044,774.82,750.84,748.35,749.87,755.97,130.37,-895.02,489.26,1.09,0.54,-0.55,23.10
4082,774.76,750.92,748.33,749.79,755.95,137.21,-870.61,487.30,1.08,0.35,0.52,22.39
4120,774.73,750.92,748.39,749.85,755.97,148.44,-876.46,470.70,-0.47,2.26,0.78,23.61
4159,774.79,750.99,748.26,749.84,755.97,129.88,-877.93,486.82,2.63,3.05,-0.29,18.54
4196,774.91,750.84,748.39,749.78,755.98,146.00,-882.81,489.75,1.33,0.11,0.68,24.13
4237,774.82,750.98,748.35,749.80,755.99,140.62,-878.42,480.47,1.08,-0.26,2.57,21.94
4275,774.74,750.93,748.31,749.80,755.94,153.81,-886.72,497.56,1.02,1.13,-3.08,21.29
4313,774.67,750.93,748.30,749.83,755.93,142.09,-880.37,496.09,1.11,2.33,-0.06,20.63
4351,774.79,750.86,748.36,749.80,755.95,131.35,-892.09,492.19,0.50,2.00,-1.37,23.58
4389,774.81,750.94,748.33,749.76,755.96,138.67,-875.00,481.93,-1.05,3.04,1.75,22.22
4432,774.84,750.95,748.38,749.79,755.99,133.30,-884.28,488.28,-0.35,0.27,-0.85,23.48
4472,774.85,750.92,748.31,749.72,755.95,133.79,-890.62,494.14,-0.07,1.25,1.29,22.08
4511,774.96,750.93,748.29,749.76,755.99,120.61,-877.93,482.42,0.34,1.02,-0.75,20.71
4549,774.95,750.86,748.34,749.76,755.98,133.79,-878.42,492.68,1.36,2.00,0.24,23.27
4587,774.86,750.99,748.34,749.79,755.99,135.25,-879.88,491.70,0.42,2.71,1.47,21.59
4625,774.82,751.03,748.34,749.84,756.01,128.91,-889.16,493.65,-0.74,0.98,0.80,20.90
4663,774.81,751.03,748.39,749.89,756.03,133.79,-882.32,486.82,2.08,2.53,0.44,22.08
4703,774.76,751.09,748.34,749.90,756.02,132.32,-877.93,489.75,1.57,2.42,-0.04,19.60
4740,774.73,751.13,748.35,749.99,756.05,133.79,-866.70,497.07,0.76,2.42,0.37,18.57
4778,774.48,751.14,748.42,750.04,756.02,140.14,-874.02,487.30,2.92,1.91,-0.22,20.32
4816,774.28,751.09,748.43,750.09,755.97,132.32,-881.35,495.61,1.28,2.38,-0.49,21.11
4854,774.12,751.13,748.41,750.08,755.93,125.98,-874.51,488.28,2.71,2.06,0.15,20.25
4892,773.93,751.13,748.39,750.11,755.89,135.74,-897.95,499.02,2.91,2.11,1.40,19.54
4934,773.57,751.13,748.45,750.15,755.82,132.32,-885.74,486.33,0.01,0.08,2.01,21.11
4972,773.40,751.26,748.38,750.14,755.79,128.91,-870.12,488.77,1.84,1.08,2.73,17.63
5010,773.59,751.14,748.42,750.20,755.84,133.79,-887.70,477.54,-0.11,-1.02,0.98,19.56
5048,773.83,751.08,748.42,750.17,755.87,130.37,-883.79,497.56,1.79,-0.82,2.97,20.55
5085,774.07,751.10,748.47,750.07,755.92,136.72,-876.46,497.56,-0.66,1.44,0.23,22.36
5122,774.45,750.96,748.43,750.09,755.98,132.81,-885.74,491.70,-0.11,4.76,0.40,22.47
5162,774.90,750.92,748.39,750.10,756.08,132.81,-886.23,485.35,-0.01,3.08,0.00,21.27
5200,775.38,750.91,748.44,749.98,756.18,141.11,-888.18,490.23,0.60,2.15,-3.15,23.46
5238,775.85,750.92,748.44,750.16,756.34,123.54,-875.49,500.00,2.87,0.92,3.18,21.70
5276,776.40,750.89,748.41,750.34,756.51,129.88,-875.00,499.51,3.22,2.82,2.89,19.17
5314,777.59,751.04,748.45,750.52,756.90,123.05,-878.42,497.56,1.78,-1.53,-0.28,16.06
5355,779.65,751.35,748.52,750.89,757.60,145.02,-871.09,500.49,1.54,4.51,-0.49,7.78
5396,782.74,752.12,748.71,751.64,758.80,134.28,-872.07,497.56,5.00,2.81,-0.85,-4.69
5434,787.34,753.28,748.84,752.59,760.51,117.68,-862.79,489.26,2.60,2.44,0.09,-41.54
5472,790.05,755.03,749.02,753.63,761.93,115.23,-886.23,483.40,3.56,2.82,2.09,-95.04
5510,789.72,757.05,749.28,754.68,762.68,128.91,-875.49,507.32,3.53,2.93,2.31,-104.92
5548,788.33,758.59,749.35,755.23,762.87,129.39,-879.39,501.46,3.34,3.81,2.47,-111.19
5586,786.67,759.60,749.35,755.64,762.81,112.30,-868.65,507.32,-1.58,4.75,1.03,-116.49
5626,784.96,760.24,749.51,755.82,762.63,110.35,-885.25,512.70,-0.09,1.44,0.49,-114.40
5664,783.91,760.67,749.45,755.86,762.47,117.68,-872.56,516.60,-1.12,2.27,-1.64,-117.07
5703,783.71,760.76,749.49,756.03,762.49,115.23,-876.46,510.74,-0.56,0.01,0.98,-118.38
5741,783.93,760.64,749.51,755.90,762.49,116.70,-878.91,513.67,-0.48,-0.11,0.28,-116.10
5779,784.10,760.39,749.49,755.62,762.40,118.65,-873.54,522.95,-0.37,-0.18,-1.60,-111.76
5817,784.24,760.25,749.52,755.60,762.40,124.51,-873.54,502.44,1.77,0.25,0.01,-110.57
5857,783.88,760.44,749.50,755.64,762.36,118.16,-880.37,501.95,0.12,-0.89,0.95,-111.89
5895,783.10,760.37,749.61,755.86,762.23,109.86,-877.93,496.58,-1.26,3.08,0.21,-111.43
5935,781.44,760.75,749.82,756.73,762.18,121.09,-875.98,495.12,4.04,1.73,0.66,-118.21
5974,779.00,761.50,750.23,758.17,762.23,121.09,-875.49,503.42,6.42,3.09,1.24,-125.42
6012,775.39,762.74,750.92,759.84,762.22,107.42,-876.46,520.51,4.56,5.53,2.49,-128.02
6050,771.26,763.95,751.85,761.84,762.23,113.28,-871.09,516.11,1.80,4.79,1.65,-136.54
6090,765.18,765.61,753.35,764.40,762.13,109.86,-875.49,498.54,7.69,5.15,4.30,-156.86
6128,758.61,767.11,755.06,766.93,761.93,119.63,-868.65,513.67,7.93,8.34,3.45,-209.37
6166,752.47,768.76,757.49,769.78,762.13,121.09,-872.07,519.53,2.66,8.52,5.94,-253.69
6204,746.86,770.41,760.53,772.35,762.54,103.52,-869.14,538.57,3.50,4.77,6.60,-318.09
6242,742.58,771.32,763.45,774.48,762.96,106.93,-890.14,505.86,-9.75,-1.37,6.74,-334.37
6288,739.88,769.69,766.62,774.89,762.77,125.00,-864.75,565.43,-50.33,-22.42,8.67,-351.02
6326,739.22,765.18,768.55,772.04,761.24,187.99,-938.96,559.57,-84.50,29.45,21.05,-253.65
6364,738.79,758.01,769.33,766.81,758.23,114.75,-1216.80,415.53,-98.61,44.98,76.24,-262.87
6402,738.46,751.99,766.73,759.41,754.15,161.62,-1309.08,348.14,-39.95,48.63,120.59,-232.75
6440,738.39,749.52,760.39,753.23,750.38,85.94,-1267.09,247.56,68.65,58.78,170.53,-144.75
6478,738.16,748.25,753.80,750.30,747.63,-227.05,-1773.93,437.99,104.14,44.56,159.46,-208.03
6519,738.13,747.47,748.94,748.82,745.84,-154.79,-1184.57,462.40,250.13,55.24,130.85,29.67
6557,737.89,747.01,748.38,748.60,745.47,-224.61,-1105.96,672.85,112.45,101.37,44.40,45.59
6595,737.82,746.74,748.29,748.54,745.35,-463.38,-1052.25,605.47,82.10,134.96,22.27,48.18
6633,737.85,746.69,748.18,748.47,745.30,-276.86,-985.84,604.49,76.53,101.58,61.02,50.33
6671,737.86,746.55,748.09,748.49,745.25,95.70,-833.98,355.96,121.53,92.14,38.84,53.15
6709,737.87,746.58,748.09,748.41,745.24,296.87,-559.08,109.37,105.81,90.62,-18.61,52.44
6749,737.88,746.55,747.99,748.31,745.18,343.75,-461.43,37.11,64.40,81.05,-86.60,53.90
6787,737.87,746.57,748.02,748.34,745.20,300.78,-538.09,58.59,38.91,61.28,-126.00,53.35
6825,737.81,746.63,747.94,748.31,745.17,227.54,-683.59,-2.93,31.69,28.18,-172.14,54.75
6863,737.93,746.54,747.98,748.28,745.18,151.86,-867.19,24.90,3.38,-15.76,-219.28,53.94
6901,737.83,746.59,747.97,748.29,745.17,33.20,-938.48,-9.28,7.32,-30.78,-232.82,54.07
6941,737.79,746.71,748.04,748.33,745.22,-203.12,-934.08,85.45,-28.46,-65.63,-209.39,52.47
6981,737.78,746.98,748.15,748.34,745.32,-302.25,-1672.36,519.04,-60.39,-95.00,-185.12,48.98
7019,737.66,747.10,748.25,748.29,745.32,-541.99,-1493.65,548.83,-95.19,-136.63,-170.14,45.84
7057,737.71,747.12,748.27,748.35,745.36,-398.93,-1597.17,654.30,-113.72,-86.54,-128.20,45.71
7095,737.73,747.02,748.20,748.27,745.31,-412.11,-1460.45,875.98,-98.92,-36.50,-85.98,47.12
7133,737.69,746.75,748.15,748.33,745.23,-363.77,-1108.89,1002.93,-78.97,-84.71,-159.99,49.62
7174,737.68,746.78,748.12,748.25,745.21,-268.55,-1049.80,969.73,9.40,-113.11,-105.19,49.54
7214,737.71,746.73,748.06,748.33,745.21,-404.30,-704.59,521.48,-37.77,-98.34,-47.35,51.77
7253,737.65,746.74,747.96,748.34,745.17,-295.90,-889.65,617.19,5.25,-65.19,-11.30,54.33
7291,737.68,746.72,747.93,748.13,745.12,-338.38,-827.64,401.37,19.79,-30.66,32.51,53.21
7329,739.63,746.63,747.80,748.04,745.53,1999.94,220.70,-2000.00,250.13,214.49,213.82,56.09
7367,748.69,747.12,747.89,748.00,747.92,693.85,-1303.71,682.62,250.13,170.44,128.40,51.93
7407,781.95,747.42,747.90,748.10,756.34,-29.30,-1177.25,1113.77,-45.83,153.93,121.34,41.44
7445,804.47,747.85,747.91,747.98,762.05,591.80,-1104.49,787.60,-23.68,-43.50,90.27,28.98
7483,808.13,749.07,747.80,748.31,763.33,122.56,-1282.23,359.86,54.32,-22.50,35.66,18.05
7521,817.23,750.27,748.08,749.63,766.30,89.84,-818.85,567.38,26.87,-3.24,4.66,-18.81
7559,821.82,750.96,748.15,750.27,767.80,106.93,-900.39,488.28,21.25,7.08,1.52,-46.53
7597,820.84,751.31,748.21,750.48,767.71,115.23,-864.26,543.46,1.58,9.38,3.63,-52.64
7637,817.73,751.11,748.15,750.40,766.85,139.65,-857.91,542.48,-5.47,1.36,3.50,-44.76
7676,814.37,751.06,748.20,750.35,766.00,107.42,-839.36,560.06,-9.50,1.17,2.66,-35.35
7714,812.13,751.19,748.16,750.40,765.47,137.70,-862.30,529.30,-10.58,0.21,3.73,-36.76
7752,811.85,751.27,748.19,750.43,765.43,148.93,-864.26,527.34,-5.63,0.92,2.55,-36.98
7790,811.91,751.56,748.23,750.76,765.62,137.70,-868.16,527.83,-3.93,3.17,3.98,-46.89
7830,811.27,752.01,748.41,751.10,765.70,134.28,-844.24,547.85,-0.85,5.18,0.40,-53.51
7871,809.02,752.82,748.59,752.07,765.62,146.00,-862.79,536.13,3.76,5.87,2.88,-85.11
7909,804.52,754.36,748.82,753.72,765.35,134.28,-862.79,525.39,5.12,4.82,6.22,-116.06
7947,795.89,757.05,749.38,756.56,764.72,129.88,-871.58,540.53,5.63,8.17,6.66,-145.61
7985,782.74,761.36,750.64,761.76,764.13,127.93,-893.07,487.79,14.60,11.40,8.85,-161.97
8023,766.47,766.47,753.76,768.32,763.75,119.63,-862.30,558.11,23.40,23.36,10.28,-234.62
8063,749.90,771.18,759.11,774.47,763.67,127.44,-861.82,530.27,16.89,16.43,13.86,-371.70
8101,740.84,772.94,764.47,776.69,763.73,12.21,-950.20,488.28,-10.44,5.69,20.53,-368.66
8139,739.63,770.04,768.78,774.17,763.16,329.59,-959.96,769.04,-66.71,25.39,50.75,-375.77
8182,739.02,760.26,769.93,765.23,758.61,216.31,-1288.57,594.24,-189.66,70.16,144.62,-284.00
8221,738.65,753.88,762.21,754.54,752.32,103.52,-1636.72,729.00,-164.01,52.29,250.13,-150.94
8259,738.57,750.57,752.78,750.38,748.07,240.23,-2000.00,748.54,-64.47,32.78,250.13,-172.37
8298,738.26,748.53,748.92,748.53,746.06,386.23,-1412.11,575.68,11.00,17.00,250.13,25.54
8336,738.85,747.50,748.40,748.33,745.77,972.66,-900.39,605.96,135.27,-30.05,92.67,40.98
8374,738.32,747.26,748.29,748.31,745.55,911.62,-531.74,-59.57,18.20,-228.73,-75.44,44.40
8412,738.23,747.14,748.10,748.24,745.43,567.38,-324.22,-129.88,118.90,-94.02,-74.03,48.72
8450,738.24,746.96,748.09,748.20,745.37,492.68,-263.18,-125.98,3.82,-79.67,-150.87,49.37
8487,738.18,746.99,748.11,748.22,745.37,412.11,-735.84,151.37,-62.32,-50.50,-223.72,48.96
8528,738.09,747.20,748.05,748.23,745.39,13.18,-729.00,306.64,-89.56,-80.22,-231.47,49.53
8566,737.93,747.48,748.10,748.20,745.43,198.73,-1542.97,642.09,-96.63,-83.21,-211.28,47.18
8603,737.86,747.54,748.12,748.24,745.44,-268.07,-1659.67,707.52,-75.96,-89.42,-239.56,46.78
8641,737.79,747.36,748.15,748.29,745.40,-61.04,-1996.58,356.93,-41.91,-26.87,-250.14,47.15
8679,737.73,747.19,748.00,748.07,745.25,-667.48,-1530.76,890.62,-240.26,9.05,-250.14,49.44
8719,738.43,747.32,747.92,747.95,745.41,-2000.00,-1770.51,281.25,-249.69,109.50,-89.37,50.05
8757,743.47,747.20,748.04,748.12,746.71,-2000.00,-1271.48,665.53,-181.77,144.63,107.26,49.40
8795,761.46,747.69,747.91,748.12,751.30,239.26,-730.47,287.60,250.13,64.92,213.63,48.01
8833,787.08,748.47,747.98,748.10,757.90,-290.53,-2000.00,468.26,126.85,67.37,155.35,32.35
8874,792.69,751.49,748.07,748.70,760.24,237.79,-441.89,514.65,175.54,81.57,21.63,5.06
8933,792.58,758.33,749.18,752.82,763.23,224.12,-1049.32,420.90,27.44,-0.68,8.05,-90.70
8974,788.16,762.05,750.22,755.73,764.04,92.29,-860.35,515.62,32.25,11.15,7.27,-113.67
9012,782.14,763.92,750.87,757.41,763.59,123.05,-856.93,510.74,4.32,8.07,3.85,-129.90
9049,774.14,765.75,751.67,758.90,762.62,117.19,-852.54,540.04,5.72,6.83,4.80,-127.46
9087,766.97,767.27,752.54,760.02,761.70,134.28,-852.05,532.71,2.37,7.79,4.29,-109.77
9129,762.84,768.30,753.33,760.54,761.25,123.54,-854.98,546.39,3.56,4.84,2.56,-186.74
9168,763.10,768.26,753.70,760.97,761.51,145.02,-873.54,527.83,1.00,-0.81,-0.98,-223.15
9208,763.93,767.81,753.92,761.31,761.74,143.55,-871.09,537.60,2.41,-0.48,-1.93,-231.00
9246,766.31,766.84,753.54,760.64,761.83,133.30,-858.89,540.53,0.60,-0.90,-1.45,-214.44
9284,770.15,765.47,753.18,760.43,762.31,140.14,-873.05,520.02,-2.61,1.09,-3.45,-181.82
9321,770.64,765.09,753.18,760.45,762.34,134.77,-851.56,538.09,0.55,-1.18,0.07,-181.11
9358,770.47,764.41,753.15,760.23,762.06,120.61,-878.42,525.39,1.58,-1.11,-0.74,-166.76
9396,770.75,763.91,752.92,759.79,761.84,132.32,-854.98,546.87,-0.77,0.67,0.83,-139.76
9436,770.56,763.60,752.89,760.06,761.78,146.00,-859.37,528.32,-2.33,1.93,0.36,-128.37
9474,769.93,763.63,753.19,761.05,761.95,143.55,-854.98,523.93,1.38,2.17,0.02,-149.27
9512,769.20,763.73,754.12,763.49,762.63,156.74,-870.61,524.90,5.70,6.92,-2.28,-195.43
9550,764.88,764.26,755.80,766.98,762.98,155.76,-870.12,520.51,9.79,4.43,-0.81,-218.33
9588,756.78,765.11,758.35,770.95,762.80,124.51,-868.16,532.23,13.32,7.93,-0.21,-195.51
9626,746.55,765.65,761.71,773.68,761.90,145.51,-855.47,549.32,0.01,6.97,6.78,-163.74
9666,740.07,762.79,764.01,771.19,759.51,187.50,-871.09,737.79,-55.67,-30.90,28.76,-102.66
9704,739.12,755.94,764.13,764.22,755.85,417.48,-1311.52,597.66,-121.31,67.02,74.43,-147.73
9742,738.54,750.23,760.83,755.98,751.40,230.96,-1549.80,397.95,-86.07,73.75,138.24,-109.78
9780,738.41,748.57,755.11,751.52,748.40,272.46,-1675.29,224.61,133.65,94.22,188.92,-187.40
9818,738.20,747.99,750.02,749.38,746.40,50.29,-1464.84,365.72,250.13,114.37,152.15,-5.96
9860,738.68,747.37,748.23,748.41,745.67,894.04,-152.83,-857.42,131.50,119.80,75.70,46.37
9898,738.47,747.07,748.09,748.51,745.54,787.60,-793.46,-31.74,9.02,137.75,-138.29,51.50
9936,738.28,746.91,748.08,748.39,745.41,57.13,-430.66,330.08,-31.37,105.20,-121.77,51.36
9974,738.40,746.90,748.00,748.34,745.41,3.42,-788.57,545.90,35.91,-43.09,-129.26,52.78
10012,738.23,746.85,747.93,748.36,745.34,-17.09,-871.09,249.51,48.92,-96.68,-149.83,54.75
10050,738.14,746.71,747.86,748.37,745.27,72.75,-983.89,66.89,-2.45,-22.92,-173.29,56.97
10096,738.00,746.70,747.89,748.19,745.20,-238.77,-1204.10,313.96,-110.08,105.11,-178.20,54.82
10134,738.05,747.03,747.90,748.87,745.46,-519.04,143.55,-1364.26,250.13,250.13,-134.83,57.65
10171,737.90,746.84,747.87,748.37,745.24,-895.51,-1743.65,492.19,60.48,96.67,-127.31,56.28
10209,737.96,746.86,747.82,748.29,745.23,-659.18,-1068.36,347.17,-68.28,-20.21,-95.69,56.63
10247,737.82,746.94,747.89,748.23,745.22,-244.14,-1107.91,442.87,-31.42,-60.82,-61.39,54.33
10287,737.96,746.77,747.78,748.22,745.18,-71.78,-937.01,313.96,-54.09,-53.18,-39.91,57.48
10325,737.91,746.74,747.79,748.28,745.18,147.95,-1000.49,344.24,-59.31,-2.54,-46.73,57.76
10362,737.83,746.67,747.87,748.21,745.14,122.56,-919.92,370.12,-68.75,15.48,-65.89,55.52
10400,737.86,746.58,747.84,748.27,745.14,119.63,-964.36,438.96,-73.71,4.76,-76.06,57.10
10438,737.80,746.60,747.76,748.25,745.10,65.43,-921.87,382.32,-60.27,-2.76,-54.80,58.91
10476,737.77,746.65,747.80,748.23,745.11,107.42,-1071.29,369.63,-53.61,-1.06,-38.27,57.42
10515,737.78,746.59,747.79,748.27,745.10,49.32,-922.36,413.57,-50.08,-19.02,-39.65,58.33
10553,737.81,746.55,747.78,748.21,745.09,4.88,-897.95,374.02,-24.74,-33.55,-17.10,58.15
10591,737.78,746.58,747.78,748.28,745.10,27.83,-932.13,313.48,-21.41,-47.79,14.71,58.64
10629,737.83,746.59,747.76,748.36,745.13,123.54,-933.59,267.58,-9.02,-46.51,23.47,59.71
10667,737.76,746.54,747.71,748.25,745.06,261.72,-900.39,265.14,-15.57,-30.40,20.00,60.00
10705,737.77,746.53,747.78,748.32,745.10,340.82,-896.48,276.86,-5.01,1.66,19.30,59.09
10745,737.74,746.50,747.71,748.37,745.08,433.59,-904.79,253.42,0.96,32.53,2.77,60.76
10783,737.76,746.50,747.77,748.29,745.08,432.62,-862.79,248.54,5.60,51.89,-3.70,59.22
10821,737.76,746.50,747.81,748.27,745.08,383.79,-884.28,248.54,5.76,60.29,-10.82,58.06
10861,737.68,746.59,747.78,748.28,745.08,311.52,-888.18,254.88,-6.13,57.51,-10.15,58.52
10899,738.73,746.53,747.70,748.14,745.27,116.21,-871.09,687.50,-31.40,84.56,50.14,59.45
10937,740.89,746.65,747.66,748.12,745.83,225.10,-901.86,335.94,66.41,16.66,59.73,58.94
10981,743.83,747.01,747.64,747.93,746.60,335.94,-901.86,310.55,98.87,22.60,44.58,56.06
11019,752.53,747.05,747.73,748.00,748.83,-108.40,-1059.08,483.89,25.11,88.22,57.45,53.63
11057,760.46,747.30,747.74,748.06,750.89,295.90,-1034.18,200.20,-14.45,23.73,50.04,51.77
11095,764.51,748.26,747.69,748.41,752.22,204.59,-643.55,435.55,55.62,-15.86,13.00,44.42
11132,769.69,749.38,747.83,749.31,754.05,186.52,-864.75,453.12,60.47,-13.23,5.19,33.22
11173,776.60,750.73,748.35,751.01,756.67,130.86,-826.66,535.64,53.52,9.38,3.00,10.01
11211,780.75,753.17,749.01,752.86,758.95,131.84,-846.68,535.16,24.48,4.84,3.95,-26.81
11248,781.41,756.42,749.59,754.65,760.52,146.48,-848.14,503.42,2.82,1.26,5.76,-77.41
11286,780.50,759.85,750.15,755.96,761.61,136.23,-867.68,521.48,-5.34,1.44,4.64,-94.30
11324,778.07,762.28,750.76,757.37,762.12,147.95,-900.39,507.81,1.07,2.86,7.45,-104.49
11362,775.53,763.28,751.21,758.31,762.08,121.09,-849.12,557.62,2.15,-0.56,3.29,-104.97
11402,772.63,764.22,751.50,759.27,761.91,145.02,-851.56,531.74,-5.31,3.24,5.17,-114.15
11440,770.30,764.89,752.24,760.89,762.08,134.77,-874.02,522.95,1.16,4.52,5.77,-133.23
11478,768.57,765.12,753.03,762.23,762.24,129.39,-871.09,523.44,1.45,1.81,2.10,-154.15
11516,767.75,765.25,753.67,763.40,762.52,133.30,-872.07,534.67,1.29,2.97,1.63,-202.36
11554,766.17,765.74,754.09,764.02,762.51,135.25,-857.91,526.86,-0.37,3.34,1.56,-222.71
11592,764.09,766.07,754.45,764.57,762.30,125.98,-865.72,523.93,-1.04,2.76,2.82,-230.56
11632,762.79,765.99,754.72,764.83,762.08,117.68,-853.52,539.55,0.03,2.77,0.21,-216.51
11670,763.10,765.51,754.76,764.89,762.06,133.79,-854.49,539.55,2.03,3.89,0.08,-206.83
11708,763.50,764.47,754.51,764.64,761.78,114.75,-860.84,529.79,3.05,2.00,-1.66,-170.97
11746,764.80,762.89,754.26,763.62,761.39,121.09,-858.40,544.92,1.98,0.98,-3.62,-122.20
11784,768.48,760.83,753.88,762.57,761.44,121.09,-862.30,541.50,1.07,-0.67,-0.72,-122.67
11822,772.23,759.58,753.47,761.85,761.78,134.28,-847.17,546.39,0.47,0.38,-4.18,-131.76
11866,775.28,758.10,753.16,760.63,761.79,119.63,-876.46,527.83,1.11,-0.17,-1.16,-99.40
11903,778.50,756.49,752.90,759.65,761.88,133.79,-862.79,532.23,5.08,1.69,-3.90,-66.56
11947,783.26,754.94,752.60,759.14,762.48,160.64,-875.49,514.65,4.62,1.61,-3.60,-61.49
11985,786.26,754.08,752.44,758.64,762.85,152.34,-846.68,532.71,1.73,0.08,-2.55,-56.47
12023,788.94,753.06,752.15,757.99,763.03,154.79,-865.72,541.02,-2.00,-0.39,-0.95,-52.28
12060,791.26,752.09,751.83,757.40,763.15,151.37,-822.75,562.50,0.89,1.95,-2.17,-47.97
12101,795.34,751.54,751.53,756.90,763.83,147.46,-851.07,545.41,-6.44,-2.49,-1.52,-43.52
12138,797.74,751.34,751.46,756.58,764.28,155.27,-861.33,505.86,3.04,3.17,0.53,-48.93
12176,799.35,751.16,751.45,756.35,764.58,150.39,-854.00,537.11,1.65,0.66,-0.59,-53.84
12214,801.30,750.92,751.33,755.86,764.85,159.18,-859.86,524.90,-1.85,1.05,-1.26,-56.46
12251,801.21,750.64,751.37,755.94,764.79,168.46,-873.54,511.72,0.73,-1.61,-0.71,-57.44
12289,800.94,750.62,751.56,756.03,764.79,151.37,-801.76,568.36,0.72,-0.31,-0.37,-63.57
12329,800.84,750.80,751.76,756.26,764.92,141.60,-865.23,518.55,-7.76,-3.50,3.04,-72.61
12367,797.65,750.84,752.32,757.03,764.46,140.14,-837.89,538.09,-0.21,2.73,2.47,-95.36
12405,794.72,751.29,753.14,757.89,764.26,140.62,-837.89,557.13,1.41,-0.71,3.16,-167.27
12443,792.84,751.83,753.65,758.39,764.18,156.74,-878.91,529.30,-5.35,-1.25,0.92,-203.66
12481,791.32,751.95,754.18,758.90,764.09,152.83,-866.70,513.18,-8.20,-1.71,0.89,-219.52
12519,791.20,752.15,754.62,758.98,764.24,146.00,-840.33,538.57,-1.88,-0.13,1.88,-224.24
12559,791.09,752.21,754.64,758.51,764.11,144.53,-875.98,522.95,-4.13,3.18,1.33,-233.38
12597,789.66,751.91,754.32,757.71,763.40,146.97,-868.16,501.46,-0.47,1.95,-2.67,-242.49
12635,786.61,751.25,753.69,756.16,761.93,151.37,-881.84,505.86,-0.61,4.09,-2.89,-250.87
12673,779.10,750.64,752.53,753.91,759.05,152.83,-870.12,530.76,2.71,3.83,0.26,-215.19
12711,767.19,749.83,750.89,751.44,754.84,146.00,-881.35,509.28,-11.06,-1.68,-0.45,-36.69
12751,752.91,748.48,749.11,749.61,750.03,151.86,-913.57,420.90,-14.42,13.58,-7.23,29.35
12791,744.20,747.63,748.01,748.52,747.09,189.45,-1313.96,382.81,78.88,23.74,14.82,51.58
12829,740.97,747.41,747.87,748.45,746.18,-589.84,-918.95,101.07,-95.49,-88.03,11.01,54.29
12870,740.18,747.36,747.75,748.34,745.91,-105.47,-960.45,410.64,27.98,-36.50,40.53,55.51
12908,740.03,747.30,747.76,748.31,745.85,88.87,-942.87,346.19,10.31,-52.39,52.76,55.63
12946,739.82,747.20,747.68,748.32,745.75,205.08,-837.89,299.32,-2.85,-45.53,49.76,56.70
12985,739.34,747.06,747.62,748.15,745.54,-1537.60,-640.14,-2000.00,51.22,250.13,-65.54,57.62
13023,739.21,747.07,747.63,748.22,745.53,200.20,306.15,385.25,-240.52,-80.62,-3.09,57.57
13061,739.16,747.14,747.65,748.17,745.53,-104.00,-833.98,669.43,57.57,-18.89,4.28,57.13
13099,739.04,747.04,747.67,748.11,745.46,375.00,-843.26,554.20,-33.13,-72.56,8.62,57.06
13137,739.04,747.06,747.63,748.03,745.44,430.66,-677.73,611.33,-35.60,-74.95,-10.85,57.20
13175,739.56,747.36,747.51,748.37,745.70,-175.29,540.04,-21.97,250.13,143.53,28.63,56.80
13215,743.50,747.57,747.79,748.88,746.94,-413.57,-787.60,306.64,59.46,-56.35,3.10,54.08
13253,747.20,748.38,747.98,749.51,748.27,19.53,-728.03,638.18,37.37,16.34,7.67,49.01
13291,751.67,749.61,748.39,750.36,750.01,157.23,-924.32,433.11,43.56,8.99,1.79,40.88
13329,758.65,750.19,748.70,751.26,752.20,146.00,-882.32,460.45,19.29,5.72,-0.08,36.17
13366,767.31,751.17,748.92,752.10,754.87,137.21,-836.91,513.18,8.34,2.47,1.57,19.94
13404,774.60,752.47,749.16,753.01,757.31,142.09,-887.21,476.07,9.83,1.85,1.79,-5.54
13445,782.42,753.18,749.44,754.04,759.77,165.04,-874.51,499.51,6.65,1.73,1.27,-28.22
13483,786.29,754.10,749.81,755.28,761.37,153.32,-870.12,502.93,4.02,0.81,1.50,-65.55
13520,787.17,754.64,750.19,756.20,762.05,149.41,-872.56,508.79,1.15,1.07,1.19,-82.19
13558,788.29,754.69,750.20,756.19,762.34,143.07,-860.35,531.25,2.54,1.34,-2.24,-85.42
13596,788.36,754.74,750.25,756.08,762.36,140.62,-865.23,507.32,-4.14,0.73,1.88,-78.66
13634,787.20,754.84,750.26,756.21,762.13,138.67,-879.39,511.23,0.92,-1.50,0.92,-81.48
13674,786.84,755.08,750.39,756.64,762.24,135.74,-853.03,528.81,-2.39,-1.43,2.25,-91.06
13712,786.19,755.36,750.64,757.04,762.31,150.39,-879.39,498.54,-2.46,0.31,3.01,-91.57
13750,785.22,755.74,750.96,757.45,762.34,144.04,-872.07,501.95,2.03,1.71,3.14,-88.66
13790,784.67,756.03,751.02,757.30,762.25,130.37,-866.70,501.95,-0.09,1.28,0.21,-83.67
13833,784.08,755.80,750.75,756.27,761.72,137.70,-869.14,513.18,-3.09,0.77,-1.47,-61.45
13873,782.61,755.45,750.51,755.33,760.97,144.04,-884.28,513.18,0.23,2.80,2.02,-39.93
13911,780.36,754.93,750.13,754.39,759.96,131.84,-883.30,491.70,1.27,1.62,-0.98,-26.63
13949,775.67,753.92,749.79,753.11,758.12,130.37,-890.62,495.12,-0.40,2.56,2.10,-0.25
13986,766.36,752.39,749.19,751.50,754.86,144.04,-887.70,498.05,0.63,7.30,0.08,20.16
14024,755.20,750.19,748.39,749.91,750.92,144.04,-918.95,462.89,-3.73,6.36,-4.26,36.18
14062,746.19,748.63,747.88,749.04,747.93,128.91,-836.43,503.91,-12.14,3.57,-10.46,47.82
14102,741.44,747.55,747.68,748.45,746.28,-120.12,-849.12,194.34,-107.05,-48.01,8.56,54.86
14140,740.45,747.27,747.66,748.28,745.91,178.71,-999.51,457.03,-36.76,4.37,9.40,56.31
14177,740.26,747.15,747.64,748.33,745.84,260.74,-774.41,504.39,6.98,13.69,-10.29,57.09
14215,739.98,747.09,747.59,748.29,745.74,276.86,-718.75,371.09,23.20,-3.76,-19.44,57.64
14253,741.38,747.15,747.60,748.55,746.17,318.85,130.37,955.08,148.78,157.24,-7.77,57.27
14291,745.53,747.30,747.57,748.72,747.28,332.52,-752.44,271.00,-14.24,-37.28,9.08,55.86
14331,748.41,747.71,747.72,749.05,748.22,138.18,-868.16,495.61,-20.13,-27.79,6.32,52.70
14369,751.54,748.38,747.90,749.18,749.25,126.46,-943.36,395.51,-0.14,-13.50,4.45,47.82
14407,756.58,748.69,748.00,749.29,750.64,141.11,-889.16,456.54,3.11,1.28,1.45,44.64
14445,762.10,749.07,748.13,749.45,752.19,144.04,-881.35,480.96,3.10,3.73,-0.41,41.16
14483,767.52,749.51,748.29,749.78,753.78,146.97,-879.39,486.33,4.97,-0.56,0.66,36.35
14521,772.80,749.80,748.40,749.76,755.19,146.00,-879.39,485.35,3.97,-0.23,1.05,32.51
14561,778.03,750.13,748.41,749.92,756.62,159.18,-893.55,479.49,-0.17,0.51,2.12,26.93
14599,781.29,750.39,748.44,749.91,757.51,158.69,-881.35,475.59,4.68,0.43,0.34,23.39
14637,783.16,750.52,748.43,750.03,758.04,152.83,-875.98,482.91,1.38,0.82,1.34,20.18
14675,784.40,750.66,748.39,750.19,758.41,144.53,-886.72,483.89,2.23,0.95,-0.18,16.01
14712,784.86,750.94,748.30,750.54,758.66,157.23,-879.39,478.03,5.21,0.96,0.74,6.93
14755,783.97,751.19,748.18,751.44,758.69,157.71,-889.65,493.65,10.60,2.95,-2.00,-13.93
14798,782.40,751.42,747.91,752.38,758.53,142.09,-851.56,508.79,9.12,5.47,2.27,-51.45
14835,780.81,751.77,747.98,753.11,758.42,158.69,-872.56,512.70,3.55,3.45,1.00,-72.50
14873,777.52,752.39,748.14,753.91,757.99,141.60,-884.77,509.77,12.98,5.72,2.63,-82.43
14911,774.58,753.20,748.64,754.28,757.67,147.95,-863.77,549.32,8.59,5.35,4.14,-69.13
14949,772.89,753.38,749.02,754.20,757.37,137.21,-864.26,531.25,-4.00,2.85,0.15,-45.89
14987,772.34,753.34,749.18,753.80,757.17,137.70,-877.44,514.65,-1.28,1.76,0.91,-28.03
15027,772.18,753.26,749.13,753.50,757.02,129.39,-863.77,522.46,-5.13,1.46,0.02,-23.08
15065,771.88,752.96,749.09,753.04,756.74,139.65,-872.07,513.18,-3.37,1.26,-0.85,-11.20
15103,771.56,752.65,749.01,752.77,756.50,129.39,-868.16,513.67,-1.92,1.59,2.37,-6.40
15141,771.21,752.44,748.98,752.50,756.28,127.93,-879.39,505.37,0.12,-1.11,0.55,-0.89
15179,770.96,752.17,748.93,752.28,756.08,133.30,-867.19,502.93,-3.10,1.82,-2.79,3.90
15217,770.47,751.97,748.81,751.99,755.81,133.79,-874.51,498.54,0.34,2.27,-0.48,5.92
15257,770.44,751.76,748.75,751.62,755.64,147.46,-893.07,507.81,-1.62,2.63,0.43,10.54
15295,770.27,751.48,748.70,751.36,755.45,139.65,-862.79,501.95,-0.43,0.52,-0.23,15.23
15333,770.11,751.30,748.66,751.04,755.28,125.49,-874.02,505.37,0.37,-0.03,0.11,19.55
15371,770.48,751.16,748.54,750.86,755.26,137.70,-877.93,506.35,-2.65,-0.29,1.08,18.94
15409,770.60,751.21,748.61,750.83,755.31,143.07,-891.11,496.09,1.04,0.24,2.46,20.72
15447,770.91,751.36,748.59,750.78,755.41,135.74,-872.56,505.37,-2.06,0.12,1.05,18.64
15487,771.40,751.38,748.61,750.64,755.51,140.62,-869.14,486.33,-2.90,1.15,4.66,20.01
15524,772.06,751.39,748.51,750.68,755.66,142.58,-874.02,501.46,-1.40,0.37,1.21,16.01
15562,772.83,751.38,748.51,750.51,755.81,134.28,-870.12,495.61,-1.23,-0.99,0.00,17.27
15599,773.83,751.34,748.56,750.39,756.03,145.02,-860.84,504.88,-1.92,0.66,2.36,19.82
15637,774.33,751.34,748.50,750.36,756.13,141.60,-885.25,502.93,-2.21,1.96,0.11,17.72
15675,774.16,751.28,748.51,750.27,756.06,127.44,-875.49,504.39,2.27,3.75,3.66,19.73
15721,773.85,751.08,748.40,750.17,755.88,145.02,-879.88,494.14,0.31,2.72,0.79,19.90
15761,773.71,750.98,748.40,750.13,755.81,146.97,-876.46,493.65,0.83,0.01,-1.26,21.28
15799,773.14,750.89,748.36,750.03,755.60,149.90,-881.84,509.28,-1.10,-0.47,-1.53,22.42
15836,772.11,750.72,748.39,749.92,755.29,132.32,-857.91,491.21,-2.34,2.03,-0.60,26.21
15874,770.92,750.76,748.35,749.87,754.97,141.60,-892.09,500.00,-3.73,-0.67,-0.70,26.30
15912,769.61,750.70,748.36,749.82,754.62,144.04,-896.48,475.10,1.51,0.34,1.15,27.68
15951,768.62,750.64,748.38,749.93,754.40,130.37,-874.02,499.51,3.31,5.53,1.37,28.60
15989,767.93,750.83,748.39,750.15,754.33,134.28,-871.09,498.54,4.81,3.80,-0.82,26.30
16027,767.05,751.18,748.48,750.49,754.30,133.79,-863.28,507.32,7.02,3.18,3.47,21.90
16065,766.35,751.79,748.56,750.85,754.38,132.81,-868.65,485.84,2.81,5.59,2.44,13.63
16103,765.22,752.56,748.78,751.63,754.55,135.74,-899.90,470.70,6.40,4.85,4.37,3.98
16141,762.40,753.62,748.97,752.26,754.31,120.12,-845.21,520.02,9.04,7.79,5.48,-8.43
16181,760.51,754.68,749.14,752.34,754.17,134.77,-867.19,526.37,-0.31,0.81,3.84,-9.37
16219,759.56,755.04,749.14,752.13,753.97,116.21,-871.58,505.37,0.32,0.66,2.90,-7.41
16257,760.02,754.69,748.90,751.35,753.74,119.63,-869.14,514.65,-2.63,-2.20,1.98,-3.85
16295,762.34,754.06,748.67,750.62,753.92,131.35,-875.98,495.61,-1.77,-2.23,-0.15,-2.13
16333,764.92,753.38,748.47,750.04,754.20,128.42,-895.51,463.87,-7.77,-6.24,0.96,-1.50
16370,767.70,752.60,748.24,749.46,754.50,131.84,-886.23,497.56,0.15,-1.41,-0.34,4.69
16410,770.60,751.76,748.13,749.17,754.91,119.14,-918.95,490.72,-8.60,-5.08,-3.74,12.71
16448,772.70,751.21,747.90,748.70,755.13,121.09,-887.21,481.45,-8.63,-2.73,1.69,14.75
16486,774.75,750.44,747.80,748.45,755.36,131.35,-920.41,490.23,-8.44,1.83,-3.24,21.47
16524,776.10,749.69,747.73,748.25,755.44,116.70,-848.14,505.86,-10.36,-1.38,-4.80,28.22
16562,777.94,749.39,747.70,748.13,755.79,128.42,-887.21,478.03,5.98,3.03,-0.92,28.67
16606,780.24,748.76,747.59,747.97,756.14,146.48,-869.63,496.58,1.86,1.47,-5.34,30.28
16644,782.04,748.31,747.61,747.97,756.48,156.25,-875.00,490.72,-10.47,-2.63,-2.11,32.91
16682,783.83,748.32,747.55,747.95,756.91,133.79,-942.87,465.33,-5.36,0.14,-0.27,32.33
16720,785.90,748.17,747.60,747.90,757.39,173.34,-841.31,458.98,2.47,1.51,1.05,33.07
16760,788.67,748.23,747.63,747.94,758.12,136.72,-943.36,458.50,3.63,0.69,4.53,32.28
16798,789.88,748.23,747.64,747.91,758.41,149.41,-878.91,497.56,-0.17,1.77,-0.94,32.04
16838,790.50,748.27,747.56,747.96,758.57,149.90,-868.65,471.19,-1.82,-0.42,0.11,31.28
16876,787.62,748.30,747.73,748.03,757.92,175.78,-911.13,415.53,14.82,9.30,4.64,32.35
16914,780.54,748.61,747.74,748.51,756.35,193.85,-968.75,437.01,16.35,9.86,5.33,31.96
16952,771.28,748.74,747.85,748.91,754.19,106.93,-832.03,574.22,2.02,5.64,1.32,38.04
16990,764.21,748.66,748.03,748.92,752.45,148.44,-864.75,485.35,-2.28,1.37,0.01,43.37
17028,759.90,748.88,748.06,748.99,751.46,135.25,-905.76,472.66,-1.79,0.80,6.77,42.32
17068,756.73,749.04,747.93,748.98,750.67,138.18,-874.51,482.42,-4.95,-0.12,0.21,42.58
17106,755.06,748.98,747.92,748.80,750.19,134.77,-899.90,489.26,-8.37,-0.59,0.71,43.05
17144,753.63,749.10,747.88,748.73,749.84,130.37,-869.63,478.03,-10.29,-1.47,1.33,42.79
17182,752.38,748.96,747.86,748.59,749.45,137.21,-896.97,461.43,-8.56,-1.18,-0.38,43.76
17220,751.74,748.92,747.81,748.54,749.25,139.65,-901.86,470.21,-7.28,3.06,0.52,44.27
17258,751.25,748.89,747.76,748.44,749.09,130.37,-896.97,469.24,-3.64,4.18,1.31,44.59
17298,750.98,748.67,747.82,748.54,749.00,134.77,-891.60,475.59,-1.82,0.23,-0.95,45.80
17336,750.85,748.66,747.73,748.47,748.93,137.70,-896.97,471.68,-0.05,0.53,1.34,46.12
17373,750.68,748.58,747.75,748.45,748.87,118.65,-896.00,453.61,-0.67,2.08,0.15,46.52
17411,750.42,748.59,747.77,748.40,748.80,154.30,-891.11,447.27,-2.00,-0.05,-0.43,46.38
17449,750.26,748.47,747.75,748.38,748.72,152.34,-894.04,467.77,0.61,1.65,0.88,47.15
17487,750.09,748.50,747.78,748.44,748.70,136.72,-903.81,455.08,0.53,0.69,0.63,47.00
17527,750.01,748.48,747.80,748.42,748.68,150.88,-905.76,458.01,0.23,1.05,1.11,47.08
17571,749.90,748.44,747.73,748.47,748.64,134.77,-908.69,452.15,1.91,4.17,1.86,47.60
17609,749.77,748.46,747.76,748.44,748.61,140.14,-897.95,471.19,0.54,-0.93,-1.26,47.42
17647,749.59,748.51,747.74,748.41,748.56,149.90,-898.44,450.68,0.18,0.75,0.08,47.18
17684,749.42,748.41,747.68,748.38,748.47,148.44,-900.88,461.91,2.84,0.66,-1.14,48.00
17722,749.36,748.41,747.69,748.46,748.48,140.14,-888.67,444.82,1.68,-1.54,-1.07,48.06
17764,749.23,748.43,747.78,748.42,748.47,140.62,-888.18,460.94,0.46,1.41,-0.17,47.61
17802,749.03,748.47,747.75,748.46,748.43,154.30,-904.30,453.61,1.23,2.47,-2.36,47.61
17839,749.05,748.44,747.76,748.46,748.43,139.16,-915.04,463.87,-2.19,1.08,0.58,47.72
17877,748.99,748.48,747.73,748.44,748.41,145.02,-897.46,437.99,0.95,1.62,0.93,47.56
17915,748.91,748.51,747.79,748.38,748.40,144.53,-898.44,467.29,1.73,1.48,0.37,47.14
17953,748.80,748.52,747.82,748.51,748.41,148.93,-903.32,455.57,-0.98,1.14,-0.63,47.20
17993,748.71,748.61,747.76,748.51,748.40,132.32,-907.71,452.64,-0.58,1.64,3.65,46.94
18031,748.71,748.65,747.73,748.48,748.39,144.04,-905.27,470.21,-0.24,0.11,0.80,46.78
18069,748.60,748.69,747.74,748.54,748.39,140.14,-899.41,451.17,0.51,1.31,0.28,46.64
18107,748.54,748.62,747.76,748.51,748.36,136.72,-892.09,461.91,-0.81,3.82,-0.05,46.93
18145,748.50,748.65,747.74,748.51,748.35,140.14,-896.00,457.03,1.95,3.71,0.37,46.84
18183,748.51,748.55,747.74,748.47,748.32,146.00,-892.09,466.31,-0.27,-0.43,1.73,47.33
18223,748.59,748.61,747.73,748.39,748.33,139.65,-897.95,454.59,-0.41,0.92,2.14,46.89
18261,748.44,748.61,747.72,748.42,748.30,140.62,-902.83,459.47,1.74,-0.73,-0.32,47.01
18299,748.44,748.58,747.72,748.41,748.29,140.62,-903.81,456.05,0.47,-0.76,1.87,47.19
18336,748.40,748.61,747.74,748.51,748.31,140.62,-895.51,465.33,-1.50,2.37,-2.31,47.10
18374,748.34,748.60,747.72,748.49,748.29,138.18,-896.48,469.24,-1.21,2.78,-0.65,47.22
18412,748.32,748.58,747.72,748.46,748.27,136.23,-915.04,451.66,0.47,-0.02,-0.11,47.30
18452,748.20,748.54,747.68,748.54,748.24,132.32,-897.46,456.05,-0.98,-0.58,0.07,47.77
18494,748.14,748.58,747.76,748.43,748.23,143.55,-900.88,457.03,-0.53,1.23,-0.52,47.14
18533,748.07,748.52,747.75,748.47,748.20,147.95,-898.44,467.29,-0.14,0.99,1.37,47.61
18571,747.90,748.60,747.70,748.38,748.14,135.25,-890.14,463.38,0.75,1.72,0.34,47.25
18609,747.83,748.59,747.73,748.44,748.15,139.65,-904.30,458.50,1.04,-0.60,0.04,47.30
18647,747.83,748.54,747.71,748.48,748.14,154.30,-891.60,452.64,-1.78,1.21,-0.93,47.71
18687,747.67,748.58,747.71,748.45,748.10,143.07,-895.02,452.15,-0.23,0.46,0.45,47.46
18727,747.61,748.50,747.68,748.44,748.06,131.84,-905.27,460.45,-0.08,2.00,0.72,48.01
18765,747.55,748.49,747.71,748.47,748.06,138.18,-894.04,430.66,0.60,-0.27,1.14,48.00
18803,747.44,748.49,747.66,748.39,748.00,148.44,-903.32,454.10,-1.59,1.63,-0.37,48.11
18841,747.43,748.47,747.70,748.46,748.01,149.90,-892.58,448.24,-1.29,1.98,0.92,48.23
18880,747.40,748.36,747.69,748.41,747.96,141.11,-900.39,449.22,-0.34,-1.59,0.02,48.77
18920,747.31,748.50,747.72,748.39,747.98,141.60,-903.81,452.15,0.87,0.56,-2.42,47.89
18958,747.29,748.42,747.69,748.46,747.97,135.25,-891.60,456.05,0.58,4.47,0.76,48.57
18996,747.19,748.46,747.67,748.38,747.93,145.51,-898.44,457.03,1.47,-1.08,0.95,48.27
19034,747.07,748.45,747.66,748.40,747.89,139.65,-899.90,458.01,0.71,2.40,-1.30,48.46
19072,747.01,748.45,747.70,748.40,747.89,137.70,-898.93,448.73,-0.13,-0.76,0.92,48.34
19110,746.86,748.38,747.72,748.40,747.84,155.27,-895.51,445.80,-0.22,0.27,2.82,48.69
19150,746.79,748.30,747.72,748.41,747.80,146.48,-907.23,450.20,-0.69,2.71,0.98,49.21
19188,746.72,748.30,747.68,748.33,747.76,145.02,-901.86,463.38,1.39,0.15,2.26,49.25
19226,746.64,748.28,747.64,748.40,747.74,138.67,-898.44,460.94,0.41,0.08,0.17,49.61
19263,746.56,748.28,747.66,748.38,747.72,140.62,-900.39,453.61,0.63,-1.34,0.46,49.49
19301,746.40,748.31,747.72,748.46,747.72,141.60,-898.93,446.78,0.17,2.50,-0.34,49.30
19339,746.23,748.30,747.67,748.46,747.67,139.16,-910.16,459.47,0.39,2.21,-1.29,49.56
19379,746.09,748.23,747.70,748.47,747.62,154.30,-906.25,451.66,1.16,-2.31,2.56,49.95
19417,745.97,748.26,747.71,748.49,747.61,145.02,-906.74,455.08,-1.27,-0.47,2.39,49.80
19460,745.86,748.20,747.69,748.39,747.53,138.18,-904.79,448.73,-0.21,-0.32,2.75,50.06
19498,745.77,748.16,747.60,748.41,747.49,143.07,-887.70,448.73,-0.94,1.44,-0.82,50.65
19535,745.75,748.08,747.76,748.33,747.48,142.09,-896.97,451.17,-0.82,2.60,-0.60,50.46
19573,745.71,748.18,747.68,748.41,747.49,149.90,-900.88,461.43,-0.52,2.20,1.73,50.29
19612,745.72,748.16,747.67,748.44,747.50,152.34,-906.25,452.64,2.19,1.31,-0.87,50.46
19650,745.82,748.16,747.63,748.43,747.51,138.67,-901.86,444.34,0.50,1.74,0.82,50.56
19688,745.77,748.30,747.69,748.43,747.55,137.21,-912.11,460.94,1.72,3.38,-0.50,49.61
19729,746.12,748.33,747.65,748.53,747.66,142.58,-908.69,452.15,3.50,3.37,-0.74,49.61
19783,746.30,748.38,747.67,748.53,747.72,143.55,-895.02,443.85,0.89,0.96,1.43,49.19
19821,746.24,748.34,747.69,748.47,747.68,141.60,-896.00,466.31,0.91,3.36,2.68,49.34
19861,746.40,748.45,747.69,748.52,747.76,138.67,-917.48,452.15,1.57,1.11,3.30,48.72
19899,746.42,748.48,747.69,748.52,747.78,135.74,-906.25,459.96,1.49,0.71,0.63,48.53
19936,746.57,748.56,747.70,748.53,747.84,143.55,-894.53,458.01,3.44,0.40,-1.31,48.04
19974,746.69,748.51,747.76,748.64,747.90,154.30,-896.48,473.14,0.28,1.37,0.38,48.24
20012,746.81,748.58,747.72,748.63,747.93,126.95,-900.88,457.03,-0.13,1.36,2.21,47.95
20049,746.87,748.58,747.78,748.55,747.95,131.84,-895.02,451.17,-0.27,3.33,0.52,47.55
20089,746.87,748.63,747.70,748.58,747.94,123.54,-893.55,446.29,0.05,2.66,1.62,47.63
20127,746.95,748.70,747.75,748.58,748.00,143.07,-898.93,451.66,-0.43,0.10,-0.28,47.02
20165,747.02,748.62,747.75,748.60,748.00,123.05,-899.90,464.84,0.44,1.91,1.63,47.46
20203,747.08,748.58,747.72,748.63,748.00,137.70,-896.48,448.24,2.34,0.11,-2.42,47.84
20240,747.21,748.63,747.73,748.58,748.04,140.14,-894.04,458.01,0.06,-0.48,0.40,47.45
20278,747.22,748.64,747.75,748.54,748.04,149.90,-905.27,448.73,-1.11,2.19,-0.72,47.22
20318,747.18,748.71,747.78,748.53,748.05,130.37,-893.55,464.84,0.66,1.91,3.94,46.72
20356,747.24,748.71,747.78,748.55,748.07,136.72,-894.04,453.61,-0.63,1.59,-1.01,46.73
20399,747.28,748.62,747.82,748.51,748.06,141.11,-889.65,452.15,-2.27,0.17,-0.13,47.02
20436,747.29,748.60,747.77,748.57,748.06,143.07,-917.48,464.36,-0.92,1.44,-0.61,47.40
20474,747.45,748.68,747.65,748.59,748.09,136.72,-913.57,450.20,-2.04,0.53,-1.57,47.39
20514,747.45,748.76,747.68,748.61,748.13,127.93,-900.88,460.45,0.26,0.21,0.20,46.85
20552,747.49,748.67,747.72,748.52,748.10,131.35,-889.65,474.61,0.95,0.75,0.64,47.07
20589,747.63,748.69,747.83,748.50,748.16,143.55,-905.76,440.92,1.69,0.98,-0.71,46.54
20627,747.68,748.64,747.71,748.62,748.16,145.51,-905.76,470.21,1.71,3.04,2.41,47.37
20665,747.75,748.64,747.72,748.54,748.16,135.74,-895.02,461.43,-0.29,0.94,-0.15,47.17
20703,747.82,748.61,747.75,748.60,748.20,126.46,-901.86,464.84,1.02,2.82,0.19,47.34
20745,747.99,748.66,747.75,748.61,748.25,139.65,-907.71,464.84,3.32,3.25,0.08,47.03
20783,748.09,748.71,747.76,748.56,748.28,138.18,-903.81,460.45,0.19,2.15,2.89,46.64
20820,748.18,748.76,747.79,748.62,748.34,136.23,-892.58,469.24,1.27,1.79,2.76,46.28
20858,748.27,748.77,747.78,748.57,748.35,142.58,-892.58,467.29,1.44,1.50,0.63,46.20
20896,748.35,748.71,747.75,748.62,748.36,135.25,-897.95,456.05,-1.01,1.24,-1.51,46.68
20934,748.20,748.73,747.79,748.57,748.32,149.41,-908.69,458.98,0.75,1.05,0.53,46.42
20973,748.26,748.67,747.89,748.62,748.36,143.55,-901.37,462.40,0.26,2.57,-0.61,46.42
21011,748.25,748.59,747.74,748.67,748.31,136.72,-896.48,466.31,0.44,2.44,0.61,47.48
21048,748.25,748.53,747.76,748.51,748.26,143.07,-900.88,454.10,2.67,-0.15,-1.37,47.50
21086,748.48,748.42,747.69,748.37,748.24,97.17,-949.71,482.42,-5.43,-0.51,0.18,48.13
21123,748.59,748.36,747.71,748.41,748.27,155.76,-933.11,418.95,-1.61,0.30,-1.18,48.38
21161,748.84,748.28,747.65,748.32,748.27,52.73,-884.77,519.04,2.17,-2.15,0.95,48.85
21201,749.11,748.13,747.69,748.24,748.29,100.10,-900.39,489.75,-0.92,-20.69,8.76,49.39
21239,749.50,747.89,747.54,748.25,748.29,156.74,-927.73,473.63,1.29,-32.66,11.32,51.18
21276,749.65,747.80,747.52,748.22,748.30,222.66,-918.95,396.97,2.62,-18.57,10.82,51.64
21317,749.85,747.71,747.53,748.27,748.34,169.43,-834.96,415.53,0.63,-4.62,9.47,52.03
21355,749.70,747.76,747.51,748.25,748.31,188.96,-947.75,416.02,4.58,2.53,0.85,51.86
21392,749.45,747.78,747.56,748.39,748.30,132.32,-894.04,439.94,5.99,4.03,0.34,51.89
21432,749.04,747.88,747.57,748.41,748.22,140.62,-912.11,457.03,6.34,3.85,-0.72,51.45
21470,748.79,747.95,747.62,748.49,748.21,137.70,-896.00,463.38,4.55,1.62,0.53,51.06
21508,748.56,747.93,747.67,748.53,748.17,146.97,-890.14,462.40,0.53,2.20,0.54,51.08
21546,748.42,747.93,747.65,748.51,748.13,155.27,-895.02,470.21,0.39,0.81,0.88,51.13
21583,748.35,748.05,747.68,748.49,748.14,148.93,-885.25,464.84,-0.44,0.49,0.08,50.38
21621,748.45,747.94,747.67,748.40,748.11,147.95,-891.60,479.00,-1.11,0.08,0.86,50.88
21661,748.54,747.90,747.57,748.33,748.08,150.88,-910.64,461.43,-3.72,-1.83,0.47,51.39
21701,748.70,747.72,747.52,748.23,748.04,140.62,-910.16,449.22,-7.66,-3.34,-0.46,52.31
21739,748.80,747.67,747.52,748.15,748.03,110.84,-909.18,488.28,-2.18,-5.66,2.63,52.49
21777,748.98,747.40,747.53,748.13,748.01,93.26,-876.95,496.58,-5.11,-16.77,2.91,53.61
21815,749.11,747.28,747.44,748.07,747.97,146.97,-927.73,449.71,2.89,-18.33,7.99,54.50
21852,749.35,747.22,747.45,748.02,748.01,229.49,-904.79,389.65,-3.46,-10.16,4.69,54.57
21892,750.42,747.23,747.41,747.98,748.26,102.54,-920.41,538.57,6.89,5.73,-4.69,54.32
21930,752.33,747.30,747.39,747.95,748.74,223.63,-891.11,380.37,-2.88,0.79,-9.55,53.48
21968,756.87,747.33,747.34,747.89,749.86,159.18,-890.62,457.52,12.53,5.69,-2.64,52.06
22005,763.38,747.46,747.45,747.86,751.54,173.83,-896.97,449.22,22.83,8.48,2.38,49.91
22043,769.39,747.52,747.38,747.86,753.04,156.74,-858.89,470.70,7.03,0.92,8.31,45.74
22081,773.31,747.63,747.42,747.88,754.06,131.84,-874.02,522.95,7.48,3.56,7.11,42.50
22121,775.62,747.87,747.49,747.87,754.71,140.14,-854.98,497.07,9.94,-0.36,5.85,39.62
22159,777.21,748.05,747.47,748.03,755.19,153.81,-899.41,472.17,6.93,-2.56,3.73,36.32
22196,778.71,748.21,747.47,747.98,755.59,135.74,-879.88,497.56,6.98,1.83,0.17,34.09
22234,779.76,748.36,747.47,747.96,755.89,151.37,-865.23,498.05,7.96,1.02,0.98,32.28
22278,781.62,748.52,747.50,748.03,756.42,149.41,-892.09,484.37,1.49,1.53,1.58,31.07
22316,784.22,748.55,747.56,747.98,757.08,140.14,-848.14,524.41,-0.80,0.79,1.25,30.84
22356,786.69,748.60,747.50,748.02,757.70,156.74,-867.68,492.68,-1.15,-0.44,2.96,29.82
22394,788.15,748.65,747.53,748.02,758.09,147.46,-896.00,488.77,0.06,2.08,-1.21,29.43
22431,789.32,748.69,747.47,747.98,758.37,156.25,-906.74,467.77,-3.85,0.26,0.29,28.73
22469,790.32,748.60,747.51,747.92,758.59,152.83,-861.82,517.09,-8.48,-2.75,-1.08,29.31
22507,789.87,748.42,747.39,748.01,758.42,159.67,-884.28,465.33,-3.86,0.93,0.19,29.63
22545,789.16,748.45,747.47,747.93,758.25,146.00,-877.44,476.07,-2.92,1.24,3.02,30.22
22585,788.78,748.28,747.44,748.00,758.13,158.69,-888.67,491.70,-8.53,4.21,0.34,31.04
22622,788.23,748.09,747.43,747.90,757.91,154.79,-878.91,471.68,-6.00,2.37,-2.39,32.35
22660,787.66,748.06,747.43,747.88,757.76,150.39,-887.70,471.68,-4.38,0.76,-2.88,32.62
22700,786.69,747.87,747.43,747.89,757.47,175.78,-882.32,454.10,-6.58,0.40,-3.71,33.96
22738,785.81,747.81,747.41,747.86,757.22,146.48,-909.18,456.05,-0.34,1.72,-4.42,34.41
22776,785.02,747.71,747.46,747.90,757.02,154.30,-918.95,486.82,-6.72,0.70,-11.52,35.33
22815,783.34,747.63,747.35,747.81,756.53,175.78,-852.54,447.27,-3.42,1.04,-11.36,35.79
22853,781.57,747.46,747.36,747.88,756.07,163.57,-878.91,455.57,2.63,5.10,1.95,37.02
22890,778.48,747.36,747.40,747.82,755.27,157.71,-941.89,487.30,-1.95,3.89,-6.50,39.97
22928,772.57,747.22,747.41,747.89,753.77,227.05,-793.95,425.78,1.88,9.18,6.21,45.94
22965,764.79,747.31,747.47,748.10,751.92,29.30,-1034.18,757.81,23.56,14.53,45.24,50.05
23003,756.75,747.38,747.47,748.09,749.92,345.70,-1080.57,397.46,-22.26,4.25,1.72,52.07
23043,751.03,747.40,747.56,748.21,748.55,110.84,-857.42,540.04,-16.62,-3.69,0.46,52.98
23080,747.90,747.34,747.46,748.20,747.73,124.02,-893.55,475.59,-19.37,0.32,1.98,54.71
23118,746.31,747.29,747.48,748.11,747.30,156.74,-900.88,437.01,-19.37,-3.44,1.44,55.29
23155,745.60,747.27,747.47,748.18,747.13,150.88,-923.34,424.80,-0.48,-1.21,1.35,55.78
23210,745.32,747.39,747.56,748.24,747.13,152.34,-895.02,416.99,3.54,0.78,0.97,54.91
23248,744.85,747.34,747.58,748.25,747.00,157.23,-903.81,434.08,2.87,-0.49,1.17,55.26
23288,744.30,747.37,747.52,748.29,746.87,147.95,-901.37,459.96,3.70,-1.15,3.49,55.56
23326,744.50,747.33,747.55,748.34,746.93,151.86,-894.04,456.05,-0.15,1.70,-1.18,55.68
23364,744.40,747.25,747.54,748.23,746.86,140.14,-912.60,428.71,-2.09,1.46,-0.45,55.98
23402,744.39,747.26,747.61,748.27,746.88,149.41,-907.23,427.73,-0.69,0.95,-0.72,55.65
23440,744.64,747.26,747.50,748.26,746.92,143.55,-910.16,443.36,1.21,1.28,-0.73,56.06
23478,744.66,747.30,747.55,748.37,746.97,133.30,-906.74,452.64,-2.42,-0.43,1.37,55.81
23518,744.79,747.43,747.56,748.38,747.04,161.62,-915.04,430.18,1.00,1.60,-0.28,55.07
23556,744.89,747.48,747.67,748.47,747.13,155.76,-896.97,450.68,1.38,0.16,0.50,54.40
23594,745.09,747.51,747.66,748.46,747.18,155.76,-888.18,440.43,0.63,1.08,-0.34,54.23
23632,745.23,747.58,747.70,748.42,747.23,150.39,-907.71,448.24,3.03,2.89,-0.50,53.59
23670,745.22,747.64,747.65,748.45,747.24,150.39,-925.29,448.24,2.69,0.95,1.05,53.52
23710,745.17,747.71,747.66,748.55,747.27,149.90,-904.79,431.64,1.88,1.67,0.16,53.30
23751,745.17,747.63,747.66,748.46,747.23,140.62,-897.46,469.73,2.95,3.53,1.16,53.60
23788,745.14,747.62,747.63,748.50,747.22,149.90,-902.83,457.52,0.44,1.23,-0.67,53.78
23826,745.20,747.55,747.63,748.41,747.20,150.39,-904.79,446.29,-3.16,-1.32,1.11,54.04
23864,745.31,747.65,747.63,748.46,747.27,146.00,-896.00,444.82,-2.27,2.12,1.64,53.55
23902,745.25,747.60,747.64,748.37,747.21,142.58,-901.37,440.43,-4.83,2.88,-0.43,53.71
23940,745.24,747.67,747.62,748.36,747.22,159.67,-919.92,434.57,-0.05,3.57,1.53,53.36
23980,745.17,747.61,747.63,748.43,747.21,145.02,-918.95,438.96,0.80,1.82,0.28,53.75
24018,745.17,747.61,747.59,748.38,747.19,142.09,-910.16,438.96,2.38,2.25,-1.28,53.87
24056,745.20,747.57,747.60,748.45,747.20,141.60,-906.74,458.98,1.37,1.73,2.36,54.12
24094,745.16,747.60,747.67,748.39,747.20,142.09,-916.02,444.34,3.16,1.03,0.47,53.60
24136,745.12,747.67,747.69,748.45,747.23,150.39,-892.58,447.75,1.75,0.78,1.55,53.29
24174,745.04,747.63,747.61,748.48,747.19,143.07,-909.67,445.80,2.15,-0.34,-1.76,53.84
24214,744.91,747.64,747.67,748.55,747.19,138.67,-898.93,438.96,2.91,0.95,0.57,53.68
24252,744.82,747.73,747.68,748.50,747.18,140.14,-906.74,456.05,0.56,1.82,-1.17,53.12
24290,744.76,747.66,747.65,748.54,747.15,131.84,-904.30,446.78,0.84,2.21,-3.50,53.67
24328,744.58,747.72,747.78,748.56,747.16,146.00,-907.23,444.82,0.24,-0.14,2.13,52.89
24366,744.38,747.64,747.67,748.51,747.05,141.11,-903.81,446.29,-0.01,-0.53,-1.21,53.78
24405,744.23,747.56,747.71,748.58,747.02,155.27,-895.51,450.68,0.92,1.01,0.18,54.10
24443,744.02,747.57,747.71,748.49,746.94,145.02,-901.37,456.54,1.41,-0.95,0.51,54.04
24481,743.89,747.51,747.67,748.48,746.89,157.23,-908.20,452.64,1.44,-1.23,3.74,54.53
24519,743.87,747.46,747.68,748.41,746.85,136.23,-896.48,472.66,1.10,-0.23,-0.87,54.62
24557,743.95,747.54,747.73,748.46,746.92,147.95,-908.20,446.29,1.75,4.64,-3.47,54.01
24595,743.91,747.54,747.68,748.54,746.92,152.34,-888.67,464.36,1.84,2.66,0.97,54.36
24635,744.04,747.60,747.69,748.54,746.97,150.39,-905.76,453.61,3.36,3.61,-2.44,54.03
24675,744.27,747.53,747.75,748.58,747.03,147.46,-898.44,455.08,1.88,1.95,-0.37,53.98
24713,744.39,747.62,747.76,748.57,747.08,143.55,-887.70,462.89,2.68,1.61,2.17,53.48
24750,744.49,747.62,747.71,748.62,747.11,141.11,-898.93,471.19,0.70,1.60,-3.41,53.79
24788,744.58,747.62,747.76,748.62,747.14,146.97,-892.58,453.12,3.14,-0.76,0.30,53.47
24826,744.75,747.65,747.77,748.58,747.19,142.58,-890.62,468.75,1.45,0.04,0.40,53.20
24866,744.76,747.60,747.75,748.65,747.19,135.25,-887.21,454.59,-0.24,0.99,0.46,53.63
24904,744.84,747.58,747.75,748.58,747.19,145.02,-892.09,461.43,1.77,2.47,1.60,53.62
24942,745.01,747.59,747.73,748.60,747.23,139.16,-891.11,460.94,0.01,2.52,0.21,53.65
24979,745.21,747.54,747.73,748.48,747.24,145.51,-901.86,453.61,-1.24,-0.78,-1.80,53.67
25017,745.57,747.48,747.65,748.43,747.28,154.30,-894.04,466.31,0.46,2.08,-1.46,54.28
25055,746.03,747.42,747.67,748.42,747.39,162.60,-901.37,452.15,5.43,-1.89,0.74,54.23
25102,747.10,747.43,747.63,748.38,747.64,144.04,-883.30,474.61,3.51,3.46,-1.53,53.98
25140,748.42,747.44,747.63,748.35,747.96,161.62,-920.41,434.08,-2.18,0.16,0.09,53.40
25178,749.69,747.49,747.55,748.30,748.26,141.11,-887.70,472.66,0.36,2.59,-1.31,53.08
25216,750.83,747.51,747.52,748.24,748.53,158.20,-889.16,488.28,0.28,3.89,-0.90,52.72
25254,752.29,747.50,747.60,748.13,748.88,163.09,-899.41,444.34,-1.82,1.05,-0.25,52.09
25292,753.78,747.49,747.56,748.09,749.23,142.58,-873.54,449.22,-5.71,-3.63,-1.26,51.89
25332,756.28,747.44,747.52,748.02,749.81,181.15,-897.46,454.10,-8.99,-1.93,-0.36,51.69
25369,759.49,747.67,747.52,747.93,750.65,170.41,-926.76,398.93,4.53,3.67,-3.31,49.49
25407,765.17,747.78,747.55,747.97,752.12,149.90,-923.34,442.38,11.28,2.09,0.24,47.35
25445,773.22,747.88,747.54,748.00,754.16,168.95,-889.16,462.40,12.89,-1.73,-0.69,41.89
25483,780.65,748.15,747.55,748.00,756.09,136.72,-871.09,494.63,7.85,-0.58,1.94,34.03
25521,784.68,748.30,747.61,748.08,757.17,148.93,-861.82,503.42,6.21,2.17,0.67,32.41
25561,786.78,748.36,747.63,748.10,757.72,189.45,-854.98,564.45,13.90,-1.13,-2.11,31.71
25599,787.41,748.57,747.64,748.08,757.93,125.00,-900.39,460.94,0.82,4.78,1.13,30.44
25637,787.51,748.50,747.63,748.03,757.92,144.53,-886.72,479.00,-1.67,2.47,-2.61,30.82
25677,787.87,748.45,747.54,748.01,757.97,158.20,-890.62,490.72,-3.20,2.85,-0.32,30.71
25715,787.72,748.43,747.56,748.07,757.95,141.60,-853.52,509.28,-2.35,-0.89,-0.31,30.84
25753,787.85,748.33,747.60,748.04,757.96,183.59,-874.02,486.82,-5.34,-2.60,-0.33,31.63
25793,788.20,748.36,747.55,747.98,758.02,151.37,-903.32,476.56,-3.04,2.44,-1.16,31.21
25831,788.72,748.36,747.58,747.85,758.13,150.88,-885.25,520.51,-4.40,-0.31,-0.24,31.42
25869,789.10,748.24,747.45,747.97,758.19,130.86,-899.90,498.05,-10.17,0.87,-0.53,31.28
25907,789.22,748.03,747.50,748.00,758.19,158.69,-902.34,439.94,-19.37,-1.02,-1.35,32.61
25945,789.12,747.93,747.47,747.97,758.12,165.53,-913.09,434.57,-4.29,2.24,1.55,33.09
25983,787.76,747.90,747.51,747.93,757.78,147.95,-943.36,476.07,-11.88,-1.81,-5.47,33.84
26029,785.99,747.85,747.46,747.96,757.32,178.22,-881.35,435.55,-0.44,0.66,-0.12,34.28
26068,784.46,747.79,747.51,747.95,756.93,138.67,-933.59,492.68,5.80,3.48,9.89,35.10
26106,782.68,747.71,747.56,747.87,756.45,167.97,-913.09,409.18,3.02,2.08,0.73,36.13
26144,779.14,747.70,747.56,747.95,755.59,168.95,-913.57,446.29,7.55,6.41,2.36,38.59
26182,771.66,747.70,747.63,748.23,753.81,148.93,-859.37,515.14,24.58,9.19,3.76,44.66
26220,765.51,747.49,747.71,748.16,752.22,114.26,-801.27,571.29,-4.14,3.50,0.92,50.03
26260,761.16,747.51,747.61,748.15,751.11,158.20,-894.53,447.27,-6.56,-0.53,1.18,50.57
26298,758.33,747.54,747.61,748.32,750.45,145.51,-908.20,457.03,-0.73,4.48,-0.10,50.94
26336,756.43,747.61,747.71,748.44,750.05,134.77,-905.27,462.89,1.11,0.33,3.56,50.87
26374,755.02,747.74,747.70,748.48,749.73,139.65,-910.64,462.89,-2.79,-0.22,2.84,50.35
26412,753.92,747.78,747.72,748.51,749.48,133.79,-878.42,479.00,-3.53,1.05,1.81,50.26
26450,753.29,747.72,747.70,748.50,749.30,164.06,-876.95,467.77,-1.73,2.48,-0.70,50.76
26490,752.83,747.76,747.72,748.55,749.22,132.81,-896.00,463.38,0.66,4.12,1.74,50.63
26527,752.36,747.68,747.75,748.48,749.07,150.88,-889.65,469.73,0.19,-1.37,0.18,51.11
26565,752.14,747.72,747.69,748.54,749.02,136.72,-903.32,455.57,-1.17,-0.63,-1.06,51.01
26603,752.03,747.67,747.69,748.54,748.98,160.16,-907.71,453.61,1.59,2.14,-0.71,51.35
26641,751.81,747.65,747.66,748.48,748.90,147.95,-877.44,473.63,-1.48,1.88,0.93,51.45
26681,751.64,747.60,747.69,748.49,748.85,156.74,-890.14,471.68,-1.50,1.24,-0.53,51.82
26721,751.45,747.58,747.63,748.43,748.77,149.41,-897.46,455.57,-2.88,0.40,1.83,52.01
26759,751.15,747.56,747.67,748.43,748.70,149.41,-881.35,467.77,-2.55,-0.02,0.19,52.11
26796,750.95,747.57,747.62,748.38,748.63,153.81,-903.81,447.27,-2.30,-0.19,0.89,52.13
26834,750.70,747.54,747.60,748.35,748.55,148.93,-896.00,454.10,-1.63,0.34,2.31,52.40
26872,750.58,747.58,747.61,748.38,748.54,160.16,-901.37,453.61,-1.44,2.50,2.24,52.25
26910,750.44,747.52,747.60,748.34,748.48,150.88,-902.34,437.99,-2.94,-0.72,0.16,52.56
26955,750.33,747.55,747.62,748.30,748.45,143.07,-909.18,445.80,-2.66,1.18,2.15,52.31
26993,750.23,747.61,747.60,748.35,748.45,143.07,-899.90,445.80,-3.69,-0.24,0.31,52.21
27031,750.21,747.61,747.60,748.27,748.42,146.48,-910.64,440.92,-4.38,-0.95,0.86,52.03
27069,750.24,747.54,747.63,748.32,748.43,142.09,-911.62,431.15,-2.30,0.39,2.21,52.37
27107,750.19,747.55,747.61,748.30,748.41,150.88,-903.32,446.29,-2.71,0.95,0.26,52.36
27145,750.19,747.57,747.59,748.24,748.40,142.58,-909.67,436.04,-3.08,-1.73,-0.27,52.27
27185,750.13,747.61,747.64,748.29,748.42,156.25,-910.16,429.69,-0.42,2.53,-0.27,51.93
27223,749.99,747.55,747.56,748.26,748.34,151.86,-913.09,430.66,2.16,3.70,-0.75,52.60
27261,749.94,747.58,747.55,748.32,748.35,143.55,-906.25,443.85,0.76,1.31,1.75,52.64
27299,749.99,747.54,747.60,748.34,748.37,151.37,-899.41,436.52,1.34,-1.31,1.67,52.57
27337,749.99,747.55,747.54,748.34,748.36,150.88,-905.27,443.85,1.57,0.98,2.28,52.83
27375,749.93,747.56,747.58,748.35,748.36,159.67,-899.41,436.52,0.81,0.08,0.43,52.63
27416,749.97,747.55,747.52,748.42,748.37,142.58,-904.30,427.25,0.31,3.79,-0.79,53.09
27453,750.10,747.54,747.60,748.35,748.40,146.97,-900.39,439.45,3.23,1.50,-0.17,52.56
27491,750.16,747.56,747.63,748.41,748.44,148.93,-904.30,444.34,-0.27,2.00,1.01,52.38
27529,750.18,747.59,747.64,748.42,748.46,157.23,-908.69,453.12,2.09,3.46,-1.66,52.24
27567,750.17,747.58,747.56,748.40,748.43,145.02,-901.86,446.29,2.76,1.15,-1.24,52.67
27610,750.18,747.59,747.67,748.44,748.47,143.07,-907.71,445.80,2.12,2.05,0.66,52.10
27648,750.17,747.46,747.57,748.43,748.41,142.58,-901.86,453.12,1.89,1.46,1.42,53.23
27686,750.00,747.46,747.59,748.42,748.37,146.97,-897.95,434.57,-0.53,2.79,2.07,53.17
27724,749.99,747.44,747.69,748.38,748.37,132.81,-910.64,438.96,-2.14,3.40,-0.95,52.98
27762,749.78,747.44,747.67,748.43,748.33,158.20,-896.48,442.38,7.31,1.59,-0.48,53.05
27800,748.98,747.83,747.77,748.57,748.29,144.04,-910.64,443.85,7.92,2.69,3.73,51.08
27840,747.48,748.07,747.81,748.78,748.04,135.74,-878.42,463.38,1.39,3.31,-1.32,50.37
27882,745.39,748.29,747.88,749.05,747.65,136.23,-922.85,445.31,2.83,2.90,1.58,49.89
27920,743.73,748.46,747.96,749.25,747.35,193.85,-907.71,513.18,-6.81,2.25,-2.25,49.28
27958,742.72,748.58,747.91,749.24,747.11,183.59,-919.43,479.49,0.55,17.32,-7.50,49.03
27996,741.97,748.58,747.87,749.30,746.93,165.04,-832.03,500.49,-4.69,33.28,-13.79,49.40
28034,741.51,748.62,747.88,749.28,746.82,130.86,-901.86,425.78,-6.36,40.40,-17.34,49.22
28074,741.20,748.69,747.96,749.21,746.77,115.23,-959.47,371.58,-3.62,17.89,-9.01,48.54
28112,741.21,748.60,747.86,749.18,746.71,146.48,-999.02,373.54,7.73,-5.12,1.26,49.33
28150,741.89,748.39,747.85,748.94,746.77,104.00,-869.63,490.72,2.89,3.90,-0.44,50.13
28188,743.61,747.93,747.65,748.68,746.97,125.49,-890.14,471.19,-3.44,4.30,-3.66,52.63
28226,744.63,747.63,747.68,748.54,747.12,133.79,-893.55,461.43,-2.19,1.84,-2.76,53.74
28263,745.27,747.53,747.65,748.47,747.23,146.97,-903.32,457.03,-2.21,0.62,2.97,54.14
28303,745.67,747.58,747.61,748.45,747.33,150.88,-906.25,451.66,-2.66,-0.20,-1.73,53.93
28341,745.86,747.48,747.56,748.37,747.32,154.30,-888.18,449.22,-2.92,0.69,-0.42,54.46
28379,746.04,747.53,747.61,748.33,747.38,147.95,-893.55,452.15,-1.75,1.03,2.10,53.85
28417,746.21,747.63,747.57,748.37,747.44,151.86,-912.11,429.69,-1.27,0.94,0.84,53.54
28454,746.45,747.61,747.57,748.42,747.51,142.58,-913.09,457.52,-1.24,0.92,0.19,53.63
28492,746.52,747.69,747.57,748.40,747.54,154.30,-899.90,436.52,0.48,-0.84,1.93,53.14
28538,746.64,747.58,747.62,748.38,747.55,144.53,-891.60,442.87,2.00,1.53,0.35,53.45
28578,746.79,747.59,747.60,748.43,747.60,159.18,-901.86,447.27,-0.13,2.97,1.54,53.49
28616,747.08,747.48,747.54,748.23,747.58,150.88,-902.34,478.03,7.63,3.59,1.22,54.00
28653,747.87,747.42,747.53,748.13,747.74,123.54,-865.72,478.52,-5.31,0.59,0.64,53.91
28691,749.12,747.26,747.47,747.93,747.94,87.40,-873.54,570.80,-14.69,-2.02,-3.86,54.20
28729,749.95,747.17,747.41,747.87,748.10,166.02,-988.77,395.51,-3.83,-5.92,-24.50,54.53
28782,749.92,747.08,747.43,747.94,748.09,222.66,-830.08,379.39,-5.19,-4.85,-6.34,55.07
28821,750.15,747.06,747.44,747.90,748.14,187.99,-902.83,404.30,0.07,3.99,6.98,55.17
28859,750.22,747.07,747.48,747.82,748.15,200.20,-898.93,397.95,0.24,4.69,5.14,54.98
28897,750.07,747.11,747.45,748.02,748.16,186.04,-891.60,429.20,2.04,5.34,10.91,54.95
28936,749.84,747.09,747.50,748.02,748.11,197.75,-878.42,411.13,3.47,9.16,23.43,55.03
28975,749.27,747.18,747.47,748.19,748.03,181.64,-704.10,802.25,6.14,5.63,0.98,54.99
29016,748.77,747.28,747.54,748.28,747.96,145.51,-952.64,414.06,3.66,-0.80,3.66,54.43
29054,748.53,747.38,747.59,748.26,747.94,153.81,-896.97,436.52,-2.39,0.81,4.04,53.73
29092,748.44,747.45,747.61,748.29,747.95,153.81,-908.20,449.71,0.69,-2.06,0.30,53.38
29132,748.42,747.48,747.60,748.32,747.96,146.00,-901.37,437.01,-0.25,0.21,3.77,53.36
29171,748.44,747.53,747.55,748.32,747.96,140.14,-897.95,438.96,-0.30,-0.89,1.65,53.35
29209,748.33,747.60,747.55,748.26,747.93,143.55,-906.74,440.43,0.69,0.09,1.48,52.96
29250,748.26,747.60,747.58,748.29,747.93,146.00,-912.60,449.22,0.08,-0.57,-0.73,52.86
29288,748.18,747.61,747.53,748.23,747.89,140.62,-916.02,435.55,-1.68,0.32,-0.27,53.03
29327,748.21,747.57,747.60,748.31,747.92,146.48,-911.62,438.96,1.31,0.85,1.91,52.98
29365,748.17,747.57,747.60,748.32,747.91,147.95,-898.44,438.48,0.57,-0.47,-1.42,53.03
29404,748.15,747.51,747.56,748.29,747.88,150.39,-914.55,447.75,0.45,2.16,0.84,53.46
29442,748.13,747.59,747.59,748.21,747.88,143.07,-895.51,442.87,-0.50,1.58,1.11,52.83
29483,748.05,747.63,747.56,748.27,747.88,152.34,-905.27,443.36,0.17,0.24,1.73,52.87
29521,748.10,747.65,747.58,748.31,747.91,155.76,-907.23,436.52,0.98,-0.08,-3.49,52.78
29560,747.98,747.63,747.56,748.28,747.86,154.30,-893.07,433.11,-0.31,-0.37,2.63,52.94
29600,747.98,747.60,747.58,748.28,747.86,145.51,-905.27,428.22,0.26,2.37,2.25,52.99
29639,748.02,747.65,747.56,748.36,747.90,140.14,-912.11,436.04,0.52,1.14,-0.65,52.92
29677,747.99,747.66,747.56,748.34,747.89,155.27,-915.53,434.57,-0.33,2.30,0.81,52.87
29720,748.00,747.61,747.56,748.27,747.86,142.58,-907.23,424.80,0.32,-0.17,-0.98,53.02
29759,748.35,747.50,747.54,748.23,747.91,149.90,-871.58,473.14,1.45,0.31,-1.38,53.43
29798,748.90,747.33,747.47,748.02,747.93,129.88,-863.77,464.36,-15.40,-2.73,-2.81,54.06
29836,749.61,747.30,747.48,747.99,748.09,152.34,-949.22,429.69,-9.50,-8.34,-2.85,53.91
29875,749.94,747.24,747.47,747.98,748.16,141.60,-923.34,446.78,-1.08,1.33,-10.08,54.07
29913,750.06,747.26,747.46,748.03,748.20,181.64,-904.79,431.15,-2.81,-7.27,-7.31,54.15
29954,750.11,747.21,747.44,747.99,748.19,181.15,-875.98,429.20,2.49,-4.31,-1.31,54.41
29992,750.22,747.17,747.53,748.00,748.23,167.97,-862.79,410.16,2.29,-4.60,9.74,54.44
30031,750.13,747.10,747.52,747.97,748.18,201.66,-904.79,390.62,4.62,2.11,11.64,54.93
30069,749.73,747.24,747.51,748.11,748.15,184.57,-864.75,407.23,8.71,7.20,22.40,54.22
30107,749.09,747.36,747.56,748.18,748.05,218.75,-942.38,307.62,-14.22,-4.69,0.15,53.70
30146,748.54,747.32,747.45,748.24,747.89,144.53,-874.51,449.22,8.35,3.17,1.78,54.75
30187,748.44,747.34,747.49,748.26,747.88,148.93,-914.06,437.99,3.22,2.73,3.63,54.49
30225,748.22,747.39,747.55,748.29,747.86,141.11,-910.64,422.36,1.37,0.85,-0.53,54.08
30263,748.18,747.40,747.56,748.30,747.86,140.62,-908.20,436.52,-0.48,1.43,-0.38,54.00
30302,748.17,747.49,747.55,748.35,747.89,148.93,-914.55,437.01,-0.14,1.76,-0.13,53.75
30340,748.12,747.50,747.61,748.31,747.88,145.51,-905.76,442.87,0.08,-2.53,0.24,53.32
30378,748.01,747.47,747.53,748.32,747.83,148.93,-903.81,426.27,1.38,2.33,0.47,53.94
30419,748.00,747.52,747.62,748.28,747.85,156.74,-914.55,440.92,-0.02,3.92,-0.53,53.17
30458,748.00,747.50,747.61,748.25,747.84,146.97,-900.39,430.66,1.86,1.74,0.64,53.23
30496,747.98,747.48,747.57,748.33,747.84,153.81,-904.79,449.22,0.95,0.13,2.67,53.71
30534,747.90,747.52,747.51,748.28,747.80,144.04,-904.79,437.50,0.34,2.04,0.17,53.73
30572,747.96,747.44,747.54,748.26,747.80,142.58,-906.25,425.78,2.01,3.13,-0.80,53.94
30613,747.91,747.51,747.46,748.28,747.79,148.93,-905.76,440.43,3.31,1.40,1.61,53.99
30675,748.00,747.49,747.54,748.28,747.83,141.60,-917.48,434.08,0.18,2.20,1.26,53.69
30719,747.98,747.49,747.54,748.30,747.83,154.30,-906.25,450.68,0.27,0.20,0.82,53.73
30758,748.00,747.54,747.52,748.24,747.82,150.39,-906.25,436.52,-0.20,0.77,-0.10,53.51
30796,747.95,747.56,747.52,748.27,747.82,135.74,-911.13,433.59,-0.27,-0.90,0.15,53.47
30834,748.03,747.49,747.50,748.33,747.84,158.20,-906.74,429.20,-0.33,-0.20,1.29,53.98
30872,748.04,747.57,747.52,748.30,747.86,150.88,-910.64,435.06,-1.27,0.52,1.18,53.42
30913,747.97,747.53,747.51,748.25,747.81,156.25,-914.06,428.71,2.89,-0.27,-0.34,53.67
30951,747.96,747.52,747.58,748.31,747.84,152.83,-910.16,425.29,-0.78,3.33,0.17,53.42
30989,747.92,747.54,747.58,748.25,747.82,159.18,-907.23,447.75,-0.50,2.20,0.21,53.27
31027,748.01,747.48,747.46,748.33,747.82,144.04,-912.60,426.76,-1.09,1.79,2.74,54.17
31066,747.98,747.53,747.53,748.29,747.83,140.62,-915.53,441.89,-0.29,-1.34,2.04,53.60
31108,748.03,747.54,747.53,748.30,747.85,155.27,-919.92,439.94,0.64,-0.81,2.98,53.55
31145,747.97,747.58,747.56,748.29,747.85,149.41,-922.36,436.52,-0.18,1.70,-0.07,53.19
31184,748.01,747.57,747.51,748.31,747.85,146.48,-907.71,442.87,-0.47,1.52,2.09,53.51
31222,748.04,747.49,747.51,748.31,747.84,137.70,-918.46,427.25,-1.89,1.98,-1.09,53.87
31260,747.93,747.62,747.52,748.30,747.84,152.34,-916.50,436.04,1.68,0.84,-0.57,53.20
31298,747.94,747.58,747.61,748.32,747.86,164.06,-917.48,437.50,0.05,1.73,2.82,53.00
31339,748.03,747.58,747.56,748.33,747.88,158.20,-910.64,438.48,0.82,0.60,-0.08,53.26
31377,747.98,747.62,747.52,748.30,747.85,143.55,-905.27,427.25,0.98,0.77,0.91,53.21
31415,747.98,747.56,747.66,748.27,747.87,143.07,-906.25,439.45,-0.30,2.37,1.22,52.73
31454,748.03,747.60,747.50,748.30,747.86,141.60,-925.78,430.18,1.45,0.37,-1.43,53.32
31492,747.98,747.60,747.59,748.21,747.85,148.93,-905.76,427.73,1.14,3.24,0.78,52.80
31530,747.94,747.58,747.58,748.30,747.85,146.48,-899.90,435.55,0.44,0.68,1.02,53.12
31571,747.94,747.60,747.60,748.24,747.85,149.90,-901.86,420.90,0.71,2.61,2.00,52.80
31612,747.89,747.66,747.59,748.26,747.85,144.04,-909.67,431.15,0.07,2.53,1.28,52.67
31656,747.92,747.63,747.58,748.34,747.87,159.18,-905.76,436.52,0.37,-1.69,-2.66,52.93
31694,747.95,747.67,747.51,748.27,747.85,160.16,-905.76,437.99,-1.91,3.03,0.62,52.91
31732,747.85,747.51,747.57,748.23,747.79,150.39,-911.13,428.71,-0.61,3.01,-0.10,53.42
31770,747.93,747.58,747.60,748.30,747.85,145.02,-899.41,435.55,-2.16,1.47,1.56,53.03
31811,747.93,747.55,747.58,748.25,747.83,156.74,-908.69,440.43,1.01,1.31,2.25,53.18
31849,747.89,747.49,747.53,748.26,747.79,147.46,-912.11,433.59,0.63,0.46,1.24,53.75
31887,747.88,747.56,747.56,748.29,747.82,158.20,-903.81,427.25,-1.09,1.31,0.27,53.36
31925,747.85,747.52,747.56,748.32,747.81,149.41,-892.58,438.96,1.11,1.73,-0.63,53.58
31963,747.87,747.58,747.61,748.33,747.85,133.79,-909.67,444.82,1.16,-0.18,-0.52,53.07
32001,747.83,747.60,747.55,748.35,747.83,149.41,-912.60,425.29,-1.33,0.51,1.34,53.26
32042,747.93,747.60,747.48,748.33,747.83,152.34,-909.67,430.66,-0.77,2.93,0.85,53.46
32080,747.91,747.51,747.55,748.17,747.78,146.48,-924.80,430.66,0.25,0.27,1.10,53.40
32118,747.91,747.54,747.54,748.33,747.83,149.41,-920.90,422.36,1.38,1.36,-1.82,53.54
32155,747.93,747.53,747.50,748.30,747.81,134.28,-905.76,447.27,1.03,2.29,1.82,53.74
32193,747.96,747.55,747.55,748.29,747.84,146.48,-918.46,428.71,1.68,-1.79,-1.47,53.40
32231,747.96,747.55,747.51,748.31,747.83,162.11,-900.88,434.08,1.27,1.52,0.55,53.61
32272,747.88,747.56,747.49,748.27,747.80,150.39,-913.57,444.34,1.58,-0.05,-2.10,53.61
32310,747.95,747.56,747.55,748.21,747.82,149.90,-900.39,436.04,0.37,1.50,-0.45,53.21
32348,748.00,747.62,747.57,748.28,747.87,135.25,-901.37,439.45,-0.48,1.72,-0.79,52.97
32386,747.95,747.56,747.53,748.28,747.83,150.88,-913.57,424.32,-0.02,0.56,2.31,53.44
32424,747.98,747.56,747.63,748.28,747.86,154.79,-913.09,433.11,1.28,3.34,1.89,52.95
32463,747.99,747.56,747.59,748.38,747.88,151.86,-913.09,440.43,1.97,-0.76,0.19,53.32
32503,747.99,747.59,747.55,748.35,747.87,151.37,-910.16,438.48,1.07,0.05,-0.50,53.29
32542,748.03,747.60,747.49,748.35,747.87,155.76,-917.48,438.48,0.11,1.91,0.30,53.47
32584,748.03,747.63,747.60,748.32,747.90,139.16,-910.64,441.41,0.81,0.11,-1.01,52.79
32625,748.02,747.63,747.56,748.33,747.88,144.53,-902.83,433.11,1.39,0.50,0.93,53.02
32662,748.02,747.60,747.48,748.37,747.87,139.16,-911.62,434.57,0.68,0.43,-2.27,53.51
32701,748.00,747.62,747.54,748.36,747.88,148.44,-913.57,432.13,-0.07,1.60,-1.63,53.17
32741,748.07,747.52,747.55,748.31,747.86,139.16,-899.41,430.66,-1.66,0.44,0.56,53.56
32779,748.08,747.61,747.58,748.31,747.89,151.86,-920.90,437.50,0.69,0.79,1.11,52.94
32818,748.12,747.59,747.56,748.31,747.89,145.02,-911.62,431.15,0.62,2.38,3.65,53.17
32856,748.06,747.60,747.55,748.32,747.88,151.37,-910.16,431.15,-0.41,2.02,3.31,53.13
32894,748.10,747.66,747.59,748.31,747.92,148.44,-913.09,425.29,1.54,1.68,-2.43,52.64
32932,748.04,747.69,747.58,748.29,747.90,140.62,-914.55,428.22,1.06,1.12,2.94,52.52
32973,747.99,747.66,747.60,748.26,747.88,133.79,-897.46,433.11,0.76,1.00,-1.00,52.58
33011,747.99,747.60,747.51,748.31,747.85,142.58,-895.02,434.57,-0.18,2.73,-0.39,53.37
33049,748.06,747.61,747.55,748.38,747.90,155.27,-919.43,428.71,-0.59,2.26,-0.18,53.17
33087,748.10,747.55,747.51,748.37,747.88,137.21,-914.06,431.15,1.02,-0.69,-1.46,53.65
33125,748.10,747.57,747.52,748.31,747.88,152.34,-912.11,427.73,-2.17,0.27,1.81,53.44
33163,748.18,747.58,747.55,748.33,747.91,158.20,-915.04,438.96,-0.78,0.65,-0.68,53.24
33204,748.17,747.61,747.50,748.35,747.91,149.90,-894.04,424.32,1.15,3.16,-1.62,53.33
33242,748.14,747.58,747.58,748.36,747.92,153.81,-910.16,425.78,0.67,2.96,-0.41,53.11
33280,748.15,747.63,747.55,748.38,747.93,135.74,-909.18,444.34,1.76,0.96,1.45,53.03
33319,748.14,747.60,747.54,748.39,747.92,144.04,-897.46,435.55,1.41,0.64,-1.63,53.26
33357,748.20,747.71,747.58,748.35,747.96,140.62,-906.25,436.52,3.05,1.28,1.04,52.48
33395,748.20,747.71,747.57,748.28,747.94,146.97,-899.41,437.50,-0.13,2.73,1.26,52.39
33435,748.13,747.67,747.57,748.28,747.91,142.09,-901.37,432.62,-2.05,3.52,-1.18,52.64
33474,748.17,747.73,747.55,748.30,747.94,153.32,-916.99,438.96,0.40,2.50,0.57,52.44
33512,748.26,747.73,747.59,748.31,747.97,153.32,-900.88,443.85,1.92,2.53,0.60,52.24
33556,748.29,747.74,747.50,748.35,747.97,154.30,-896.97,429.20,0.11,2.00,-0.83,52.56
33594,748.28,747.72,747.53,748.33,747.97,146.00,-911.13,433.11,1.15,0.26,1.72,52.56
33635,748.21,747.71,747.52,748.30,747.93,132.32,-904.30,433.59,-0.15,1.78,0.60,52.65
33675,748.20,747.62,747.56,748.32,747.93,141.60,-899.90,437.99,1.94,2.68,-1.11,52.99
33713,748.18,747.68,747.61,748.34,747.95,136.72,-906.25,438.96,0.85,1.15,0.99,52.49
33751,748.28,747.67,747.58,748.34,747.97,161.13,-908.20,443.85,1.81,1.45,1.21,52.60
33789,748.22,747.73,747.55,748.37,747.97,145.51,-910.64,434.08,0.60,-1.63,-0.60,52.49
33827,748.32,747.66,747.53,748.36,747.97,137.70,-922.85,443.85,0.08,1.52,-4.06,52.92
33865,748.18,747.69,747.57,748.36,747.95,145.02,-906.74,430.18,0.56,1.02,3.64,52.60
33906,748.21,747.66,747.53,748.30,747.93,146.97,-899.41,431.64,0.94,1.71,0.79,52.84
33944,748.28,747.65,747.61,748.31,747.96,151.37,-907.23,440.43,-0.47,0.58,1.53,52.56
33982,748.31,747.66,747.58,748.36,747.98,137.70,-903.32,437.50,0.30,2.53,1.10,52.71
34019,748.26,747.66,747.61,748.43,747.99,145.51,-912.11,424.32,-0.82,2.13,1.39,52.68
34057,748.27,747.67,747.59,748.32,747.96,147.46,-911.62,423.34,-1.79,-1.92,1.21,52.54
34096,748.29,747.64,747.56,748.28,747.94,143.07,-903.81,432.62,-0.23,1.78,2.54,52.81
34136,748.27,747.68,747.55,748.36,747.97,159.67,-904.79,435.06,-0.15,2.37,-0.26,52.71
34174,748.20,747.65,747.58,748.34,747.94,148.93,-908.20,434.08,0.40,3.92,-0.08,52.79
34212,748.28,747.64,747.58,748.30,747.95,154.30,-901.86,440.43,0.66,3.65,-1.08,52.73
34250,748.31,747.66,747.59,748.38,747.99,146.97,-909.67,450.20,-2.19,3.34,-0.08,52.70
34289,748.28,747.65,747.61,748.35,747.97,142.58,-914.55,437.01,0.75,1.12,1.05,52.59
34327,748.28,747.70,747.56,748.34,747.97,146.00,-897.95,434.57,1.06,1.92,-0.63,52.57
34367,748.36,747.67,747.58,748.41,748.01,141.11,-913.09,442.87,-0.48,1.98,0.23,52.69
34406,748.27,747.77,747.61,748.43,748.02,144.53,-914.06,427.73,-0.08,2.28,0.48,52.12
34444,748.27,747.67,747.60,748.35,747.97,144.04,-898.93,440.92,1.54,1.36,0.90,52.59
34486,748.25,747.75,747.64,748.34,747.99,147.95,-905.76,446.29,0.56,0.31,1.02,51.99
34524,748.32,747.73,747.60,748.39,748.01,144.04,-889.65,429.69,-1.26,0.98,0.69,52.29
34562,748.27,747.64,747.53,748.35,747.95,145.51,-910.64,436.04,-0.24,-0.81,-0.89,53.03
34605,748.08,747.69,747.62,748.39,747.95,148.93,-901.37,445.80,1.01,2.92,-0.03,52.45
34644,748.03,747.57,747.62,748.40,747.90,139.65,-899.41,433.59,1.73,0.56,0.13,53.12
34682,747.86,747.49,747.56,748.38,747.82,145.51,-912.11,432.62,-0.32,2.76,-0.41,53.84
34720,747.90,747.48,747.56,748.31,747.81,142.58,-903.32,434.08,1.05,2.50,-0.55,53.74
34758,748.08,747.42,747.56,748.41,747.87,143.55,-908.69,425.29,2.28,1.69,0.28,54.14
34797,747.99,747.42,747.56,748.35,747.83,151.37,-898.93,444.82,-1.06,3.13,-2.27,54.04
34837,747.95,747.37,747.54,748.36,747.80,159.67,-912.11,445.80,2.87,0.94,0.47,54.46
34875,747.89,747.39,747.56,748.36,747.80,138.18,-903.32,437.50,-1.21,1.47,2.44,54.29
34914,747.79,747.47,747.51,748.37,747.78,143.55,-915.04,440.92,1.82,2.60,1.04,54.14
34952,747.76,747.55,747.53,748.33,747.79,149.41,-909.18,439.45,2.07,1.39,0.91,53.60
34990,747.74,747.54,747.55,748.34,747.79,148.93,-918.95,440.43,-1.97,-0.17,-1.45,53.59
35028,747.74,747.53,747.50,748.29,747.76,161.13,-894.53,438.48,-0.60,0.77,-1.50,53.83
35069,747.71,747.49,747.59,748.34,747.78,143.55,-921.87,428.71,1.04,0.87,0.82,53.68
35107,747.71,747.53,747.55,748.28,747.77,153.81,-905.27,443.36,-0.91,0.42,1.64,53.59
35145,747.76,747.43,747.54,748.28,747.75,145.02,-896.97,439.94,0.79,1.83,1.05,54.09
35184,747.71,747.44,747.59,748.29,747.76,156.25,-906.74,431.64,-0.82,2.21,-0.78,53.84
35222,747.74,747.43,747.55,748.19,747.73,135.25,-911.13,439.94,0.10,3.75,1.61,53.87
35260,747.78,747.47,747.49,748.20,747.74,146.00,-917.48,429.20,0.81,1.37,0.28,54.01
35301,747.77,747.43,747.52,748.34,747.76,141.11,-901.86,430.66,-0.29,1.92,0.64,54.28
35339,747.74,747.53,747.50,748.31,747.77,160.16,-924.80,430.18,1.74,1.56,0.75,53.81
35377,747.72,747.43,747.48,748.24,747.72,149.90,-909.18,424.32,0.02,-1.16,0.27,54.31
35416,747.73,747.43,747.53,748.34,747.76,152.34,-914.55,429.20,0.01,1.33,0.99,54.23
35460,747.77,747.48,747.54,748.26,747.76,141.60,-905.27,427.25,0.22,1.48,2.21,53.79
35498,747.71,747.45,747.58,748.29,747.76,153.81,-914.55,430.66,-0.40,2.65,0.11,53.85
35538,747.67,747.45,747.61,748.35,747.77,147.95,-910.64,435.55,0.40,-0.02,0.84,53.80
35579,747.67,747.42,747.58,748.35,747.76,156.74,-920.90,438.48,0.85,1.53,-0.79,54.05
35617,747.66,747.43,747.57,748.37,747.76,149.90,-901.86,433.59,-0.37,2.15,1.49,54.10
35655,747.74,747.48,747.59,748.32,747.78,143.55,-902.83,443.85,0.91,-1.87,0.83,53.67
35693,747.80,747.44,747.57,748.28,747.77,146.97,-917.97,430.66,-0.73,0.70,-0.61,53.88
35731,747.76,747.44,747.56,748.35,747.78,146.00,-910.16,436.04,-0.24,0.69,-2.78,54.07
35772,747.72,747.47,747.56,748.29,747.76,154.79,-898.93,440.92,0.19,0.90,-0.53,53.78
35810,747.77,747.48,747.56,748.35,747.79,147.95,-894.53,436.04,0.77,1.63,-0.99,53.84
35848,747.69,747.51,747.60,748.37,747.79,143.55,-913.09,428.71,1.31,1.18,1.45,53.60
35886,747.77,747.51,747.54,748.32,747.79,135.25,-896.48,437.99,2.37,-0.98,-0.02,53.73
35924,747.75,747.47,747.55,748.33,747.77,149.90,-907.71,426.76,1.66,1.06,3.62,53.94
35962,747.69,747.51,747.56,748.30,747.77,132.32,-915.53,428.71,-2.39,2.24,-0.56,53.63
36002,747.64,747.54,747.58,748.28,747.76,134.28,-910.16,436.04,-1.15,0.60,0.63,53.43
36040,747.64,747.58,747.54,748.32,747.77,150.88,-912.60,441.89,-1.24,-0.31,3.08,53.44
36079,747.66,747.50,747.58,748.36,747.78,154.79,-905.76,429.20,-0.50,-0.08,2.46,53.72
36117,747.69,747.48,747.55,748.21,747.73,150.88,-915.04,415.04,-1.15,-0.64,-0.06,53.72
36155,747.69,747.55,747.57,748.27,747.77,146.00,-910.16,437.50,-1.62,2.27,0.50,53.39
36193,747.79,747.47,747.55,748.28,747.77,147.95,-927.25,424.80,0.02,2.76,-0.45,53.83
36234,747.77,747.48,747.56,748.23,747.76,145.51,-909.18,428.22,-0.18,-0.05,0.05,53.65
36272,747.72,747.46,747.54,748.34,747.77,148.93,-928.71,415.04,2.47,2.76,3.68,54.05
36310,747.68,747.53,747.52,748.30,747.76,137.70,-902.83,430.66,1.66,0.64,1.67,53.73
36349,747.66,747.58,747.57,748.21,747.75,151.37,-904.30,429.69,0.43,2.25,-0.79,53.13
36390,747.52,747.59,747.54,748.35,747.75,132.32,-906.74,434.08,1.47,1.70,-0.98,53.46
36428,747.62,747.61,747.55,748.33,747.78,145.02,-920.90,446.29,-0.37,1.60,-2.40,53.28
36469,747.61,747.56,747.63,748.36,747.79,153.32,-918.95,423.83,-0.79,2.10,0.96,53.20
36507,747.68,747.49,747.50,748.38,747.76,134.28,-909.67,430.18,-0.89,0.63,0.07,54.09
36545,747.70,747.51,747.55,748.27,747.76,144.04,-912.60,427.73,-1.69,1.87,0.47,53.64
36586,747.93,747.51,747.59,748.42,747.86,156.25,-912.60,428.22,0.55,3.82,1.10,53.61
36624,749.00,747.64,747.57,748.24,748.11,165.04,-937.01,441.41,10.26,2.62,-2.57,52.44
36664,748.24,747.60,747.53,748.30,747.92,157.71,-933.59,409.18,-0.93,-0.05,-1.20,53.18
36703,748.11,747.66,747.56,748.32,747.91,145.51,-925.29,427.25,1.96,0.44,-0.11,52.83
36741,748.18,747.70,747.52,748.35,747.94,137.21,-910.64,439.45,0.64,0.40,-0.46,52.77
36779,747.99,747.72,747.56,748.39,747.92,136.72,-902.34,427.25,1.67,-0.80,2.12,52.61
36817,748.04,747.74,747.61,748.34,747.93,150.39,-912.11,433.11,2.13,0.60,-3.82,52.24
36855,748.15,747.65,747.58,748.40,747.95,152.83,-901.86,424.80,1.66,0.35,-0.70,52.84
36896,748.30,747.66,747.62,748.36,747.98,150.39,-920.41,425.29,2.72,1.32,1.40,52.54
36934,748.31,747.62,747.60,748.39,747.98,151.86,-917.48,435.55,0.18,1.47,-0.75,52.84
36972,748.32,747.63,747.61,748.39,747.99,149.41,-914.06,432.62,-0.17,3.74,0.24,52.75
37011,748.43,747.64,747.55,748.41,748.01,141.11,-906.74,438.96,0.58,0.82,-0.49,52.99
37049,748.45,747.62,747.55,748.39,748.00,143.07,-899.90,438.48,0.62,-0.57,1.78,53.03
37087,748.39,747.71,747.51,748.39,748.00,152.83,-913.09,440.43,0.57,0.73,-0.37,52.74
37128,748.37,747.70,747.61,748.36,748.01,143.07,-911.62,436.52,-0.02,1.34,3.06,52.37
37166,748.35,747.78,747.52,748.40,748.01,150.39,-905.76,412.11,-0.57,0.52,2.83,52.33
37204,748.27,747.81,747.52,748.32,747.98,145.02,-911.62,436.04,1.47,1.81,-0.09,52.07
37242,748.32,747.80,747.57,748.49,748.04,138.18,-903.32,430.18,-0.19,1.73,2.31,52.18
37280,748.36,747.73,747.57,748.38,748.01,149.41,-912.11,438.96,-0.47,1.55,-0.11,52.39
37319,748.38,747.67,747.56,748.45,748.02,151.86,-912.11,434.08,1.50,1.15,1.89,52.82
37365,748.40,747.65,747.57,748.39,748.00,147.46,-910.16,428.22,-2.18,1.37,-1.32,52.79
37403,748.47,747.67,747.55,748.40,748.02,143.07,-896.00,434.57,0.35,1.76,0.62,52.78
37441,748.46,747.70,747.59,748.41,748.04,149.90,-921.87,430.66,0.47,1.29,0.40,52.44
37479,748.48,747.70,747.57,748.36,748.03,153.81,-908.69,443.85,3.61,0.71,0.32,52.45
37518,748.56,747.66,747.58,748.35,748.04,143.07,-907.23,430.66,-0.15,1.58,1.05,52.60
37556,748.46,747.63,747.60,748.43,748.03,148.93,-916.02,429.20,0.61,0.40,-3.21,52.82
37599,748.44,747.71,747.58,748.41,748.04,144.04,-902.34,427.25,-0.11,3.31,0.76,52.47
37637,748.44,747.70,747.59,748.38,748.03,147.46,-899.90,443.36,0.66,2.08,-0.82,52.42
37676,748.39,747.70,747.59,748.36,748.01,146.48,-911.62,423.34,-0.44,2.09,1.95,52.47
37714,748.35,747.70,747.61,748.44,748.03,147.46,-911.62,446.78,-1.09,-1.44,-0.84,52.46
37752,748.45,747.69,747.54,748.34,748.01,154.30,-914.55,435.55,-0.50,-0.48,2.24,52.64
37790,748.49,747.71,747.56,748.35,748.03,135.74,-907.23,429.69,-1.66,3.00,2.47,52.47
37831,748.53,747.66,747.57,748.36,748.03,149.41,-915.53,427.73,-1.21,1.33,-3.22,52.70
37869,748.54,747.70,747.60,748.37,748.05,149.41,-899.90,433.59,0.50,1.95,0.52,52.36
37908,748.51,747.74,747.57,748.32,748.04,144.04,-917.97,426.27,3.88,2.18,-1.40,52.21
37946,748.59,747.73,747.58,748.35,748.06,157.71,-917.48,428.22,0.22,1.06,-1.62,52.25
37985,748.52,747.76,747.68,748.36,748.08,148.44,-912.11,429.20,0.51,1.50,0.93,51.62
38023,748.57,747.69,747.58,748.38,748.06,142.58,-892.58,431.15,0.83,1.75,0.21,52.48
38064,748.56,747.72,747.64,748.38,748.07,135.74,-912.11,452.15,-0.34,0.42,1.02,52.08
38102,748.53,747.65,747.55,748.46,748.05,140.14,-915.53,441.89,2.11,0.27,1.15,52.94
38141,748.55,747.70,747.57,748.44,748.06,148.44,-928.71,426.27,0.56,2.60,-1.31,52.60
38179,748.55,747.70,747.60,748.45,748.07,139.16,-919.43,438.48,0.08,0.10,1.37,52.44
38218,748.58,747.67,747.59,748.39,748.06,150.39,-902.34,437.01,2.40,1.92,0.95,52.53
38256,748.64,747.77,747.54,748.40,748.09,148.44,-912.11,432.62,1.33,1.21,1.35,52.24
38303,748.81,747.67,747.55,748.38,748.10,142.09,-896.97,431.64,0.23,0.37,-2.61,52.67
38342,749.01,747.70,747.58,748.35,748.16,146.00,-899.41,433.11,0.24,0.33,-0.50,52.24
38380,749.11,747.67,747.59,748.34,748.18,157.23,-905.27,441.41,4.05,0.98,0.19,52.32
38420,749.34,747.70,747.60,748.31,748.24,156.74,-916.02,436.04,-0.01,1.63,1.75,51.98
38458,749.19,747.61,747.59,748.41,748.20,136.23,-918.46,437.50,-0.13,1.45,-2.08,52.66
38497,749.15,747.54,747.52,748.35,748.14,149.90,-901.86,436.52,0.08,0.95,0.28,53.31
38537,749.07,747.55,747.58,748.32,748.13,136.23,-896.97,444.82,-1.38,-1.97,0.73,52.90
38578,748.88,747.61,747.61,748.38,748.12,159.67,-908.20,439.94,-0.31,3.17,0.83,52.60
38618,748.82,747.67,747.55,748.35,748.10,142.09,-912.60,430.18,-2.01,0.83,-2.45,52.60
38656,748.72,747.59,747.58,748.36,748.06,151.37,-906.74,439.45,-1.57,0.85,2.09,52.88
38695,748.72,747.66,747.63,748.43,748.11,138.18,-902.83,431.15,1.30,0.81,-0.11,52.40
38733,748.67,747.68,747.53,748.35,748.06,156.25,-924.32,415.53,-0.18,3.95,-0.17,52.71
38774,748.69,747.68,747.58,748.39,748.08,143.07,-910.16,426.27,0.85,1.20,-2.24,52.55
38812,748.76,747.70,747.54,748.35,748.09,142.09,-907.23,424.80,-0.76,2.25,0.82,52.53
38851,748.80,747.63,747.60,748.41,748.11,160.16,-910.16,435.06,2.50,-2.23,-0.72,52.66
38889,748.95,747.64,747.57,748.35,748.13,144.04,-916.99,427.25,0.29,4.16,-1.02,52.61
38928,748.99,747.62,747.56,748.31,748.12,152.34,-906.74,433.59,2.18,1.52,-2.18,52.67
38966,748.97,747.61,747.57,748.35,748.12,153.32,-913.57,445.31,2.18,3.67,-0.47,52.77
39007,748.99,747.63,747.55,748.34,748.13,146.00,-898.93,449.71,-0.39,3.55,-0.75,52.74
39045,748.99,747.52,747.55,748.37,748.11,140.62,-916.02,433.11,-0.56,0.82,3.18,53.32
39084,749.01,747.64,747.57,748.36,748.15,145.02,-903.32,440.92,-0.30,2.08,2.46,52.58
39122,749.09,747.57,747.58,748.38,748.15,141.11,-909.18,428.71,-0.09,2.28,1.23,52.94
39161,748.97,747.55,747.51,748.43,748.11,154.79,-893.55,428.22,-0.89,2.23,1.02,53.48
39199,748.88,747.58,747.54,748.41,748.10,144.53,-900.88,445.31,0.98,0.22,0.29,53.17
39246,748.86,747.61,747.59,748.37,748.11,147.46,-912.11,431.64,0.40,1.14,-2.23,52.73
39284,748.90,747.65,747.56,748.36,748.12,140.62,-907.71,423.34,-0.79,0.95,2.02,52.62
39322,748.69,747.65,747.55,748.35,748.06,140.62,-907.71,431.64,0.05,-1.68,0.98,52.72
39360,748.67,747.60,747.57,748.43,748.07,150.39,-920.90,427.73,-0.68,0.31,0.13,53.04
39399,748.60,747.59,747.51,748.41,748.03,148.93,-912.11,431.15,1.37,3.60,0.77,53.34
39437,748.71,747.63,747.57,748.43,748.09,144.04,-909.18,439.45,2.53,-1.22,0.83,52.87
39478,748.69,747.61,747.54,748.44,748.07,151.37,-915.04,441.41,-0.37,0.83,1.09,53.14
39516,748.65,747.55,747.61,748.35,748.04,153.32,-910.16,444.34,0.01,1.52,-0.16,52.94
39555,748.69,747.67,747.54,748.40,748.08,145.51,-896.00,434.08,-2.89,2.29,0.26,52.75
39595,748.76,747.62,747.56,748.42,748.09,141.60,-904.30,435.55,-1.87,1.44,1.22,52.96
39634,748.72,747.71,747.57,748.42,748.10,136.72,-901.37,439.45,1.89,1.38,0.02,52.44
39672,748.68,747.60,747.62,748.45,748.09,142.09,-903.81,426.76,0.25,0.63,1.37,52.84
39713,748.69,747.66,747.56,748.46,748.09,152.83,-898.93,436.04,-1.09,0.65,-0.63,52.83
39752,748.65,747.64,747.62,748.39,748.07,138.18,-910.16,438.48,0.43,2.74,0.76,52.53
39790,748.60,747.68,747.58,748.43,748.07,148.93,-906.74,445.80,2.41,3.02,0.85,52.58
39828,748.54,747.68,747.57,748.37,748.04,151.37,-895.02,442.87,1.11,2.45,-1.40,52.58
39867,748.52,747.67,747.57,748.40,748.04,137.70,-894.53,429.20,-1.47,2.82,0.21,52.71
39905,748.53,747.61,747.54,748.40,748.02,154.30,-915.53,445.31,1.10,1.79,-0.11,53.13
39946,748.42,747.61,747.58,748.40,748.00,147.46,-919.43,430.66,-0.84,0.76,1.63,52.96
39984,748.45,747.55,747.59,748.36,747.99,141.11,-917.48,442.38,0.75,1.87,-0.07,53.11
40023,748.47,747.50,747.62,748.34,747.98,134.77,-917.48,435.55,-2.36,1.18,0.34,53.16
40062,748.53,747.52,747.58,748.34,747.99,157.71,-903.32,434.57,-1.89,2.09,1.36,53.25
40100,748.38,747.57,747.60,748.31,747.96,148.44,-899.41,445.31,0.93,1.17,0.65,52.97
40139,748.25,747.58,747.54,748.32,747.92,146.48,-906.74,438.96,-0.96,-0.45,1.68,53.26
40185,748.21,747.53,747.64,748.38,747.94,148.44,-907.23,432.62,-1.05,-0.59,0.66,53.11
40223,748.03,747.62,747.65,748.33,747.91,150.88,-900.88,443.85,-1.48,-1.18,-0.62,52.61
40264,748.00,747.66,747.54,748.34,747.89,153.32,-908.69,446.29,-1.95,1.02,-0.05,52.92
40302,747.94,747.59,747.58,748.48,747.90,152.83,-905.76,434.08,0.77,0.24,-0.76,53.30
40341,748.02,747.63,747.61,748.38,747.91,146.48,-895.02,427.25,0.25,2.75,2.33,52.88
40379,748.07,747.69,747.62,748.36,747.94,150.39,-920.90,430.18,0.90,2.27,-2.09,52.41
40420,748.25,747.71,747.59,748.30,747.96,147.46,-907.23,443.85,2.82,1.40,0.98,52.34
40458,748.38,747.67,747.57,748.31,747.98,148.44,-911.13,437.99,-0.27,1.63,0.44,52.64
40497,748.41,747.67,747.60,748.37,748.01,144.53,-897.46,434.57,-2.22,2.89,1.27,52.55
40535,748.41,747.76,747.56,748.40,748.03,145.02,-906.25,423.83,0.18,-1.53,2.09,52.31
40574,748.47,747.74,747.52,748.37,748.03,160.16,-918.95,431.64,2.76,2.97,-0.46,52.45
40614,748.50,747.69,747.59,748.34,748.03,142.58,-905.76,422.85,1.03,0.79,-1.08,52.42
40655,748.53,747.75,747.60,748.40,748.07,150.39,-910.16,444.34,3.67,2.25,-1.92,52.15
40693,748.52,747.75,747.67,748.41,748.09,147.46,-923.34,433.59,1.32,1.43,-0.89,51.82
40732,748.60,747.77,747.64,748.46,748.12,146.00,-908.69,429.20,-0.06,3.46,0.68,51.88
40770,748.63,747.84,747.60,748.44,748.13,147.46,-917.97,444.82,-2.32,0.56,1.77,51.70
40809,748.58,747.80,747.61,748.40,748.10,161.13,-908.20,450.20,-0.83,-1.21,-0.82,51.85
40847,748.73,747.87,747.60,748.46,748.17,139.65,-899.41,433.11,-1.76,1.52,-2.45,51.54
40888,748.79,747.77,747.59,748.38,748.13,146.00,-913.09,427.25,1.37,1.31,-0.16,51.98
40926,748.78,747.87,747.57,748.40,748.15,143.07,-913.09,428.71,1.75,1.21,1.34,51.57
40965,748.85,747.83,747.64,748.40,748.18,164.55,-913.57,431.64,0.27,-0.65,-0.63,51.46
41003,748.84,747.90,747.54,748.38,748.16,148.44,-899.41,436.52,-0.53,1.14,2.37,51.49
41042,748.85,747.88,747.64,748.35,748.18,144.53,-910.16,435.06,2.15,0.60,-1.44,51.14
41080,748.83,747.93,747.65,748.40,748.20,145.51,-899.90,427.73,0.73,-1.21,1.85,50.92
41121,748.82,747.96,747.57,748.38,748.18,150.39,-900.39,437.99,1.15,1.55,0.00,51.01
41165,748.82,747.92,747.60,748.50,748.21,144.53,-909.67,432.62,-0.46,1.53,0.51,51.29
41202,748.90,747.90,747.62,748.44,748.22,146.00,-906.25,433.11,2.64,0.34,0.27,51.20
41240,748.82,747.91,747.63,748.42,748.19,142.58,-914.06,417.48,-1.37,2.03,-0.66,51.13
41278,748.73,747.89,747.59,748.39,748.15,131.35,-932.13,427.25,0.26,0.63,-1.40,51.37
41316,748.82,747.92,747.66,748.44,748.21,159.18,-912.11,432.62,0.87,0.27,0.11,50.98
41357,748.72,747.89,747.55,748.47,748.16,147.95,-925.78,429.20,-0.44,1.49,-0.44,51.63
41395,748.78,747.83,747.60,748.43,748.16,141.60,-914.06,446.29,0.71,0.21,1.41,51.70
41433,748.76,747.90,747.62,748.42,748.18,144.53,-913.57,428.71,0.45,-0.80,2.15,51.22
41470,748.77,747.92,747.62,748.44,748.19,148.44,-913.09,432.62,1.01,-1.10,-2.43,51.14
41509,748.77,747.93,747.62,748.30,748.15,146.00,-915.53,438.96,-0.05,-0.20,-0.44,50.95
41549,748.70,747.89,747.59,748.40,748.15,149.41,-907.71,433.59,-1.81,2.56,-0.76,51.41
41598,748.81,747.82,747.67,748.33,748.16,155.27,-899.41,438.48,-0.71,-2.13,-0.96,51.23
41637,748.88,747.86,747.61,748.39,748.19,146.48,-918.95,434.57,-1.05,3.90,-0.69,51.42
41676,748.90,747.95,747.55,748.39,748.20,142.58,-910.64,437.50,-0.31,2.23,-0.92,51.16
41714,748.83,747.89,747.64,748.41,748.19,157.71,-899.41,439.45,-1.48,1.37,-1.63,51.17
41752,748.80,747.90,747.60,748.39,748.17,146.97,-918.95,436.04,-0.44,0.84,0.47,51.24
41793,748.79,747.96,747.64,748.47,748.22,146.97,-906.74,417.48,0.62,3.56,0.18,50.92
41831,748.81,747.93,747.59,748.35,748.17,126.95,-913.09,431.15,1.08,3.27,0.56,51.10
41869,748.81,747.87,747.55,748.51,748.19,142.58,-910.16,427.25,0.11,1.69,-1.12,51.73
41908,748.89,747.81,747.57,748.43,748.17,139.16,-907.23,436.52,0.01,-0.63,1.18,51.88
41946,749.05,747.97,747.59,748.50,748.27,145.51,-923.34,422.36,2.03,0.02,-1.77,51.02
41984,748.89,747.93,747.61,748.42,748.21,159.67,-898.44,427.73,-1.62,1.34,1.94,51.10
42025,748.92,747.83,747.58,748.51,748.21,155.27,-914.55,442.87,1.50,3.55,1.02,51.85
42063,748.84,747.91,747.58,748.49,748.20,137.21,-920.90,428.71,1.57,3.02,2.12,51.40
42104,748.91,747.92,747.60,748.44,748.22,150.88,-905.76,439.45,0.92,2.52,-1.47,51.19
42143,748.85,747.85,747.66,748.45,748.20,135.74,-905.76,446.78,0.47,-0.73,-1.32,51.33
42181,748.87,747.86,747.67,748.52,748.23,143.07,-903.81,426.76,1.54,-0.32,-0.70,51.30
42219,748.90,747.85,747.61,748.45,748.20,139.16,-910.16,431.64,0.79,0.85,1.23,51.53
42259,748.93,747.85,747.65,748.43,748.21,148.44,-919.92,429.69,0.08,2.73,-0.11,51.34
42298,748.91,747.84,747.58,748.43,748.19,144.53,-920.41,431.64,0.02,1.31,-0.30,51.69
42336,748.94,747.91,747.65,748.37,748.22,146.00,-910.64,424.32,-0.24,0.10,1.07,50.92
42374,748.91,747.91,747.65,748.46,748.23,141.11,-906.74,436.52,2.21,2.03,-0.98,51.05
42412,748.91,747.96,747.66,748.42,748.24,149.90,-913.57,417.48,0.95,-0.03,-1.84,50.71
42450,748.91,747.91,747.63,748.45,748.23,156.74,-892.58,431.64,1.17,2.07,-1.28,51.12
42491,748.92,747.88,747.63,748.44,748.22,156.74,-905.27,430.66,-0.56,1.21,-0.03,51.25
42529,748.96,747.90,747.68,748.49,748.26,147.46,-916.02,433.59,-0.74,0.86,-1.21,51.03
42567,748.95,747.95,747.60,748.39,748.22,139.16,-901.37,443.36,1.11,4.11,1.53,50.92
42607,748.92,747.99,747.67,748.42,748.25,150.88,-917.48,424.32,-0.17,2.31,0.19,50.51
42646,748.95,747.92,747.56,748.39,748.20,155.76,-906.74,427.25,-0.91,0.72,-0.42,51.24
42684,748.89,747.93,747.59,748.40,748.20,143.07,-909.67,432.13,1.14,-1.57,0.28,51.10
42725,748.94,747.90,747.62,748.50,748.24,138.18,-909.67,430.66,-0.35,0.40,-2.81,51.27
42763,748.93,747.92,747.66,748.48,748.25,153.32,-904.30,422.36,0.64,-0.74,-0.88,51.00
42801,748.91,747.98,747.67,748.44,748.25,150.88,-910.16,435.06,-0.34,3.62,2.68,50.58
42839,748.92,747.89,747.72,748.51,748.26,138.67,-910.64,432.62,0.73,2.72,-0.24,50.94
42878,749.00,747.97,747.62,748.38,748.24,147.95,-895.02,437.01,1.92,3.82,0.41,50.72
42916,748.95,747.94,747.70,748.46,748.26,148.44,-919.92,437.01,0.97,0.54,0.84,50.66
42956,749.00,747.98,747.70,748.37,748.26,132.32,-919.43,419.43,1.40,2.95,1.05,50.38
42994,748.93,747.95,747.68,748.43,748.25,152.34,-906.74,428.71,-0.15,2.38,1.90,50.65
43032,748.89,747.94,747.69,748.45,748.24,146.00,-897.46,429.69,2.38,2.01,1.62,50.70
43076,748.88,747.99,747.68,748.46,748.25,143.55,-916.50,430.18,0.08,0.86,-1.27,50.53
43115,748.94,747.88,747.56,748.47,748.21,138.67,-906.25,436.52,1.76,-0.46,-0.56,51.57
43153,748.95,747.92,747.63,748.44,748.24,147.95,-911.13,435.06,-0.29,2.63,-0.24,51.04
43196,748.98,747.91,747.63,748.48,748.25,149.90,-907.71,435.06,0.63,-0.01,3.02,51.15
43235,748.95,747.92,747.62,748.47,748.24,141.60,-916.99,438.48,-0.57,2.55,2.83,51.10
43273,748.97,747.91,747.65,748.46,748.25,140.62,-896.97,442.38,0.42,2.23,-1.40,51.06
43311,749.02,747.91,747.63,748.47,748.26,145.02,-915.04,424.32,0.21,1.56,0.53,51.16
43349,749.01,747.90,747.62,748.49,748.25,149.90,-907.23,438.96,-2.04,-0.94,1.97,51.24
43387,749.00,747.91,747.62,748.41,748.23,148.44,-920.41,442.38,0.37,0.23,-0.59,51.12
43428,748.98,747.94,747.60,748.35,748.22,146.00,-907.71,428.22,0.98,0.56,-0.95,50.93
43466,748.94,747.94,747.64,748.47,748.25,146.00,-904.30,428.71,-0.22,1.54,1.42,51.00
43505,748.97,747.91,747.63,748.44,748.24,155.27,-921.39,426.27,1.31,0.78,2.37,51.13
43543,748.95,747.99,747.64,748.41,748.25,146.97,-903.81,424.32,1.29,0.53,-0.05,50.58
43581,748.92,747.96,747.67,748.43,748.24,146.48,-904.30,424.32,-1.62,-0.87,1.95,50.71
43623,749.01,747.89,747.61,748.44,748.24,142.58,-900.39,436.52,-1.80,3.55,1.31,51.28
43664,749.04,747.87,747.70,748.46,748.27,136.72,-906.74,434.08,0.44,-0.51,0.85,50.99
43702,749.03,747.96,747.69,748.44,748.28,148.93,-910.64,423.83,0.94,3.53,2.50,50.57
43740,749.13,747.89,747.63,748.47,748.28,141.11,-911.13,432.62,2.29,-0.18,2.11,51.20
43779,749.07,747.92,747.61,748.54,748.28,136.72,-913.57,429.20,0.28,0.19,-0.26,51.24
43817,749.04,747.93,747.64,748.40,748.25,150.88,-907.23,428.71,1.28,2.48,-1.56,50.86
43855,749.05,747.97,747.67,748.37,748.27,157.71,-906.74,438.48,-0.22,2.01,2.10,50.51
43896,748.89,747.91,747.67,748.35,748.20,143.07,-896.97,435.55,1.30,1.76,0.76,50.85
43935,748.92,747.98,747.64,748.41,748.23,151.37,-904.79,428.71,1.38,-2.62,1.11,50.70
43973,748.90,747.98,747.71,748.43,748.26,149.90,-915.53,429.69,-0.55,2.76,3.02,50.43
44016,749.07,747.90,747.62,748.47,748.27,154.30,-919.92,430.66,-0.21,0.51,1.78,51.19
44054,749.01,747.87,747.69,748.39,748.24,154.79,-915.04,431.64,0.04,2.15,1.84,50.97
44093,749.07,747.95,747.67,748.41,748.28,142.09,-917.48,433.59,0.71,1.50,1.74,50.65
44134,748.93,747.85,747.67,748.47,748.23,146.97,-906.74,434.57,0.39,-0.23,2.98,51.29
44172,748.86,747.96,747.67,748.44,748.23,156.25,-903.81,430.66,3.89,1.97,-0.16,50.72
44210,748.82,747.94,747.69,748.39,748.21,150.39,-903.32,425.29,-0.34,1.37,-0.68,50.69
44248,748.85,747.93,747.61,748.45,748.21,140.62,-896.48,431.15,2.11,2.60,0.26,51.10
44287,748.78,747.88,747.68,748.45,748.20,140.62,-899.41,434.08,0.98,2.18,1.71,51.12
44326,748.88,747.87,747.61,748.43,748.20,149.90,-904.79,420.41,0.05,-0.19,-1.37,51.40
44366,748.94,747.90,747.58,748.40,748.21,150.39,-902.83,438.48,-2.73,2.59,0.21,51.30
44405,749.00,747.92,747.65,748.51,748.27,127.93,-899.90,426.27,-0.53,2.31,1.53,51.04
44443,748.99,747.94,747.66,748.42,748.25,145.51,-901.86,431.15,-0.82,1.81,0.93,50.83
44481,748.96,747.99,747.68,748.44,748.26,135.74,-913.09,424.80,-1.45,0.02,0.31,50.51
44520,748.90,748.02,747.64,748.41,748.24,146.97,-917.97,431.64,0.82,1.35,2.76,50.48
44558,748.99,748.07,747.62,748.42,748.27,144.53,-920.90,430.66,0.40,0.75,0.95,50.24
44601,748.95,747.98,747.65,748.44,748.25,143.55,-903.81,429.20,2.69,2.15,-1.37,50.68
44640,748.94,748.01,747.62,748.43,748.25,144.04,-916.02,433.59,2.24,2.51,0.60,50.58
44678,748.99,747.99,747.69,748.37,748.26,139.65,-901.86,423.34,-1.05,0.27,-0.60,50.32
44717,749.02,748.12,747.67,748.42,748.31,145.02,-916.02,429.69,1.47,1.77,-1.19,49.75
44755,749.08,748.02,747.61,748.48,748.30,151.86,-913.09,429.20,1.24,2.37,1.25,50.62
44793,749.00,748.03,747.59,748.44,748.27,158.20,-919.92,441.41,-0.75,1.73,1.61,50.56
44834,749.06,748.05,747.70,748.49,748.32,145.51,-909.18,430.66,-1.76,1.48,2.63,50.16
44872,749.03,748.03,747.64,748.46,748.29,141.11,-916.50,425.29,-0.44,3.60,0.48,50.45
44910,749.08,748.01,747.65,748.46,748.30,144.53,-917.97,433.59,0.82,2.76,2.37,50.47
44948,749.09,748.02,747.67,748.50,748.32,148.93,-903.81,434.08,0.22,-0.34,0.18,50.45
44991,749.04,748.07,747.65,748.43,748.30,145.51,-914.06,445.31,-1.93,0.82,2.02,50.10
45029,749.00,748.07,747.65,748.38,748.27,146.48,-913.09,426.76,2.21,1.37,2.91,50.07
45070,749.02,748.09,747.70,748.45,748.31,137.21,-912.60,432.62,-1.11,2.23,0.69,49.88
45108,748.99,747.96,747.61,748.39,748.24,128.91,-921.39,425.29,0.11,-0.38,0.69,50.83
45146,749.07,748.01,747.62,748.47,748.29,145.51,-909.18,426.27,-0.20,1.23,0.11,50.60
45184,749.09,748.06,747.68,748.49,748.33,151.37,-912.60,429.69,-0.92,1.63,0.47,50.17
45222,749.12,748.01,747.67,748.44,748.31,145.51,-906.25,432.13,0.79,2.50,0.77,50.37
45260,749.18,748.07,747.63,748.39,748.32,161.62,-908.69,432.62,1.29,1.29,-1.05,50.09
45300,749.17,748.11,747.72,748.40,748.35,144.53,-912.60,425.29,0.69,0.39,-1.30,49.59
45338,749.06,748.07,747.61,748.40,748.29,132.81,-920.41,431.64,0.55,1.92,2.43,50.19
45377,749.06,748.13,747.63,748.39,748.30,153.32,-922.36,429.20,0.95,2.20,1.98,49.78
45415,748.96,748.08,747.65,748.42,748.28,147.95,-907.23,428.71,0.18,1.72,1.71,50.11
45453,748.90,748.09,747.66,748.45,748.27,148.44,-906.74,439.45,-0.32,3.42,2.15,50.04
45491,749.01,748.04,747.65,748.39,748.27,156.25,-919.43,422.36,-0.47,-2.09,-1.29,50.22
45532,749.03,748.03,747.69,748.37,748.28,156.25,-915.53,431.64,-0.14,0.27,-0.55,50.13
45572,749.06,748.09,747.69,748.39,748.31,127.44,-910.16,435.55,-0.54,3.94,2.11,49.81
45610,749.12,748.04,747.66,748.49,748.33,150.88,-924.32,437.99,-1.14,1.36,0.05,50.31
45648,749.08,748.03,747.65,748.44,748.30,150.39,-919.92,423.83,-0.53,1.24,0.81,50.37
45687,749.10,748.00,747.65,748.41,748.29,140.14,-913.09,441.89,-0.24,2.83,1.10,50.49
45725,749.06,747.98,747.65,748.46,748.29,139.16,-918.46,427.73,1.78,0.24,1.89,50.64
45766,749.09,748.06,747.60,748.46,748.30,145.02,-909.67,432.13,1.56,2.14,-0.18,50.38
45804,748.94,748.04,747.63,748.45,748.26,131.35,-910.64,434.08,0.10,-0.66,-0.11,50.40
45842,749.02,748.03,747.63,748.40,748.27,145.51,-908.69,446.29,-0.09,1.75,0.76,50.39
45880,749.04,748.08,747.63,748.36,748.28,140.14,-910.16,419.43,-0.27,1.32,1.40,50.07
45922,749.09,748.10,747.65,748.36,748.30,149.90,-908.69,434.57,-1.48,0.12,2.23,49.88
45960,749.12,748.04,747.65,748.39,748.30,142.09,-913.57,436.52,0.81,0.11,-1.37,50.25
46001,749.06,748.12,747.69,748.49,748.34,135.74,-916.50,435.55,0.70,2.34,1.47,49.81
46039,749.20,748.04,747.65,748.41,748.33,135.25,-915.53,432.13,0.31,3.09,-1.05,50.20
46077,749.09,748.10,747.61,748.47,748.32,145.02,-910.16,439.94,-0.70,2.55,0.78,50.14
46115,749.13,748.03,747.71,748.48,748.34,142.09,-925.78,428.22,0.00,1.21,1.66,50.14
46153,749.15,748.04,747.70,748.43,748.33,140.14,-916.99,416.99,1.37,0.91,0.41,50.07
46192,749.18,748.06,747.70,748.48,748.36,151.37,-915.53,438.48,0.76,2.84,-0.18,50.04
46232,749.17,748.07,747.67,748.42,748.33,144.04,-905.76,420.90,0.92,3.05,-1.70,50.03
46270,749.10,748.08,747.63,748.44,748.31,144.04,-904.79,427.73,-0.36,-0.95,-0.98,50.13
46309,749.13,748.09,747.68,748.44,748.33,137.21,-917.48,438.96,0.05,1.79,-0.43,49.92
46347,749.11,748.08,747.64,748.46,748.32,154.30,-910.64,425.29,0.84,1.31,0.40,50.13
46385,749.18,748.09,747.60,748.46,748.33,149.41,-915.53,434.57,-0.49,-0.79,1.47,50.19
46423,749.11,748.08,747.59,748.47,748.31,145.51,-916.50,421.87,2.03,2.82,0.66,50.33
46464,749.18,748.01,747.67,748.49,748.34,148.93,-910.16,427.73,0.16,0.76,0.34,50.43
46502,749.14,748.09,747.59,748.49,748.33,147.95,-916.99,427.73,-4.01,0.66,0.14,50.26
46540,749.14,747.99,747.68,748.39,748.30,143.07,-915.53,420.90,-0.02,1.63,-0.48,50.35
46581,749.16,748.11,747.65,748.51,748.36,135.25,-903.81,430.66,-0.08,2.18,0.73,49.96
46618,749.15,748.05,747.65,748.42,748.32,131.84,-913.09,428.71,-0.89,1.47,0.46,50.21
46657,749.20,748.03,747.65,748.37,748.31,147.46,-919.92,452.64,0.20,2.55,1.27,50.24
46697,749.14,748.01,747.70,748.40,748.31,141.11,-915.53,419.43,1.76,0.75,1.34,50.19
46735,749.20,748.02,747.73,748.45,748.35,166.02,-898.44,424.80,0.42,1.15,1.16,50.04
46773,749.08,748.06,747.62,748.48,748.31,144.53,-898.93,430.18,1.15,1.53,-2.15,50.31
46812,749.18,748.07,747.63,748.40,748.32,157.23,-913.09,439.45,1.47,-0.59,-0.24,50.11
46849,749.14,748.05,747.66,748.47,748.33,149.41,-913.57,419.43,-0.67,-0.24,0.91,50.21
46896,749.16,748.05,747.69,748.34,748.31,157.71,-916.99,430.18,-1.92,0.30,-0.86,49.92
46934,749.19,748.07,747.64,748.42,748.33,149.41,-892.58,428.22,-0.28,0.32,1.83,50.10
46972,749.24,748.11,747.71,748.38,748.36,159.18,-919.92,426.27,2.60,0.63,1.79,49.56
47009,749.15,748.14,747.70,748.38,748.34,147.46,-915.53,423.34,-1.08,1.88,1.00,49.50
47048,749.20,748.06,747.67,748.43,748.34,143.07,-907.23,424.32,0.30,0.94,0.93,50.06
47086,749.18,748.08,747.76,748.42,748.36,144.04,-909.18,421.39,1.56,2.09,1.00,49.56
47126,749.14,748.11,747.70,748.39,748.34,158.20,-915.53,431.15,1.05,0.55,-2.82,49.64
47164,749.12,748.05,747.67,748.40,748.31,152.83,-913.09,442.87,1.11,-1.31,-1.99,50.11
47202,749.17,748.04,747.67,748.40,748.32,164.06,-913.09,435.55,-0.81,2.27,-0.58,50.17
47240,749.17,748.11,747.65,748.44,748.34,148.93,-916.02,423.34,-0.88,2.02,0.78,49.86
47278,749.19,748.11,747.73,748.44,748.37,147.95,-922.36,421.87,0.84,2.60,1.44,49.59
47317,749.17,748.00,747.69,748.45,748.33,144.53,-914.06,433.11,1.59,-1.63,-0.55,50.33
47357,749.17,748.11,747.71,748.47,748.36,137.21,-913.09,437.50,0.66,2.53,-0.28,49.71
47395,749.16,748.10,747.67,748.41,748.34,139.16,-917.97,423.83,1.05,1.30,-0.51,49.85
47434,749.21,748.07,747.68,748.42,748.34,145.51,-918.46,429.20,-1.21,1.25,-0.73,49.93
47472,749.21,748.10,747.71,748.50,748.38,145.51,-906.25,417.48,0.64,1.36,-1.24,49.83
47510,749.24,747.96,747.75,748.48,748.36,133.79,-910.64,428.22,-0.12,-0.55,-1.31,50.30
47548,749.16,748.15,747.69,748.43,748.36,149.41,-909.67,427.25,-0.46,2.24,-0.46,49.47
47592,749.17,748.07,747.69,748.41,748.34,136.72,-911.13,429.69,2.69,0.76,-0.65,49.92
47630,749.20,748.04,747.67,748.43,748.33,149.90,-916.02,428.22,-0.76,3.89,-4.17,50.17
47668,749.20,748.07,747.71,748.40,748.34,146.97,-915.04,432.13,-0.04,-0.42,0.05,49.85
47706,749.15,748.09,747.71,748.40,748.34,129.39,-902.83,433.59,1.28,1.72,1.24,49.71
47744,749.19,748.06,747.70,748.44,748.35,149.90,-911.62,423.83,0.39,1.40,-1.21,50.00
47783,749.12,748.09,747.68,748.42,748.33,148.44,-910.16,424.80,0.85,2.73,-0.27,49.86
47827,749.20,748.00,747.70,748.44,748.34,149.41,-904.79,437.99,-0.11,2.16,-0.21,50.28
47866,749.24,748.02,747.71,748.45,748.36,144.53,-923.83,428.22,0.42,0.63,2.67,50.12
47904,749.19,748.07,747.74,748.48,748.37,141.11,-917.97,428.22,-1.23,0.44,-0.21,49.81
47943,749.12,748.06,747.73,748.44,748.34,145.51,-909.18,424.80,-1.60,2.18,-1.26,49.86
47982,749.21,748.05,747.69,748.48,748.36,148.93,-899.90,423.34,0.30,1.69,-1.44,50.14
48020,749.10,748.05,747.70,748.47,748.33,142.09,-912.60,431.15,1.15,0.70,-0.08,50.08
48061,749.00,748.06,747.69,748.48,748.31,148.93,-906.74,430.66,2.43,1.15,0.73,50.09
48099,749.00,748.06,747.72,748.39,748.29,147.46,-910.16,429.69,-0.32,0.07,-0.40,49.87
48138,748.97,748.10,747.73,748.39,748.30,141.11,-906.25,431.64,-0.04,-0.11,-0.87,49.65
48176,749.03,748.02,747.64,748.42,748.28,135.74,-915.53,429.20,-0.39,-1.68,1.12,50.40
48214,749.03,747.98,747.69,748.39,748.27,142.09,-912.11,436.04,0.76,2.81,1.27,50.38
48253,748.94,747.96,747.73,748.42,748.26,150.88,-928.22,428.71,0.63,2.58,-1.84,50.40
48294,748.92,748.00,747.62,748.48,748.25,153.32,-922.36,430.66,0.89,0.78,-0.18,50.73
48332,748.94,747.92,747.74,748.50,748.27,134.77,-914.55,425.29,2.09,2.41,3.04,50.66
48371,748.90,748.02,747.68,748.46,748.27,161.62,-911.13,435.55,-2.30,3.27,-0.81,50.35
48409,748.91,748.01,747.73,748.45,748.28,149.41,-909.67,437.01,0.70,0.20,0.20,50.20
48447,748.90,747.92,747.70,748.47,748.25,137.70,-905.76,426.76,0.08,-0.58,1.52,50.82
48486,748.88,747.92,747.72,748.41,748.23,163.09,-908.20,430.18,-2.20,2.95,-0.34,50.62
48526,748.88,748.00,747.65,748.44,748.25,158.69,-908.20,421.87,0.55,2.12,-4.69,50.54
48567,748.91,747.95,747.69,748.50,748.26,146.97,-913.57,431.15,-0.85,3.95,-0.86,50.76
48605,748.92,748.01,747.74,748.48,748.29,142.58,-922.85,421.39,0.97,-1.30,0.92,50.20
48643,748.88,747.96,747.70,748.53,748.27,156.25,-913.57,431.15,0.12,2.79,0.50,50.69
48681,748.88,748.01,747.75,748.47,748.28,147.95,-911.62,437.99,-0.47,2.77,-0.45,50.14
48719,748.83,747.97,747.66,748.44,748.22,137.21,-900.39,439.45,1.94,0.73,0.67,50.72
48767,748.86,747.95,747.70,748.48,748.25,153.81,-921.87,418.95,1.22,-1.77,-0.58,50.73
48805,748.82,747.98,747.71,748.45,748.24,126.46,-901.86,444.34,2.21,0.45,1.74,50.45
48843,748.76,747.96,747.73,748.38,748.21,140.14,-920.41,437.99,1.91,3.60,-1.52,50.35
48881,748.80,747.93,747.77,748.47,748.24,153.32,-917.97,425.29,0.33,-0.79,-0.73,50.46
48920,748.71,747.97,747.69,748.41,748.20,146.97,-905.76,432.62,0.40,1.74,1.31,50.56
48958,748.65,747.91,747.73,748.42,748.18,146.00,-910.16,433.11,-0.79,1.07,0.23,50.71
48998,748.67,748.00,747.71,748.50,748.22,150.88,-911.62,420.90,2.28,0.34,-0.36,50.46
49037,748.67,747.90,747.65,748.50,748.18,139.65,-917.48,422.36,0.94,1.88,0.43,51.24
49076,748.67,747.91,747.68,748.38,748.16,144.53,-914.55,440.92,-0.07,1.61,-0.97,50.92
49114,748.70,747.87,747.69,748.46,748.18,148.93,-916.50,427.73,-1.18,0.47,-3.31,51.15
49152,748.66,747.81,747.72,748.44,748.16,138.67,-903.81,430.66,0.12,1.13,-0.64,51.30
49191,748.68,747.87,747.68,748.50,748.18,143.07,-903.81,432.62,1.08,-0.08,0.04,51.24
49233,748.60,747.81,747.66,748.42,748.12,153.32,-910.64,424.32,0.26,1.52,-0.96,51.56
49272,748.55,747.80,747.68,748.46,748.12,146.00,-896.00,441.41,0.69,1.66,0.55,51.59
49310,748.45,747.78,747.73,748.48,748.11,145.02,-918.95,428.22,2.02,3.27,0.13,51.54
49349,748.36,747.85,747.68,748.43,748.08,151.86,-911.13,428.22,-1.82,3.22,-1.15,51.36
49387,748.28,747.82,747.62,748.42,748.04,144.53,-908.69,439.45,0.27,-1.89,0.89,51.78
49425,748.26,747.82,747.68,748.32,748.02,157.23,-912.11,418.95,-0.28,1.81,0.05,51.37
49466,748.25,747.82,747.67,748.40,748.03,141.11,-906.74,427.25,-1.72,1.62,0.75,51.60
49505,748.20,747.84,747.69,748.44,748.04,143.55,-904.30,437.50,0.60,-0.95,-0.42,51.46
49543,748.24,747.77,747.68,748.42,748.03,152.34,-908.69,425.29,-0.51,-0.41,-1.19,51.80
49584,748.22,747.79,747.66,748.41,748.02,139.65,-913.09,426.76,-1.02,-1.29,2.89,51.75
49622,748.09,747.77,747.71,748.36,747.98,137.21,-907.23,419.43,-0.89,1.73,2.08,51.58
49660,748.15,747.86,747.69,748.44,748.03,149.41,-913.57,426.27,-1.00,1.50,2.26,51.34
49706,748.02,747.92,747.69,748.41,748.01,157.23,-919.92,427.73,-0.60,-0.25,2.09,51.04
49745,747.97,747.89,747.75,748.42,748.01,148.44,-919.43,420.41,-0.53,1.36,-1.40,50.92
49783,748.01,747.84,747.64,748.41,747.97,147.46,-914.06,427.73,-1.34,-1.04,4.04,51.69
49822,748.00,747.91,747.66,748.39,747.99,137.21,-917.97,426.76,-1.02,-0.85,1.33,51.20
49860,748.00,747.93,747.62,748.38,747.98,142.58,-915.04,427.73,-1.02,-0.52,0.92,51.25
49899,748.07,747.92,747.59,748.32,747.98,151.37,-914.06,435.06,-0.15,-0.29,-0.92,51.29
49939,747.95,747.89,747.64,748.39,747.97,133.79,-922.36,440.92,-0.92,0.50,0.90,51.41
49978,747.99,747.89,747.64,748.43,747.99,155.27,-918.46,424.80,-0.90,1.07,1.56,51.44
50016,747.92,748.01,747.66,748.41,748.00,136.72,-924.32,429.69,2.37,0.78,0.82,50.72
50055,747.90,748.01,747.74,748.44,748.02,131.84,-912.11,432.62,-0.52,2.30,0.10,50.44
50093,747.88,747.95,747.67,748.39,747.97,136.23,-906.74,434.57,0.64,4.18,0.21,50.98
50132,747.83,748.05,747.74,748.35,747.99,132.32,-907.71,438.96,-1.21,0.37,0.90,50.15
50173,747.86,747.89,747.76,748.42,747.98,130.86,-912.60,441.41,0.27,0.61,-1.29,50.93
50211,747.95,747.91,747.67,748.43,747.99,156.25,-915.04,421.87,-0.47,3.56,-1.38,51.23
50250,747.99,747.94,747.72,748.35,748.00,139.16,-912.60,422.36,1.40,3.01,0.81,50.76
50288,747.95,747.97,747.71,748.35,748.00,138.67,-921.87,425.78,1.67,1.22,-1.92,50.67
50326,747.90,747.99,747.73,748.46,748.02,140.14,-922.36,421.87,-0.79,0.57,0.65,50.62
50365,747.89,748.03,747.74,748.41,748.02,146.00,-918.46,429.20,2.25,1.14,-1.50,50.30
50406,747.87,748.04,747.74,748.43,748.02,134.28,-909.18,422.85,3.40,3.69,-1.83,50.25
50444,747.82,748.03,747.61,748.39,747.96,144.53,-910.16,435.55,2.01,0.36,0.22,50.75
50482,747.82,747.95,747.66,748.45,747.97,138.18,-905.76,426.27,2.40,1.12,2.34,51.11
50521,747.87,747.97,747.71,748.54,748.02,140.14,-909.18,436.52,2.19,-0.72,2.40,50.90
50559,747.95,747.92,747.68,748.47,748.01,152.34,-909.67,431.64,-0.93,3.51,0.27,51.15
50599,747.97,747.96,747.70,748.44,748.02,142.58,-908.20,423.83,2.71,2.21,-0.75,50.84
50640,747.93,747.97,747.76,748.48,748.04,145.02,-903.81,417.97,-0.45,-1.61,-0.04,50.55
50684,747.96,747.98,747.71,748.42,748.02,146.97,-916.50,426.27,0.85,1.38,1.19,50.68
50721,747.94,747.98,747.74,748.43,748.02,138.67,-920.90,421.87,-1.67,1.99,-0.03,50.57
50760,747.91,748.03,747.68,748.38,748.00,137.70,-906.74,428.71,-1.24,0.33,2.24,50.47
50798,748.06,748.02,747.62,748.34,748.01,140.62,-909.18,420.41,0.54,1.05,-0.58,50.67
50838,748.00,747.94,747.68,748.43,748.01,143.55,-906.74,418.46,-1.38,0.18,-1.43,50.98
50876,748.08,747.95,747.67,748.41,748.03,154.30,-917.48,415.53,-1.88,2.36,0.66,50.93
50914,747.92,747.94,747.74,748.38,747.99,151.37,-916.02,421.87,-0.44,2.35,1.03,50.75
50952,747.88,747.98,747.70,748.45,748.00,154.79,-920.90,420.90,1.14,-1.60,-0.42,50.79
50990,747.87,747.88,747.63,748.38,747.94,143.07,-912.60,435.55,0.75,0.53,1.05,51.48
51029,747.91,747.92,747.74,748.44,748.00,141.11,-907.71,414.06,2.18,2.81,1.06,50.89
51069,747.91,747.87,747.69,748.50,747.99,141.60,-916.99,436.52,1.44,4.04,-1.56,51.46
51108,747.95,747.79,747.72,748.49,747.99,157.23,-919.43,427.25,0.56,2.54,0.45,51.74
51146,747.93,747.81,747.77,748.45,747.99,155.27,-907.23,419.43,3.60,2.24,1.36,51.32
51184,747.92,747.81,747.69,748.54,747.99,144.53,-906.74,431.15,1.60,0.52,2.77,51.84
51222,747.99,747.81,747.71,748.46,747.99,140.62,-914.06,427.73,2.56,-0.06,-0.48,51.61
51260,747.93,747.85,747.74,748.44,747.99,150.39,-903.32,428.71,-0.27,-1.16,-1.34,51.24
51301,748.00,747.85,747.73,748.40,747.99,150.39,-907.71,423.83,-1.27,2.60,-0.32,51.24
51339,747.97,747.86,747.74,748.50,748.02,145.51,-907.71,437.01,-1.74,-1.47,1.01,51.28
51377,747.95,747.91,747.71,748.47,748.01,138.67,-914.55,429.20,-0.96,2.31,2.43,51.11
51415,748.03,747.91,747.69,748.44,748.02,149.41,-908.20,420.90,-0.91,1.79,-1.04,51.14
51454,747.99,747.93,747.72,748.47,748.03,150.39,-911.62,423.34,-0.09,2.08,0.56,50.92
51492,748.02,747.86,747.71,748.40,748.00,143.07,-907.23,425.29,0.01,1.37,0.10,51.25
51532,748.03,747.84,747.69,748.43,748.00,140.62,-905.27,427.73,1.71,-0.74,0.95,51.50
51573,747.98,747.86,747.71,748.41,747.99,136.23,-916.02,424.80,0.60,2.34,3.49,51.26
51616,747.94,747.89,747.69,748.44,747.99,143.07,-917.48,427.25,1.79,0.12,-1.60,51.25
51654,747.98,747.83,747.69,748.47,747.99,144.53,-925.29,431.15,1.07,1.93,-0.69,51.55
51692,748.03,747.73,747.64,748.45,747.96,144.53,-920.90,440.43,2.50,2.44,0.24,52.27
51730,748.00,747.74,747.67,748.37,747.95,149.90,-905.76,432.62,-0.46,-1.15,1.32,51.98
51770,747.98,747.68,747.67,748.46,747.95,131.35,-905.76,431.15,2.68,-2.43,-1.70,52.45
51809,748.08,747.69,747.66,748.50,747.98,146.97,-891.11,424.32,1.98,3.50,-0.91,52.43
51847,748.06,747.74,747.68,748.43,747.98,141.60,-903.32,423.34,1.56,-0.19,0.28,52.01
51885,748.03,747.72,747.70,748.46,747.98,165.04,-914.06,440.92,0.32,0.75,0.80,52.09
51923,748.04,747.83,747.72,748.44,748.01,138.18,-918.46,428.71,-3.11,-0.53,0.09,51.41
51961,748.01,747.78,747.66,748.38,747.96,147.46,-914.06,432.62,-1.09,3.16,2.92,51.86
52002,747.97,747.91,747.70,748.43,748.00,146.00,-908.20,421.87,2.63,1.37,-0.13,51.10
52040,747.94,747.76,747.75,748.42,747.97,140.14,-921.87,432.62,-0.89,2.03,1.49,51.61
52078,747.98,747.87,747.66,748.52,748.01,161.62,-919.92,419.43,1.65,0.52,-0.34,51.57
52117,748.02,747.80,747.70,748.45,747.99,141.11,-909.67,426.76,-0.15,0.05,-0.65,51.70
52155,748.02,747.76,747.67,748.41,747.96,149.41,-911.62,427.73,0.60,2.31,-2.50,51.93
52193,748.03,747.81,747.66,748.50,748.00,151.86,-907.23,437.50,0.03,0.79,-1.43,51.89
52233,748.03,747.82,747.67,748.41,747.99,162.60,-914.06,428.71,0.00,-0.48,-1.10,51.63
52271,748.12,747.81,747.73,748.43,748.02,149.41,-919.92,432.13,-2.18,3.35,0.34,51.42
52309,748.13,747.83,747.72,748.40,748.02,158.20,-918.46,439.94,-0.74,-0.31,1.97,51.30
52347,748.07,747.80,747.72,748.37,747.99,143.07,-921.39,439.94,0.16,-0.37,0.28,51.42
52384,748.07,747.78,747.67,748.43,747.99,155.27,-918.95,422.85,-0.31,3.38,-0.57,51.88
52422,747.91,747.81,747.67,748.41,747.95,136.72,-920.41,436.04,0.57,0.50,1.05,51.73
52463,747.88,747.83,747.75,748.49,747.99,153.81,-920.41,437.01,-0.08,0.24,-0.54,51.36
52501,747.93,747.78,747.67,748.49,747.97,153.32,-906.25,429.20,-0.25,2.36,-0.02,51.96
52539,747.96,747.80,747.67,748.42,747.96,159.18,-915.04,432.13,0.54,2.68,-0.19,51.77
52594,748.01,747.72,747.68,748.47,747.97,144.04,-901.37,427.73,-0.22,1.27,1.57,52.20
52632,747.99,747.79,747.66,748.43,747.97,141.11,-911.62,430.66,1.62,2.89,-1.64,51.86
52671,747.92,747.71,747.69,748.50,747.95,159.67,-904.79,430.66,-2.70,0.66,-0.48,52.28
52711,747.95,747.74,747.71,748.46,747.97,155.27,-913.57,415.04,0.18,0.27,0.71,51.93
52749,747.89,747.76,747.73,748.52,747.98,135.25,-910.64,425.78,1.89,2.27,0.86,51.86
52787,747.90,747.79,747.70,748.41,747.95,148.44,-907.71,432.62,-1.72,4.33,-1.44,51.66
52826,747.95,747.84,747.71,748.46,747.99,141.60,-921.87,424.80,-0.24,0.72,0.80,51.43
52864,747.82,747.80,747.67,748.47,747.94,143.07,-918.95,419.43,1.45,0.81,-1.58,51.91
52902,747.78,747.86,747.73,748.55,747.98,136.72,-916.50,427.25,-0.47,0.08,-0.44,51.45
52943,747.86,747.89,747.71,748.53,748.00,138.18,-914.06,421.87,2.36,2.38,0.90,51.34
52981,747.81,747.81,747.76,748.49,747.97,144.53,-910.64,424.80,0.61,0.38,1.80,51.49
53019,747.79,747.81,747.75,748.50,747.96,157.23,-914.06,431.64,-0.36,-0.21,-1.58,51.53
53058,747.81,747.83,747.71,748.49,747.96,135.74,-901.86,440.92,1.17,1.31,1.44,51.59
53096,747.93,747.75,747.62,748.50,747.95,135.74,-912.11,423.83,0.34,1.52,-2.06,52.37
53134,747.89,747.73,747.76,748.42,747.95,151.37,-908.20,425.78,-0.63,1.92,-0.79,51.72
53175,747.87,747.74,747.73,748.50,747.96,160.16,-906.74,419.92,-0.37,0.37,1.37,51.93
53213,747.89,747.82,747.71,748.52,747.98,132.32,-913.09,419.92,-1.51,-0.45,-0.16,51.68
53251,747.86,747.74,747.70,748.49,747.95,132.81,-913.09,449.71,1.73,2.28,-1.11,52.09
53289,747.75,747.85,747.72,748.56,747.97,146.97,-907.23,438.96,3.60,3.87,-0.35,51.54
53328,747.78,747.80,747.71,748.52,747.95,154.30,-923.34,432.62,2.12,1.86,0.80,51.82
53366,747.73,747.81,747.70,748.54,747.95,149.90,-923.34,420.90,2.83,2.66,0.70,51.78
53406,747.73,747.77,747.70,748.54,747.94,142.58,-920.41,439.45,2.90,4.02,1.70,52.03
53445,747.72,747.80,747.72,748.60,747.96,145.02,-914.06,429.20,0.41,2.78,3.01,51.88
53483,747.67,747.77,747.71,748.53,747.92,157.71,-909.18,433.11,1.50,0.63,-0.18,51.97
53523,747.76,747.89,747.70,748.53,747.97,152.83,-912.11,440.92,0.33,-0.45,0.93,51.42
53562,747.70,747.75,747.65,748.61,747.93,148.93,-915.04,429.20,0.73,2.40,1.30,52.47
53602,747.79,747.73,747.68,748.59,747.95,140.14,-909.18,431.15,-0.44,3.11,1.11,52.38
53643,747.79,747.77,747.67,748.58,747.96,144.04,-907.71,433.11,-0.63,0.00,1.31,52.16
53681,747.76,747.78,747.70,748.55,747.95,158.69,-908.69,435.06,-0.35,2.46,-1.65,51.97
53720,747.77,747.72,747.73,748.59,747.95,147.95,-919.92,425.29,-1.87,0.10,0.31,52.21
53758,747.81,747.74,747.73,748.51,747.95,146.97,-904.30,433.11,-1.09,-3.21,3.06,52.00
53796,747.79,747.72,747.74,748.49,747.94,140.62,-904.30,433.59,0.04,1.92,-0.54,52.02
53834,747.92,747.71,747.73,748.51,747.97,138.18,-913.09,423.34,2.79,1.73,0.64,52.10
53875,747.92,747.72,747.68,748.52,747.96,149.90,-908.69,429.20,2.31,-0.37,0.00,52.30
53913,747.92,747.69,747.73,748.47,747.95,143.07,-900.88,428.22,-0.75,-1.62,0.56,52.09
53951,747.87,747.77,747.65,748.50,747.95,146.00,-895.02,434.57,0.85,1.01,0.03,52.14
53990,747.83,747.88,747.68,748.52,747.98,157.71,-904.79,432.13,0.54,1.63,0.72,51.51
54028,747.93,747.83,747.73,748.49,747.99,166.99,-908.69,431.64,0.09,1.02,-2.27,51.47
54066,748.02,747.88,747.70,748.43,748.01,150.39,-904.30,418.95,2.12,0.71,-0.44,51.27
54107,748.08,747.86,747.72,748.46,748.03,142.09,-920.41,418.95,0.08,0.73,1.03,51.28
54145,748.04,747.80,747.70,748.44,747.99,161.62,-909.18,419.43,-1.95,2.31,-0.31,51.66
54183,747.97,747.85,747.73,748.46,748.00,138.18,-915.53,425.29,2.08,4.27,-0.13,51.28
54221,748.05,747.89,747.66,748.50,748.03,140.62,-900.39,422.36,1.76,1.96,-0.03,51.46
54259,748.02,747.90,747.75,748.51,748.05,158.69,-911.13,434.08,-0.62,0.72,4.59,51.02
54297,748.01,747.83,747.76,748.44,748.01,146.48,-910.16,436.04,3.59,1.82,1.96,51.22
54338,748.02,747.77,747.66,748.51,747.99,136.23,-919.92,431.15,1.35,1.72,1.06,52.07
54376,747.97,747.79,747.74,748.44,747.98,140.14,-899.90,426.76,0.82,2.64,-2.57,51.53
54414,748.07,747.82,747.78,748.47,748.03,158.20,-913.57,432.13,-0.31,0.31,0.03,51.18
54452,747.96,747.83,747.76,748.39,747.98,144.53,-905.76,429.20,-1.68,1.59,-0.22,51.17
54496,748.03,747.80,747.76,748.42,748.00,148.93,-909.67,425.29,0.31,3.92,-0.50,51.33
