currTime,s1,s2,s3,s4,s,AccX,AccY,AccZ,GyroX,GyroY,GyroZ,GRF
23,783.64,755.43,745.82,744.75,757.41,-43.95,-920.90,420.90,-2.18,-0.15,0.25,-123.82
58,783.75,755.38,745.82,744.73,757.42,-54.20,-931.15,424.32,-0.99,-2.95,0.63,-123.30
94,783.93,755.28,745.90,744.71,757.45,-61.04,-927.25,437.01,-1.79,-0.44,1.44,-119.31
128,784.02,755.26,745.91,744.66,757.46,-58.59,-924.32,419.92,-1.38,0.13,-2.81,-118.71
163,784.33,755.10,745.84,744.59,757.47,-62.01,-931.64,439.94,-0.38,-2.51,0.31,-120.25
199,784.51,755.10,745.81,744.57,757.50,-51.27,-935.06,420.90,-1.50,-1.77,1.10,-121.62
234,784.58,754.97,745.86,744.60,757.50,-49.32,-917.48,426.27,-0.60,-1.15,-1.69,-118.32
269,784.72,754.90,745.85,744.53,757.50,-41.50,-942.38,430.18,-0.76,2.13,0.13,-117.92
304,784.75,754.81,745.82,744.45,757.46,-60.06,-917.97,420.90,-1.92,2.60,2.33,-118.02
340,784.79,754.76,745.79,744.46,757.45,-61.04,-934.08,422.85,-0.73,0.06,1.10,-118.57
376,784.85,754.76,745.78,744.48,757.47,146.00,-824.22,839.36,-4.19,-17.13,46.61,-119.42
412,784.82,754.77,745.80,744.45,757.46,-57.62,-931.64,447.27,-0.80,-0.21,0.11,-118.44
448,784.88,754.91,745.88,744.48,757.54,-44.43,-927.73,429.69,-1.43,-0.76,0.77,-117.00
484,784.72,754.86,745.78,744.56,757.48,-52.73,-924.80,423.83,-1.68,2.39,0.98,-120.87
519,784.64,754.98,745.85,744.62,757.52,-48.83,-924.32,424.80,0.76,2.56,-0.89,-119.24
556,784.64,754.95,745.81,744.64,757.51,-51.76,-915.04,425.29,-0.29,-2.18,0.73,-120.65
592,784.68,754.92,745.84,744.69,757.53,-47.36,-931.15,424.32,-0.68,-0.43,1.51,-119.61
627,784.49,755.02,745.84,744.62,757.49,-56.15,-932.62,431.64,0.00,1.02,1.37,-119.60
663,784.45,754.89,745.78,744.61,757.43,-62.50,-932.62,423.34,-0.77,-0.27,-1.12,-120.56
698,784.46,755.01,745.75,744.72,757.48,-57.62,-923.34,426.27,0.30,-1.39,-0.44,-123.53
733,784.32,755.03,745.79,744.72,757.46,-49.80,-937.50,426.76,-1.79,0.60,-1.57,-122.20
769,784.07,755.01,745.79,744.69,757.39,-28.81,-935.06,412.11,1.51,1.46,-0.53,-120.81
804,783.99,755.16,745.89,744.76,757.45,-47.36,-930.18,457.03,-0.53,6.24,-0.84,-119.01
840,783.78,755.16,745.91,744.83,757.42,-69.34,-926.76,432.62,-2.51,2.50,2.33,-117.86
875,783.48,755.27,745.88,744.93,757.39,-47.36,-923.83,430.18,1.45,1.20,1.95,-120.14
911,783.27,755.33,745.91,744.87,757.34,-49.80,-924.32,436.04,0.13,3.34,-1.05,-118.74
948,782.99,755.41,745.92,745.08,757.35,-61.52,-925.78,433.11,0.06,1.31,-1.50,-119.52
984,782.69,755.58,745.94,745.22,757.36,-53.71,-920.41,433.59,0.27,1.21,-1.85,-120.89
1019,782.22,755.73,745.97,745.33,757.31,-28.32,-916.99,431.15,-0.66,-2.94,1.69,-120.41
1055,782.13,755.72,745.92,745.29,757.27,-60.55,-918.95,438.48,-0.49,-1.06,-1.36,-122.04
1090,782.00,755.75,745.95,745.31,757.25,-50.29,-931.15,417.48,0.06,-1.15,-1.37,-120.99
1126,781.92,755.67,746.03,745.28,757.23,-48.83,-926.27,434.08,-0.55,-0.52,1.50,-116.61
1161,781.92,755.69,745.91,745.28,757.20,-48.83,-936.04,427.25,0.64,1.42,-1.18,-121.61
1197,781.80,755.69,745.91,745.27,757.17,-63.96,-925.78,424.32,0.53,0.53,-3.91,-120.97
1232,781.86,755.58,745.91,745.24,757.15,-73.73,-919.43,445.31,-1.31,0.93,-0.92,-119.73
1268,781.96,755.58,745.97,745.21,757.18,-31.74,-929.20,423.83,0.50,-0.33,-0.98,-117.55
1303,781.84,755.52,746.05,745.18,757.15,-52.73,-929.20,435.06,3.07,0.66,-1.24,-113.66
1338,781.89,755.51,745.93,745.10,757.11,-64.45,-922.36,440.43,-1.76,0.71,-0.95,-117.39
1374,782.15,755.46,746.00,745.08,757.17,-62.99,-924.32,427.25,0.79,0.47,-0.48,-114.91
1409,782.25,755.34,745.92,744.98,757.12,-50.78,-921.39,420.41,-0.87,2.30,-1.21,-116.42
1445,782.49,755.27,745.87,744.90,757.13,-55.66,-924.32,436.04,-1.37,0.02,0.48,-117.67
1480,782.81,755.04,745.92,744.85,757.16,-74.71,-927.25,409.67,-1.02,5.41,-1.03,-113.73
1515,782.94,755.03,745.83,744.75,757.14,-50.78,-937.99,390.62,2.37,6.12,0.73,-116.86
1550,783.04,754.99,745.86,744.75,757.16,-50.29,-907.71,446.78,-1.41,-0.16,0.29,-115.44
1585,783.03,754.94,745.90,744.79,757.16,-46.88,-927.25,437.01,1.34,-3.23,-1.27,-113.81
1620,783.34,754.85,745.86,744.74,757.20,-37.60,-914.55,422.85,2.79,-6.15,-2.82,-114.79
1655,783.33,754.88,745.96,744.73,757.23,-65.43,-949.22,411.62,-2.61,2.11,-2.38,-110.59
1693,783.51,754.96,745.91,744.86,757.31,-52.73,-910.16,436.52,0.89,-0.21,-4.91,-115.19
1728,783.67,754.92,745.86,744.75,757.30,-63.96,-945.80,428.22,-0.84,-1.29,-2.94,-116.57
1763,783.67,754.98,745.89,744.77,757.33,-63.96,-924.32,432.62,1.00,-1.25,0.66,-116.19
1798,783.69,754.99,745.87,744.81,757.34,-55.66,-915.53,435.06,1.80,0.68,1.23,-117.26
1833,783.76,755.00,745.89,744.84,757.37,-42.48,-924.80,417.97,0.66,-1.25,0.16,-117.07
1868,783.71,754.96,745.91,744.87,757.36,-43.46,-933.59,424.80,1.03,-0.16,-2.12,-115.59
1904,783.72,755.03,745.88,744.83,757.37,-57.62,-934.57,422.36,0.05,1.86,-0.31,-117.67
1946,783.79,754.99,745.90,744.78,757.37,-46.88,-924.32,430.18,-0.90,1.50,0.96,-116.02
1982,783.75,755.07,745.90,744.87,757.40,-50.29,-941.89,427.25,0.69,1.82,-0.62,-117.39
2017,783.55,755.13,745.94,744.91,757.38,-60.55,-929.20,420.90,-1.16,0.15,-0.72,-116.19
2053,783.58,755.25,745.88,744.98,757.42,-55.18,-924.80,426.27,-0.79,-1.75,-0.52,-120.61
2088,783.38,755.32,745.85,745.01,757.39,-50.29,-926.76,431.15,-2.47,-0.15,0.14,-121.84
2124,783.38,755.34,745.88,745.04,757.41,-50.29,-929.20,427.73,0.23,3.50,-0.59,-121.29
2159,783.33,755.46,745.90,745.02,757.43,-52.73,-932.62,436.04,2.47,-0.04,1.01,-121.35
2195,783.25,755.52,745.92,745.11,757.45,-52.73,-926.76,418.46,1.36,2.32,-1.76,-121.56
2230,782.89,755.70,745.91,745.28,757.45,-51.76,-934.57,422.36,0.45,0.81,-1.61,-124.22
2265,782.63,755.82,745.93,745.37,757.44,-53.71,-916.02,422.85,0.98,-2.12,0.56,-124.56
2301,782.35,755.90,745.92,745.55,757.43,-54.69,-916.02,422.36,-1.56,1.95,0.13,-126.18
2336,782.14,755.99,745.94,745.63,757.43,-63.48,-931.15,428.71,0.12,3.11,-1.12,-126.11
2371,782.03,756.11,746.01,745.70,757.46,-49.80,-925.78,435.06,1.70,-0.75,-0.47,-124.95
2407,781.91,756.15,745.99,745.73,757.44,-52.73,-913.09,434.57,-0.93,0.59,0.64,-126.08
2442,781.89,756.20,745.98,745.80,757.47,-59.08,-924.80,422.85,0.48,0.70,-3.01,-127.35
2478,781.84,756.19,746.04,745.77,757.46,-54.20,-925.29,428.71,-0.15,1.76,0.72,-124.70
2513,781.71,756.24,746.08,745.74,757.44,-49.32,-924.32,428.71,1.62,-1.79,-0.79,-123.04
2549,781.70,756.22,746.09,745.82,757.46,-48.34,-926.76,426.76,-0.91,-0.12,-0.74,-123.03
2584,781.67,756.28,746.05,745.89,757.47,-57.62,-924.32,437.50,1.03,-2.50,0.40,-125.78
2619,781.59,756.29,746.08,745.86,757.45,-58.59,-920.90,431.64,0.51,0.61,-2.57,-123.94
2655,781.52,756.40,746.11,745.89,757.48,-60.06,-930.66,424.32,-1.10,-0.28,0.77,-124.07
2690,781.38,756.40,746.01,745.98,757.44,-51.76,-932.13,429.69,1.85,-0.68,0.12,-128.07
2726,781.26,756.34,746.04,745.92,757.39,-46.88,-923.34,415.53,-1.42,-2.05,0.40,-125.77
2761,781.25,756.33,746.04,745.94,757.39,-63.48,-937.99,430.66,-0.03,-0.32,-1.18,-125.68
2796,781.20,756.34,746.05,745.92,757.38,-59.08,-923.83,425.78,0.72,1.61,-0.21,-125.07
2832,781.12,756.34,746.08,745.95,757.37,-51.76,-926.27,437.99,-0.93,-2.00,-1.24,-123.96
2867,781.01,756.28,746.08,745.93,757.32,-52.25,-932.62,437.50,0.34,0.27,-0.47,-123.07
2903,780.97,756.30,746.03,745.97,757.32,-47.85,-935.55,420.90,0.81,-0.26,-0.24,-125.09
2941,780.89,756.32,746.03,745.95,757.30,-51.76,-939.45,429.20,0.43,0.13,-3.36,-124.99
2977,780.86,756.28,746.09,745.94,757.29,-59.08,-932.62,435.06,-2.45,1.72,2.20,-122.27
3012,780.90,756.24,746.09,745.94,757.29,-51.27,-933.11,434.57,0.17,-0.52,-1.14,-121.68
3048,780.93,756.25,746.08,745.90,757.29,-53.22,-926.76,431.15,-0.44,0.33,1.53,-122.34
3085,780.92,756.28,745.99,745.87,757.26,-51.76,-926.76,430.66,0.32,-1.51,-0.71,-125.95
3134,780.92,756.14,746.03,745.96,757.26,-58.11,-921.87,427.25,-1.34,3.32,-0.18,-123.08
3169,781.00,756.22,746.09,745.88,757.30,-43.95,-922.85,423.83,0.69,-0.47,-0.79,-121.47
3205,780.94,756.21,746.04,745.94,757.28,-54.69,-936.52,432.62,0.98,-0.38,-2.04,-123.71
3240,780.98,756.24,746.05,745.91,757.30,-50.29,-934.08,435.55,0.46,3.03,1.26,-123.33
3275,780.96,756.30,746.11,745.99,757.34,-55.18,-919.92,436.04,-0.03,1.44,-1.33,-122.14
3310,780.90,756.28,746.04,746.03,757.31,-47.85,-921.87,426.27,1.77,-1.85,0.37,-124.96
3345,780.77,756.39,746.04,746.02,757.30,-55.18,-936.52,430.18,-0.73,-0.10,-2.89,-125.81
3383,780.76,756.47,746.12,746.04,757.35,-46.88,-926.76,433.59,-0.37,-1.87,-1.92,-123.43
3418,780.68,756.41,746.11,746.00,757.30,-45.90,-926.27,426.27,-0.45,-1.98,0.11,-122.87
3453,780.62,756.54,746.15,746.08,757.35,-52.73,-932.62,445.31,-0.98,-0.62,-0.15,-122.83
3488,780.53,756.58,746.10,746.14,757.34,-43.46,-917.48,434.57,-0.27,-1.11,-3.15,-125.59
3523,780.29,756.70,746.10,746.22,757.33,-48.83,-927.73,431.64,0.24,-1.53,-1.13,-126.93
3558,780.22,756.75,746.13,746.23,757.33,-60.55,-926.76,440.43,-2.27,-0.24,-1.37,-126.26
3593,780.10,756.90,746.08,746.27,757.34,-49.80,-919.43,431.15,-2.53,-0.02,-0.24,-129.59
3628,779.83,756.92,746.10,746.34,757.29,-44.92,-920.90,435.55,1.09,2.75,-0.50,-128.69
3663,779.56,757.15,746.13,746.45,757.32,-59.08,-922.85,440.92,-0.53,0.07,1.66,-130.07
3699,779.42,757.22,746.13,746.49,757.31,-62.01,-933.11,436.04,-1.29,-0.13,-0.98,-130.66
3734,779.09,757.34,746.23,746.55,757.30,-49.80,-938.48,438.96,-0.12,-1.44,0.13,-127.79
3769,778.83,757.45,746.22,746.65,757.28,-54.20,-926.76,442.38,-0.17,2.85,-1.59,-129.21
3805,778.64,757.55,746.17,746.63,757.25,-50.78,-921.87,431.15,1.15,0.75,-3.01,-131.55
3840,778.61,757.62,746.25,746.64,757.28,-50.78,-916.99,426.76,2.21,0.14,0.51,-129.40
3875,778.53,757.69,746.25,746.69,757.29,-59.57,-924.32,434.57,0.15,1.76,-0.52,-130.34
3910,778.43,757.67,746.19,746.60,757.22,-51.27,-917.48,431.15,0.01,-0.15,-1.26,-131.64
3951,778.41,757.67,746.26,746.59,757.23,-50.78,-922.85,427.73,-1.79,0.95,-3.31,-128.80
3986,778.39,757.67,746.16,746.62,757.21,-55.66,-918.46,433.11,-0.33,0.08,-0.13,-132.59
4021,778.47,757.66,746.22,746.60,757.24,-52.25,-928.71,433.11,0.81,0.03,-3.32,-130.19
4056,778.59,757.59,746.25,746.58,757.25,-48.83,-927.73,436.04,-1.59,2.90,1.27,-128.40
4092,778.63,757.47,746.18,746.54,757.20,-57.62,-919.43,435.06,0.79,-0.07,-1.32,-129.77
4127,778.71,757.45,746.22,746.46,757.21,-36.62,-922.36,431.64,-1.46,-0.61,1.40,-127.95
4162,778.73,757.40,746.21,746.45,757.20,-54.20,-914.55,436.52,0.46,1.05,-0.73,-127.67
4197,778.86,757.35,746.16,746.46,757.20,-51.76,-922.85,436.52,-0.26,-0.63,-1.15,-129.43
4233,778.87,757.35,746.16,746.44,757.21,-55.66,-924.80,432.13,-1.17,-1.30,0.27,-129.38
4268,778.89,757.33,746.08,746.37,757.17,-51.76,-939.94,431.64,-0.27,1.21,-0.30,-131.89
4303,778.83,757.25,746.11,746.43,757.16,-48.83,-941.41,431.15,-0.37,-0.84,-1.11,-129.99
4338,779.01,757.28,746.08,746.41,757.19,-56.64,-924.80,446.78,1.62,-0.06,-2.06,-131.85
4374,779.00,757.38,746.19,746.46,757.26,-52.73,-929.69,438.48,-0.15,-0.99,0.60,-128.92
4409,778.96,757.31,746.23,746.41,757.23,-58.11,-937.50,437.50,-0.92,-1.35,0.38,-126.25
4444,779.05,757.40,746.17,746.41,757.26,-62.01,-927.25,437.01,-0.36,2.73,-0.73,-129.95
4479,779.04,757.38,746.24,746.42,757.27,-42.97,-933.59,427.25,0.85,-0.40,-2.59,-126.95
4515,778.93,757.54,746.18,746.44,757.28,-48.34,-922.85,429.20,0.31,-0.10,-0.67,-130.83
4550,778.92,757.55,746.13,746.46,757.26,-61.04,-934.57,419.92,0.94,-0.34,-1.18,-132.88
4585,778.76,757.72,746.21,746.56,757.31,-48.34,-921.39,432.13,-0.75,0.24,2.44,-131.90
4620,778.84,757.68,746.08,746.54,757.28,-53.22,-926.27,426.27,-0.73,-0.76,-2.11,-136.48
4656,778.73,757.82,746.21,746.67,757.36,-49.32,-922.85,443.36,1.47,1.52,-1.53,-133.74
4691,778.63,757.87,746.25,746.69,757.36,-62.99,-930.18,426.76,-1.27,-3.01,-0.61,-132.53
4726,778.61,757.87,746.20,746.52,757.30,-55.18,-926.27,430.66,-1.40,-2.85,-2.91,-133.36
4762,778.63,757.88,746.26,746.58,757.34,-48.83,-918.46,444.34,0.49,0.15,0.13,-131.64
4797,778.62,757.86,746.23,746.52,757.31,-42.48,-917.48,429.20,0.61,0.94,0.15,-131.94
4832,778.66,757.93,746.23,746.61,757.36,-52.25,-915.04,429.20,-0.69,0.15,-2.06,-133.43
4867,778.61,757.98,746.27,746.59,757.36,-44.92,-929.20,424.32,-1.34,-0.29,0.21,-132.25
4902,778.77,757.94,746.19,746.55,757.36,-51.76,-917.48,445.31,0.76,1.35,-3.21,-134.97
4941,778.75,757.92,746.21,746.52,757.35,-49.32,-923.83,426.76,0.05,1.96,0.13,-133.91
4976,778.84,757.85,746.24,746.56,757.37,-57.62,-920.41,435.55,0.01,0.97,-0.87,-132.47
5013,778.77,757.91,746.19,746.55,757.35,-39.55,-929.20,431.64,0.19,0.25,0.43,-134.82
5048,778.87,757.97,746.20,746.52,757.39,-57.62,-924.80,427.73,-0.94,-0.16,-0.18,-134.89
5083,778.80,757.86,746.19,746.61,757.37,-56.15,-933.11,428.71,0.34,-0.40,-1.27,-134.42
5118,778.70,757.74,746.18,746.65,757.32,-57.13,-921.87,436.04,-0.20,-0.47,0.99,-133.74
5153,778.86,757.80,746.24,746.59,757.37,-62.50,-926.27,450.20,-0.32,5.21,-0.68,-131.93
5188,779.03,757.69,746.27,746.59,757.39,-53.71,-921.87,436.04,1.09,-1.65,-1.28,-130.15
5223,779.10,757.66,746.25,746.65,757.41,-54.69,-927.25,422.36,-1.71,-0.11,-0.10,-131.06
5258,779.11,757.58,746.24,746.63,757.39,-56.64,-946.78,449.71,-0.98,-2.98,-0.24,-130.51
5294,779.35,757.60,746.29,746.60,757.46,-47.36,-935.55,431.15,-0.41,-0.24,-1.85,-129.29
5329,779.45,757.58,746.22,746.55,757.45,-59.57,-931.64,431.64,0.43,-0.56,-0.04,-131.40
5364,779.53,757.40,746.27,746.54,757.43,-41.02,-921.87,445.31,-0.10,-0.07,0.65,-127.77
5399,779.64,757.46,746.18,746.52,757.45,-37.11,-920.90,437.50,0.68,1.35,-0.40,-132.16
5435,779.58,757.36,746.18,746.57,757.43,-49.32,-923.34,433.59,-0.26,-2.02,0.90,-130.98
5470,779.55,757.28,746.13,746.56,757.38,-52.25,-942.87,435.55,-0.18,-1.03,-1.31,-132.19
5505,779.59,757.15,746.18,746.53,757.36,-42.97,-920.41,432.62,-0.50,0.89,-1.53,-128.84
5540,779.45,757.11,746.20,746.53,757.32,-49.32,-924.80,434.57,0.27,0.39,0.28,-127.08
5576,779.45,757.06,746.20,746.52,757.31,-60.06,-930.18,440.92,-0.18,-0.34,-4.20,-126.41
5611,779.27,756.99,746.16,746.61,757.26,-53.22,-916.02,446.29,1.54,1.35,-0.63,-127.32
5646,778.92,757.06,746.19,746.62,757.20,-47.36,-936.52,438.48,-1.15,0.85,-0.29,-126.23
5681,778.83,757.10,746.26,746.72,757.23,-58.11,-913.57,439.94,1.13,1.36,-1.33,-124.41
5716,778.66,757.14,746.25,746.73,757.20,-47.36,-925.29,434.57,-0.30,0.01,0.25,-125.18
5752,778.55,757.23,746.21,746.76,757.19,-60.55,-929.69,443.36,-0.24,0.73,-1.92,-127.52
5787,778.19,757.20,746.20,746.74,757.09,-49.32,-937.01,424.32,2.63,0.15,1.15,-126.60
5822,778.09,757.22,746.28,746.87,757.11,-57.13,-924.32,446.29,-0.24,0.32,-0.11,-124.60
5857,777.95,757.35,746.28,746.88,757.11,-67.38,-928.22,436.52,-0.12,1.12,-1.82,-125.58
5893,777.93,757.37,746.26,746.97,757.14,-49.32,-914.06,450.20,0.35,-0.66,-3.69,-127.15
5934,777.96,757.31,746.24,746.89,757.10,-50.78,-918.95,461.43,-0.78,-0.50,0.41,-126.91
5969,777.95,757.34,746.23,746.87,757.10,-46.88,-929.69,432.62,0.44,2.72,-0.39,-127.22
6005,778.13,757.43,746.24,746.85,757.17,-43.95,-915.04,450.20,2.04,-0.79,-2.55,-127.94
6040,778.40,757.43,746.25,746.87,757.24,-65.43,-917.48,426.76,2.46,-1.87,-1.25,-128.29
6075,778.54,757.32,746.27,746.78,757.23,-38.09,-915.04,444.34,3.95,-0.85,0.98,-126.21
6111,778.46,757.27,746.26,746.80,757.20,-59.57,-936.04,459.96,0.79,-3.72,-1.92,-125.94
6146,778.01,757.09,746.20,746.77,757.02,-45.90,-916.50,447.75,0.19,2.66,-1.06,-125.40
6184,777.44,756.97,746.24,746.72,756.84,-62.50,-915.53,460.45,2.05,0.52,-0.95,-121.04
6220,776.58,756.82,746.25,746.74,756.60,-53.22,-925.29,446.78,-0.15,-0.35,0.19,-117.78
6255,775.66,756.73,746.30,746.76,756.36,-54.69,-921.87,444.34,2.08,2.44,-0.11,-113.36
6291,773.92,756.44,746.22,746.59,755.79,-51.76,-917.97,436.04,1.40,2.24,0.37,-109.50
6326,771.14,755.97,746.24,746.41,754.94,-53.22,-935.06,443.85,-3.32,0.29,0.51,-99.15
6361,766.49,754.78,746.13,745.98,753.35,-56.64,-923.83,448.73,-8.28,-0.56,-2.71,-73.09
6397,759.97,752.80,746.05,745.16,751.00,-66.89,-979.98,390.62,-15.50,-1.27,0.70,-24.29
6432,751.11,750.13,745.81,744.44,747.87,-47.36,-985.84,362.79,-22.60,-3.08,0.05,10.18
6467,742.67,747.49,745.67,743.91,744.94,236.82,-900.88,336.91,-32.21,18.19,-15.54,52.78
6503,739.36,745.83,745.44,743.43,743.51,101.07,-1292.48,202.64,-26.82,119.87,-62.58,63.86
6538,738.96,745.37,745.39,743.34,743.27,68.36,-1095.70,241.21,25.01,159.53,-79.09,66.68
6573,738.42,745.16,745.48,743.38,743.11,-223.63,-1141.60,218.75,18.00,152.05,-75.17,67.60
6609,738.28,744.88,745.42,743.33,742.98,-232.91,-1042.97,266.60,-7.50,113.78,-91.98,69.54
6644,738.25,744.79,745.45,743.28,742.94,-336.91,-1098.14,376.95,-9.36,91.27,-78.18,69.11
6681,738.15,744.70,745.37,743.29,742.88,-413.09,-992.68,451.66,-8.97,83.49,-57.90,70.79
6716,738.13,744.65,745.43,743.23,742.86,-491.21,-893.55,418.46,-6.69,80.23,-48.48,69.82
6752,738.12,744.64,745.42,743.23,742.85,-553.71,-834.96,380.86,-10.85,72.99,-22.91,69.99
6786,738.06,744.58,745.42,743.21,742.82,-601.07,-753.91,395.51,-22.34,62.41,3.07,70.17
6822,738.15,744.47,745.40,743.26,742.82,-572.75,-759.28,436.52,-28.94,52.73,25.14,71.29
6857,738.02,744.37,745.34,743.19,742.73,-505.86,-748.05,416.02,-27.82,50.49,44.63,72.23
6895,737.97,744.35,745.37,743.23,742.73,-431.15,-772.95,382.32,-33.67,51.36,66.59,72.18
6931,737.88,744.21,745.46,743.27,742.70,-288.09,-831.05,372.07,-32.57,54.48,71.85,71.83
6966,737.65,744.22,745.47,743.33,742.67,-189.94,-911.62,368.16,-23.37,58.82,61.33,72.08
7002,737.48,744.18,745.44,743.45,742.64,-69.34,-977.05,427.73,-22.04,68.16,46.21,73.59
7037,737.29,744.08,745.45,743.60,742.60,53.22,-981.45,508.30,-19.82,90.08,46.76,75.02
7073,737.20,744.11,745.47,743.65,742.61,140.14,-964.84,503.42,-1.37,98.77,20.69,75.00
7108,737.14,744.00,745.45,743.64,742.56,226.07,-903.81,495.12,2.83,97.91,12.61,75.65
7144,737.10,743.97,745.49,743.67,742.56,165.53,-874.51,475.59,12.88,57.21,28.65,75.37
7179,736.99,743.99,745.49,743.66,742.54,177.25,-880.86,441.89,24.31,-12.63,7.78,75.24
7214,740.94,743.46,745.47,743.12,743.24,378.91,-466.31,504.39,-41.89,-50.93,-125.79,73.18
7250,747.34,744.04,745.35,743.03,744.94,-408.20,-689.45,8.79,73.34,77.85,-93.54,69.84
7285,765.84,744.34,745.46,743.01,749.66,318.85,-1389.16,771.97,-57.72,-180.15,-92.37,60.00
7320,779.73,745.62,745.47,743.07,753.47,-307.62,-966.31,68.85,-9.83,-49.40,-58.16,46.76
7356,788.99,748.41,745.48,743.35,756.56,-117.68,-961.91,365.23,-60.25,27.79,-65.38,-3.16
7391,798.19,753.78,745.45,744.17,760.40,-144.04,-943.85,189.94,-5.89,-2.15,-14.75,-152.62
7427,804.96,758.32,745.70,745.39,763.59,-88.38,-1011.23,173.34,-0.85,1.69,-11.00,-221.15
7462,809.30,760.82,745.96,746.32,765.60,-45.41,-999.02,238.28,2.15,-10.34,-1.91,-317.83
7498,809.70,763.12,746.07,747.02,766.48,-32.23,-1006.35,244.14,3.05,-9.63,-4.47,-374.53
7533,808.92,764.28,746.15,747.53,766.72,-49.80,-997.56,258.30,8.97,2.50,-1.09,-379.54
7569,807.37,764.43,746.28,747.78,766.47,-37.11,-989.75,252.93,9.71,4.60,1.51,-377.11
7604,805.79,763.82,746.21,748.13,765.98,-61.04,-991.21,237.79,10.45,6.55,-0.21,-365.48
7639,804.27,763.45,746.28,748.37,765.59,-62.01,-973.63,283.20,10.45,6.66,-1.92,-346.68
7675,801.88,764.05,746.26,748.70,765.22,-62.01,-988.28,259.77,2.88,4.71,0.18,-344.83
7710,798.90,765.68,746.36,748.98,764.98,-58.59,-989.75,256.35,1.57,7.32,-2.60,-370.17
7745,796.82,767.71,746.48,749.46,765.12,-74.22,-992.19,268.55,6.10,10.04,0.24,-389.38
7781,794.47,770.47,746.78,750.88,765.65,-61.52,-996.58,273.93,7.68,10.13,-3.91,-390.30
7816,790.51,774.51,747.19,753.72,766.48,-54.69,-991.21,263.67,13.77,7.28,-8.02,-408.81
7852,785.10,779.49,747.90,756.98,767.37,-59.57,-1004.39,290.04,20.75,2.29,-6.63,-476.36
7887,778.84,786.68,748.90,760.66,768.77,-73.73,-980.47,266.60,16.08,9.10,-7.66,-592.62
7929,768.19,800.03,750.92,764.32,770.86,-47.85,-962.40,274.90,30.30,4.47,-14.72,-700.43
7965,757.64,809.96,752.71,766.04,771.59,-64.45,-1006.35,270.51,56.66,-7.66,-15.86,-767.04
8000,749.16,816.59,754.19,766.40,771.58,-5.86,-909.67,417.97,40.56,3.45,-18.80,-804.11
8035,744.05,821.27,755.16,766.46,771.74,-21.00,-920.90,377.93,2.05,-1.75,-17.63,-831.21
8071,741.58,823.14,755.65,766.33,771.67,8.79,-946.29,396.97,-7.60,-9.11,-13.49,-851.80
8106,740.14,823.40,756.09,766.38,771.51,-34.67,-969.24,419.92,-11.99,-7.07,-14.40,-849.56
8141,738.92,823.05,756.80,766.77,771.38,-6.35,-937.01,427.25,-20.77,-17.02,-14.82,-832.15
8176,738.09,821.75,757.88,767.42,771.28,-307.62,146.00,1448.73,-53.94,-16.01,-56.09,-820.23
8211,737.31,819.83,759.14,768.51,771.20,5.37,-917.48,495.12,-18.22,-13.76,-18.92,-785.69
8247,737.00,817.43,760.45,769.41,771.07,62.99,-978.03,390.14,-33.17,-9.47,-23.11,-747.23
8281,736.81,814.34,761.69,769.82,770.66,31.74,-1033.69,369.63,-42.73,-7.42,-29.05,-721.52
8319,736.78,808.63,763.04,769.34,769.45,43.46,-1041.99,389.65,-51.13,-12.31,-51.09,-704.51
8354,736.74,799.79,763.46,767.46,766.86,34.67,-1062.50,352.05,-51.63,-17.26,-76.08,-624.33
8389,736.78,787.70,762.66,764.05,762.80,39.06,-1134.77,322.27,-57.05,-16.50,-113.84,-449.98
8424,736.85,772.65,758.85,758.21,756.64,65.43,-1313.96,212.40,-74.50,-20.53,-175.53,-97.57
8459,736.85,761.65,753.30,752.47,751.07,297.36,-1394.04,206.54,-48.14,-23.64,-228.89,-130.52
8495,736.82,753.01,749.87,746.96,746.67,150.88,-1547.36,119.14,-28.93,-26.61,-250.14,-25.08
8530,736.62,747.90,746.50,743.68,743.67,243.65,-1752.44,12.70,26.03,-5.08,-250.14,42.81
8565,737.08,744.98,745.54,743.33,742.73,-1954.10,-1362.79,119.63,126.99,19.68,-228.18,67.65
8600,737.49,744.23,745.53,743.06,742.58,56.15,42.97,359.86,168.98,109.02,66.04,69.51
8636,736.45,744.05,745.44,743.04,742.24,-414.55,-822.27,-1.95,133.12,103.62,153.18,71.72
8671,736.54,743.69,745.33,742.92,742.12,-260.25,-567.38,-14.65,129.97,87.07,118.33,73.96
8706,736.53,743.55,745.43,742.88,742.10,-269.53,-627.44,22.46,87.82,59.37,192.43,72.91
8742,736.39,743.42,745.40,742.85,742.02,-168.46,-877.93,0.49,17.34,3.24,240.96,73.76
8777,736.29,743.61,745.45,742.90,742.06,45.90,-1164.55,-49.32,-15.15,-55.04,245.18,72.60
8813,736.28,743.83,745.41,742.89,742.10,331.05,-1296.88,-93.75,-17.81,-56.42,233.19,72.12
8848,736.18,744.21,745.40,742.94,742.18,389.65,-1478.03,-157.23,-55.64,-58.36,199.67,70.84
8888,736.21,744.60,745.46,743.01,742.32,624.51,-1605.96,-98.14,-79.76,-42.65,200.11,68.56
8923,736.12,744.83,745.41,743.00,742.34,760.74,-1427.73,137.21,-90.04,-14.18,187.08,68.14
8959,736.02,744.78,745.40,742.83,742.26,938.96,-1674.32,661.13,-61.98,93.01,166.51,67.31
8994,735.90,744.84,745.38,742.97,742.27,1092.29,-1117.19,498.05,-48.03,126.53,88.69,68.29
9029,735.86,744.88,745.37,742.82,742.24,1091.31,-1021.48,631.35,-57.43,82.39,-41.18,67.16
9065,736.38,744.68,745.36,742.98,742.35,914.06,-1831.54,827.15,-15.26,51.98,-109.50,69.28
9100,739.03,745.11,745.28,743.04,743.11,-213.38,-485.35,1041.99,168.76,10.10,-97.94,67.78
9135,776.55,748.31,745.36,743.10,753.33,1584.47,-1324.22,702.64,213.69,-157.02,-223.84,9.81
9171,785.19,754.22,745.59,744.02,757.25,-104.49,-958.98,610.35,77.37,-52.87,-21.40,-119.08
9206,789.84,759.63,746.06,746.69,760.56,-137.21,-1027.83,128.42,26.02,2.88,-13.31,-173.67
9244,800.37,764.06,746.65,750.23,765.33,-116.21,-959.96,357.42,20.56,-4.24,-10.54,-307.63
9279,800.17,768.03,747.09,752.60,766.97,-64.45,-970.21,353.03,13.60,3.34,-7.25,-349.79
9315,796.18,769.79,747.39,754.68,767.01,-46.88,-971.68,320.31,20.24,1.44,-6.25,-351.40
9350,791.41,769.61,747.87,757.30,766.55,-44.43,-953.61,383.30,25.02,-2.48,-4.01,-314.24
9386,785.78,769.22,748.35,759.27,765.66,-25.88,-922.36,420.41,24.92,0.13,-2.98,-247.62
9421,781.42,769.68,748.74,761.06,765.22,-52.25,-935.06,403.32,19.83,2.44,-1.67,-219.41
9456,778.22,771.10,749.50,763.62,765.61,-39.06,-937.01,397.95,13.99,6.89,-3.29,-217.11
9492,775.17,772.34,750.21,766.48,766.05,-65.43,-940.43,430.66,10.47,5.18,-6.79,-279.45
9527,772.44,773.24,751.16,769.93,766.69,-72.75,-938.48,434.57,15.70,-2.89,-1.04,-341.86
9562,769.00,773.59,752.45,774.68,767.43,-32.71,-918.95,439.94,8.34,-0.53,-2.38,-401.85
9598,763.83,774.35,754.33,780.21,768.18,-49.80,-925.78,413.57,5.65,-2.99,-4.68,-433.31
9633,757.11,775.80,756.53,785.88,768.83,-27.83,-912.60,436.04,-2.14,0.67,-6.50,-473.47
9669,749.00,777.57,758.80,790.59,768.99,-34.18,-948.24,436.52,-9.44,1.89,-9.80,-523.27
9704,742.32,778.31,760.88,793.27,768.70,-51.76,-909.67,426.76,-4.98,0.37,-13.55,-570.45
9739,738.48,776.38,762.42,791.76,767.26,-118.65,-1118.16,464.36,4.61,-25.95,-12.79,-523.96
9775,737.27,771.69,763.14,785.74,764.46,-65.92,-965.33,783.69,53.01,-44.69,-42.53,-454.24
9810,737.00,761.33,761.98,777.54,759.46,-138.67,-1270.51,514.16,-27.85,-37.92,-87.37,-203.05
9845,736.87,752.23,758.20,766.47,753.44,-19.04,-1480.47,356.93,-3.76,-26.64,-147.24,-5.81
9880,736.82,748.09,752.49,754.86,748.06,79.10,-1431.64,201.66,27.51,-2.06,-217.69,-70.32
9924,736.64,745.32,747.36,746.23,743.89,81.54,-2000.00,159.67,42.86,53.73,-250.14,56.01
9961,736.40,744.31,745.56,743.86,742.53,-127.93,-1328.13,102.54,108.76,100.92,-250.14,74.43
9997,737.06,743.54,745.41,743.59,742.40,-23.93,-684.08,-334.47,-34.10,124.31,-109.62,77.93
10032,736.54,743.30,745.48,743.67,742.25,-528.32,-513.18,49.32,-59.38,112.15,38.17,78.57
10067,736.54,743.08,745.51,743.52,742.16,-345.70,-345.21,302.25,-84.70,71.84,30.91,78.11
10102,736.53,743.03,745.50,743.42,742.12,-300.29,-591.80,573.73,-108.52,90.63,75.14,77.71
10137,736.43,743.07,745.48,743.45,742.11,-209.96,-598.14,748.05,-93.52,110.33,106.79,78.16
10173,736.44,743.11,745.45,743.40,742.10,-148.93,-719.24,868.65,-96.85,125.41,91.49,78.03
10208,736.34,743.22,745.46,743.34,742.09,-208.98,-997.56,902.83,-87.98,126.22,94.55,77.17
10244,736.25,743.22,745.42,743.37,742.07,-217.77,-1108.89,902.34,-92.62,106.09,124.02,77.88
10279,736.23,743.19,745.38,743.45,742.06,-163.57,-1114.26,896.97,-80.40,74.04,125.96,79.21
10315,736.12,743.22,745.36,743.50,742.05,108.89,-1345.70,1027.34,-72.62,111.67,87.05,79.72
10350,736.10,743.11,745.45,743.50,742.04,161.13,-1092.29,808.59,-22.92,153.84,53.45,78.92
10385,736.20,743.09,745.46,743.58,742.08,183.11,-1053.71,709.96,-35.92,180.56,55.48,79.33
10421,736.14,742.97,745.46,743.63,742.05,187.99,-914.06,719.24,-5.25,178.27,32.55,80.19
10457,736.21,742.89,745.40,743.58,742.02,193.36,-875.49,588.38,13.44,172.02,-8.92,81.07
10492,736.12,742.97,745.42,743.64,742.04,196.78,-842.29,551.76,29.05,157.23,-15.02,80.81
10527,736.33,743.12,745.49,743.36,742.07,264.65,-2000.00,579.59,93.02,97.49,-61.81,77.20
10563,737.60,743.09,745.33,743.28,742.33,-217.29,-799.80,360.35,207.54,72.49,-108.29,78.89
10598,741.58,743.93,745.33,743.08,743.48,-265.14,-1228.03,-363.28,106.10,32.70,-91.02,72.59
10634,768.86,747.29,745.41,743.92,751.37,730.96,-1374.02,-70.80,52.57,-168.20,-6.97,23.38
10669,778.03,752.05,745.65,746.18,755.48,-217.29,-926.76,263.18,-20.79,-79.66,-21.74,-100.08
10705,781.18,756.64,746.43,750.52,758.70,-143.55,-948.73,220.70,-8.06,-14.37,-14.63,-135.79
10740,784.30,761.14,747.47,755.78,762.17,-69.82,-973.14,292.48,12.17,3.13,-14.17,-152.15
10776,786.59,763.93,748.61,759.75,764.72,-56.15,-989.26,231.45,9.22,6.12,-8.31,-165.75
10811,787.93,763.80,749.47,762.15,765.84,-87.40,-1020.51,261.72,17.08,2.40,-3.21,-170.94
10846,786.47,764.23,749.88,763.40,765.99,-68.36,-986.33,297.85,10.85,1.94,-4.76,-187.85
10885,782.81,765.69,749.95,763.07,765.38,-38.57,-975.59,293.46,5.34,7.31,-3.40,-161.82
10921,781.72,767.09,749.77,762.21,765.20,-49.32,-963.87,297.36,4.14,5.66,0.05,-170.20
10956,781.67,767.50,749.79,762.31,765.32,-43.95,-985.35,294.92,3.91,3.27,-0.24,-174.47
10991,782.17,767.65,749.70,762.24,765.44,-63.48,-966.80,281.25,7.12,5.72,-0.87,-177.64
11027,782.90,767.95,749.66,761.81,765.58,-73.24,-979.98,310.06,11.30,7.49,2.29,-187.21
11062,783.91,768.33,749.50,761.58,765.83,-53.71,-969.73,286.13,13.32,5.70,-3.15,-196.65
11098,784.87,768.52,749.48,761.44,766.08,-48.83,-1003.42,308.59,17.36,5.57,-0.63,-203.62
11133,784.88,768.56,749.66,761.48,766.15,84.47,-886.23,478.03,14.51,13.86,-14.70,-203.55
11169,783.37,769.05,750.04,761.92,766.09,-717.77,-1299.80,474.12,34.99,9.89,-28.49,-206.99
11204,781.45,771.18,750.28,761.93,766.21,-166.50,-1077.15,382.81,26.88,-10.76,-31.85,-274.83
11239,779.24,773.17,750.69,762.57,766.42,-86.91,-997.07,390.14,17.36,-0.69,-20.51,-356.11
11275,777.04,773.83,751.34,763.70,766.48,-32.71,-942.87,389.65,16.52,-6.88,-0.77,-372.40
11310,775.42,773.98,751.77,764.84,766.50,-60.55,-962.89,377.44,11.01,-2.73,-0.63,-371.81
11345,773.74,773.62,752.09,765.59,766.26,-62.99,-943.36,401.86,10.83,-3.63,-1.51,-354.62
11380,773.21,772.10,752.14,765.59,765.76,-67.87,-958.50,375.98,11.48,-0.47,-0.02,-317.00
11416,773.75,770.25,752.09,765.63,765.43,-49.32,-944.82,398.44,10.52,-3.50,-0.27,-239.58
11451,774.83,768.59,752.04,765.79,765.31,-47.85,-934.57,393.55,9.19,-0.43,2.06,-210.50
11486,775.74,767.24,752.14,765.91,765.26,-56.64,-932.62,406.25,7.45,0.80,0.64,-216.90
11521,777.23,765.43,751.84,765.72,765.06,-34.67,-927.25,431.64,10.56,-0.12,-0.34,-204.66
11558,779.34,763.71,751.72,766.30,765.27,-71.29,-934.57,399.41,10.02,-1.85,-2.32,-220.61
11594,780.58,762.37,751.61,766.63,765.30,-65.92,-919.92,429.20,9.90,-3.75,2.27,-231.53
11629,782.36,760.83,751.33,766.56,765.27,-38.09,-914.55,444.34,4.95,-1.97,1.41,-249.24
11664,783.26,760.72,751.25,767.30,765.63,-53.71,-910.16,431.15,3.84,3.28,-2.60,-267.77
11699,781.76,761.69,751.61,768.19,765.81,-61.52,-926.76,422.85,3.35,0.35,-2.69,-266.75
11734,780.18,762.50,751.75,769.16,765.90,-37.60,-926.76,442.87,2.64,0.47,-3.96,-269.62
11770,779.00,763.23,751.97,770.41,766.15,-50.78,-931.64,441.41,5.35,1.61,-2.18,-263.97
11805,775.59,765.13,752.79,772.38,766.47,-54.20,-918.46,422.36,3.21,-0.67,-5.06,-298.32
11840,770.36,768.58,753.78,773.85,766.64,-45.90,-910.16,478.03,1.84,2.57,-6.76,-359.73
11882,763.50,773.43,755.21,776.14,767.07,-35.64,-929.69,427.73,-3.11,6.35,-7.50,-389.86
11918,757.26,776.79,756.27,778.20,767.13,-39.06,-926.76,424.32,-8.18,3.12,-5.75,-426.78
11954,751.41,778.49,757.07,779.90,766.72,-60.06,-953.12,362.79,2.93,-3.24,-7.73,-445.63
11990,746.92,778.61,757.23,780.87,765.91,-32.71,-935.06,438.96,9.06,-5.18,-9.22,-446.06
12025,743.27,776.77,757.13,781.00,764.54,-68.36,-1031.74,443.36,14.51,0.47,-15.53,-426.83
12060,740.13,773.22,757.40,779.44,762.55,-38.57,-822.27,608.40,-8.26,-13.46,-20.61,-406.86
12096,737.95,767.76,757.43,776.01,759.79,41.99,-599.12,850.59,37.69,-53.81,-39.67,-352.29
12131,737.19,761.01,756.80,771.07,756.52,-34.18,-1120.61,444.82,-36.05,-35.89,-49.69,-45.00
12167,736.91,753.63,754.90,763.94,752.34,-55.18,-1144.04,479.00,-32.13,-23.76,-79.75,-0.45
12202,736.79,749.12,751.79,754.85,748.14,24.41,-1325.68,335.45,-14.16,-28.22,-120.31,-28.41
12238,736.78,746.65,748.66,748.35,745.11,181.15,-1363.28,225.59,11.89,-24.61,-156.21,36.13
12273,736.64,745.08,746.42,745.03,743.29,95.21,-1595.70,342.77,50.84,6.17,-173.63,65.53
12309,736.32,744.28,745.59,743.96,742.54,150.39,-1229.49,312.01,92.04,17.81,-160.50,74.77
12346,736.30,743.80,745.56,743.81,742.37,378.42,-924.80,340.33,-23.00,-4.32,-70.06,76.29
12382,736.25,743.73,745.50,743.76,742.31,396.97,-1026.86,434.57,-41.13,-28.78,-65.07,77.15
12417,736.25,743.73,745.46,743.67,742.28,601.56,-1009.28,514.16,-35.73,-41.76,-80.70,77.11
12453,736.15,743.75,745.49,743.52,742.23,649.90,-953.61,551.76,-23.08,-35.41,-76.98,75.73
12488,736.14,743.67,745.44,743.50,742.19,621.09,-806.15,535.16,-11.54,-29.25,-79.21,76.60
12523,736.12,743.61,745.51,743.48,742.18,514.65,-636.72,571.29,-7.16,-23.20,-62.08,75.65
12559,736.18,743.58,745.33,743.39,742.12,453.61,-476.56,549.32,1.15,-23.53,-36.41,77.87
12594,736.14,743.56,745.53,743.37,742.15,390.62,-282.71,548.83,1.87,-17.69,-31.73,74.84
12630,736.15,743.46,745.49,743.22,742.08,388.67,-353.52,531.25,21.27,-6.53,5.02,74.73
12665,736.15,743.43,745.41,743.27,742.06,374.02,-338.38,425.29,44.38,16.52,44.55,76.48
12701,736.12,743.32,745.41,743.28,742.03,282.23,-344.73,286.13,58.52,24.39,50.23,77.05
12736,736.21,743.24,745.41,743.25,742.03,254.88,-377.44,293.95,52.73,21.20,68.13,77.15
12772,736.23,743.23,745.39,743.24,742.02,180.18,-322.27,242.19,30.04,3.37,89.87,77.37
12807,736.23,743.16,745.44,743.21,742.01,148.93,-366.21,280.27,3.37,-21.72,106.31,76.83
12843,736.19,743.15,745.43,743.22,741.99,175.29,-488.77,315.43,-6.58,-38.10,118.73,77.08
12882,736.16,743.03,745.38,743.16,741.93,235.84,-592.77,323.73,-39.25,-40.18,113.17,77.90
12918,736.14,742.93,745.41,743.11,741.90,284.67,-786.13,369.63,-24.16,-50.03,101.07,77.59
12953,736.22,742.96,745.46,743.09,741.93,427.25,-807.13,343.75,-5.21,-18.43,131.21,76.58
12989,736.10,743.03,745.34,743.12,741.90,378.42,-701.17,305.66,7.63,-4.85,111.50,78.27
13024,736.18,742.98,745.33,743.13,741.90,312.01,-847.66,342.29,13.47,-13.64,76.87,78.69
13059,736.12,743.12,745.31,743.12,741.92,366.70,-922.36,364.75,30.31,-13.06,109.97,78.30
13094,736.06,743.20,745.32,743.10,741.92,335.45,-1011.72,372.07,34.15,-9.38,130.36,77.68
13130,736.09,743.26,745.39,743.06,741.95,365.72,-1136.23,374.02,37.47,-8.50,98.65,76.16
13167,736.13,743.42,745.37,743.12,742.01,262.21,-1101.56,343.75,25.77,-18.08,79.80,76.20
13202,736.09,743.45,745.35,743.07,741.99,108.89,-1293.95,410.16,28.13,-38.53,87.25,76.02
13237,736.07,743.27,745.39,743.13,741.97,48.83,-1052.25,313.96,27.08,-66.57,94.46,76.62
13273,736.04,743.26,745.34,743.15,741.95,-59.08,-1062.99,331.54,-6.24,-85.01,89.23,77.52
13308,736.04,743.16,745.26,743.16,741.91,15.63,-1280.76,313.96,2.15,-104.69,92.80,79.12
13343,736.08,743.14,745.32,743.09,741.91,181.15,-1048.83,228.03,-11.82,-96.96,60.68,77.85
13378,736.05,743.20,745.34,743.18,741.94,156.74,-1062.99,367.68,-48.83,-46.74,22.85,78.00
13413,736.07,743.28,745.25,743.11,741.93,41.02,-1095.70,509.77,-20.34,-12.69,19.63,78.52
13449,736.02,743.19,745.33,743.16,741.92,-42.97,-995.12,465.82,2.08,-10.50,12.24,78.07
13484,735.95,743.29,745.37,743.12,741.93,-61.52,-926.27,334.96,-7.29,-27.89,-11.98,76.82
13520,736.08,743.37,745.26,743.08,741.95,-145.02,-991.70,238.77,-49.23,-35.15,-26.17,77.79
13555,736.05,743.38,745.37,743.79,742.15,-249.02,-1062.50,151.86,-55.10,-53.56,-28.82,80.30
13590,737.55,745.95,745.38,745.06,743.49,-514.16,-545.41,475.59,31.00,155.44,-20.16,57.14
13626,748.62,751.87,745.84,747.39,748.43,255.86,-597.17,653.32,69.06,11.27,-1.30,-31.36
13661,759.47,759.16,746.23,749.32,753.54,-7.81,-973.14,312.99,26.90,-11.08,-15.25,-120.14
13697,772.27,765.64,746.57,751.12,758.90,-15.14,-929.69,364.26,13.11,1.44,-11.06,-174.03
13732,785.29,771.68,747.03,752.44,764.11,-42.48,-929.69,462.40,3.17,5.03,-8.10,-373.53
13767,789.78,776.71,747.30,753.43,766.80,-48.83,-933.11,465.82,-8.52,10.49,-9.41,-457.02
13803,789.33,778.92,747.49,753.86,767.40,-30.76,-929.20,451.17,-1.35,1.78,-2.69,-483.50
13840,789.39,778.38,747.45,753.98,767.30,-41.99,-908.20,465.82,2.01,-1.98,1.00,-474.78
13881,789.43,777.67,747.52,754.01,767.16,-33.69,-902.83,463.38,-2.99,-1.02,-1.06,-466.50
13916,788.81,777.55,747.74,754.75,767.21,-46.88,-919.43,458.01,-1.85,-0.94,-0.03,-458.08
13951,787.06,778.04,748.06,755.79,767.24,-28.32,-897.95,482.91,0.31,0.57,-4.18,-458.26
13987,785.66,778.70,748.47,757.01,767.46,-39.06,-914.55,450.68,1.61,-1.17,-0.79,-468.83
14022,783.92,779.36,748.78,758.18,767.56,-47.85,-922.85,455.08,0.18,-1.21,0.15,-475.45
14058,783.52,779.36,748.73,757.71,767.33,-35.64,-930.66,444.34,6.20,-4.95,1.05,-477.66
14093,786.12,776.78,748.14,755.96,766.75,-21.00,-887.21,506.35,4.44,-3.21,4.74,-442.05
14128,791.37,773.76,747.57,754.30,766.75,-45.90,-916.50,468.26,-0.62,-7.31,6.60,-394.30
14164,799.14,769.91,747.07,752.67,767.20,-40.04,-915.04,463.38,-2.27,0.52,4.79,-374.72
14199,800.30,767.94,746.94,751.96,766.78,-45.41,-924.32,451.17,0.90,-1.66,1.21,-354.52
14234,795.35,766.35,746.85,751.17,764.93,-27.34,-905.76,483.40,-3.11,1.15,-0.45,-331.15
14270,791.17,764.07,746.61,750.00,762.96,-25.39,-892.58,497.56,-3.96,3.82,-0.41,-249.76
14305,787.80,761.12,746.35,748.30,760.89,-53.22,-920.41,474.61,-14.46,5.83,1.58,-175.98
14341,781.38,757.09,746.02,746.69,757.80,-47.85,-912.11,460.45,-17.06,4.44,4.27,-139.14
14376,772.63,752.78,745.71,745.32,754.11,-62.01,-917.48,437.50,-19.16,1.14,8.68,-74.94
14411,761.89,748.87,745.52,744.15,750.11,-61.04,-918.95,420.41,-29.52,-0.66,10.37,4.59
14447,752.07,746.26,745.48,743.77,746.89,-50.78,-1038.09,388.67,-51.19,-1.41,16.54,56.60
14482,744.34,744.85,745.43,743.67,744.57,-66.41,-938.48,368.65,-20.46,-3.80,28.98,68.16
14517,739.73,744.06,745.46,743.52,743.19,114.75,-987.30,242.68,25.22,-30.94,14.24,73.71
14553,737.84,743.98,745.44,743.49,742.69,71.29,-1041.50,225.59,-13.66,4.14,-5.59,74.62
14588,737.63,743.75,745.43,743.39,742.55,20.51,-959.47,296.39,-13.45,13.27,-26.29,75.18
14624,737.55,743.64,745.37,743.46,742.50,-21.48,-913.09,336.43,-5.50,19.56,-23.22,77.04
14658,737.38,743.49,745.43,743.41,742.43,-129.39,-841.31,356.93,-2.08,9.87,-19.79,76.57
14694,737.31,743.43,745.40,743.43,742.40,-225.10,-792.97,403.32,-18.79,-4.02,-14.18,77.40
14729,737.27,743.64,745.46,743.70,742.52,-623.05,-1452.15,1025.88,110.96,-47.11,-0.74,77.49
14764,737.48,743.83,745.43,744.03,742.69,-359.37,-757.32,572.75,54.02,29.95,19.63,77.46
14801,739.45,744.52,745.54,744.75,743.57,0.49,-999.51,320.80,29.18,21.88,-0.61,73.82
14840,742.96,745.70,745.66,745.37,744.92,-29.79,-962.40,381.35,12.87,14.10,-4.08,62.76
14876,748.60,747.04,745.78,745.94,746.84,-30.76,-919.92,390.62,19.71,3.65,-4.08,38.83
14913,758.57,749.21,746.01,747.26,750.26,-91.80,-921.39,412.11,16.85,3.76,-7.47,-8.73
14948,771.25,752.63,746.24,748.48,754.65,-25.39,-877.93,465.33,20.83,-0.13,-10.09,-81.04
14983,786.14,756.97,746.35,749.21,759.67,-80.08,-937.01,441.41,2.70,5.48,-6.86,-139.75
15019,797.49,760.45,746.62,750.36,763.73,-75.68,-962.89,416.50,4.72,0.96,-3.94,-196.88
15054,802.27,763.25,746.82,751.91,766.06,-60.06,-926.76,460.94,11.45,-2.83,-3.98,-275.23
15091,803.92,764.84,747.06,752.64,767.12,-46.88,-905.27,484.37,5.55,-1.22,-1.02,-322.31
15126,804.01,765.02,747.02,752.39,767.11,-34.18,-899.41,464.84,0.28,-2.75,-3.67,-326.54
15162,803.56,764.89,746.98,752.15,766.89,-40.53,-913.57,465.82,0.95,1.70,-0.55,-325.27
15197,804.02,764.15,746.90,751.32,766.60,-39.55,-903.81,469.24,-0.25,1.36,1.69,-317.60
15233,805.40,763.01,746.71,750.54,766.42,-53.71,-902.83,465.82,-1.63,0.50,-0.59,-304.14
15268,805.72,761.60,746.61,749.87,765.95,-59.08,-938.96,449.71,-3.68,1.96,-0.60,-271.25
15303,804.72,759.97,746.59,749.36,765.16,-59.57,-920.41,457.52,0.54,-1.37,3.91,-231.75
15339,803.26,757.99,746.41,748.60,764.07,-57.62,-913.09,467.29,-0.21,-1.18,2.04,-171.55
15374,801.88,756.28,746.26,748.09,763.13,-47.36,-896.97,464.36,-2.06,-1.37,2.24,-157.02
15410,799.45,754.88,746.20,747.52,762.01,-62.01,-915.53,454.10,-1.46,-0.49,1.33,-150.10
15447,795.00,753.42,746.19,747.10,760.42,-69.82,-911.62,450.68,-4.95,-0.95,4.50,-133.15
15483,790.24,752.19,746.05,746.73,758.80,-57.62,-896.97,479.49,-4.88,-0.34,0.85,-115.87
15518,786.19,751.39,746.01,746.20,757.45,-47.36,-905.76,478.03,-6.37,0.81,2.97,-73.45
15554,782.78,750.63,745.90,745.88,756.30,-53.71,-920.41,450.68,-7.67,2.73,1.44,-48.20
15589,779.38,749.96,745.91,745.65,755.22,-63.96,-908.20,458.01,-3.34,2.60,0.72,-21.94
15625,776.75,749.62,745.86,745.63,754.47,-60.06,-913.57,455.57,-2.21,0.50,-0.15,-16.31
15660,774.10,749.64,745.93,745.93,753.90,-61.04,-909.67,451.66,-0.47,1.92,-3.42,-15.95
15695,771.33,750.08,746.03,746.28,753.43,-56.15,-922.36,458.01,0.79,1.37,-3.05,-20.65
15731,768.54,750.64,746.10,746.76,753.01,-60.06,-921.39,445.80,0.42,3.23,-3.30,-32.30
15766,767.26,751.19,746.12,747.18,752.94,-45.41,-912.60,465.33,3.77,0.38,-2.55,-47.53
15802,766.29,751.77,746.24,747.62,752.98,-56.64,-917.97,445.31,-0.41,0.95,-2.15,-51.94
15837,765.44,752.40,746.31,748.08,753.06,-56.64,-912.60,467.29,1.76,-1.33,-2.63,-58.40
15878,765.02,753.16,746.43,748.42,753.26,-48.34,-905.76,457.03,1.07,-0.79,-2.34,-61.61
15913,765.16,753.48,746.45,748.61,753.43,-36.13,-916.99,477.05,0.79,2.37,-3.11,-65.74
15949,765.53,753.94,746.44,748.76,753.67,-39.55,-923.34,447.27,1.92,1.89,0.18,-73.23
15984,765.90,754.26,746.54,748.93,753.91,-49.32,-910.64,458.50,2.60,-2.11,-1.76,-74.24
16020,766.59,754.50,746.54,748.94,754.14,-47.85,-908.69,463.38,-1.57,-0.06,1.25,-80.84
16055,767.67,754.76,746.53,749.01,754.49,-51.27,-910.16,454.59,-0.40,0.56,-0.44,-88.41
16090,769.32,754.84,746.49,748.96,754.90,-51.27,-917.48,451.17,1.57,0.89,-2.36,-95.87
16126,770.96,755.05,746.51,748.99,755.38,-59.08,-901.86,448.73,-0.02,1.73,-3.42,-100.88
16161,772.54,755.18,746.45,748.98,755.79,-52.73,-897.46,457.03,0.23,0.85,0.53,-107.98
16196,774.20,755.28,746.48,748.93,756.22,-48.83,-914.55,465.33,0.86,0.24,0.49,-111.30
16232,775.91,755.26,746.39,748.62,756.55,-59.57,-923.34,450.68,-0.93,-1.82,1.24,-115.38
16267,778.06,755.15,746.45,748.58,757.06,-65.92,-913.09,467.29,1.50,-0.21,1.23,-116.14
16302,779.96,755.00,746.35,748.60,757.48,-44.43,-916.50,457.52,0.21,1.73,-0.02,-123.84
16338,780.85,754.59,746.41,748.58,757.61,-44.43,-896.48,467.77,1.24,0.46,0.69,-120.01
16373,781.30,754.32,746.36,748.48,757.62,-62.99,-908.20,458.50,0.21,2.98,-0.46,-119.61
16408,781.48,754.11,746.49,748.41,757.62,-43.95,-906.25,471.19,0.18,-2.05,-1.32,-111.14
16444,781.49,753.74,746.44,748.37,757.51,-56.15,-926.27,467.29,-1.25,1.97,0.45,-109.03
16481,781.12,753.52,746.35,748.34,757.33,-50.78,-914.55,468.26,2.24,-0.73,0.09,-109.15
16516,780.54,753.13,746.33,748.08,757.02,-51.27,-920.90,466.80,0.85,-1.07,-4.50,-102.35
16551,779.90,752.87,746.35,747.90,756.75,-50.29,-904.30,455.08,-0.29,0.92,-0.38,-95.69
16586,779.28,752.44,746.32,747.77,756.45,-46.39,-908.69,468.75,-0.31,1.31,-0.70,-87.34
16621,779.38,752.14,746.22,747.53,756.32,-39.55,-903.32,462.89,-2.41,-0.16,-1.82,-83.69
16657,779.60,751.86,746.22,747.38,756.27,-65.43,-916.50,451.66,-0.56,1.69,-1.66,-76.30
16692,779.81,751.83,746.28,747.15,756.27,-40.53,-903.32,458.01,-2.85,2.15,-1.16,-66.30
16727,780.46,751.98,746.21,746.92,756.39,-72.27,-889.16,472.17,-3.02,5.40,-4.69,-75.19
16762,781.68,752.51,746.17,746.75,756.78,-64.94,-922.85,430.18,-3.15,6.93,-3.56,-90.02
16798,783.53,753.10,746.14,746.56,757.33,-65.92,-919.43,460.45,-7.37,6.36,-4.47,-105.77
16837,785.56,753.65,746.08,746.52,757.95,-104.49,-926.27,428.22,-6.24,3.18,-3.41,-114.11
16873,785.77,754.07,746.09,746.49,758.11,-63.96,-916.02,459.96,-2.84,3.97,-1.69,-116.71
16908,784.56,754.67,746.04,746.60,757.97,-46.39,-911.13,436.52,-5.27,5.19,-3.98,-121.22
16943,785.39,755.77,746.09,746.74,758.50,-80.08,-929.69,419.43,-0.70,2.40,-3.22,-133.08
16979,784.51,756.36,746.15,746.92,758.48,-81.54,-910.64,465.33,-3.58,1.05,-2.96,-135.64
17014,781.43,756.46,746.21,747.38,757.87,-78.61,-924.32,441.41,0.05,-3.39,1.25,-130.25
17049,779.64,757.33,746.25,747.76,757.74,-63.48,-911.13,451.17,0.99,1.41,-2.82,-135.83
17085,777.62,758.45,746.19,747.79,757.51,-43.46,-900.39,477.05,-5.66,3.42,-5.92,-144.16
17120,774.77,760.45,746.36,748.51,757.52,-79.59,-921.87,416.02,-3.93,1.45,-5.85,-143.84
17156,773.96,762.43,746.52,749.05,757.99,-47.36,-915.04,468.75,4.47,2.06,-0.08,-146.93
17191,773.45,763.18,746.52,748.91,758.01,-42.97,-929.69,460.45,6.12,1.31,-1.74,-153.95
17226,774.01,762.46,746.48,748.53,757.87,-58.59,-944.34,422.36,1.74,-0.44,1.90,-149.72
17262,776.56,761.10,746.36,747.75,757.94,-42.48,-898.93,474.61,0.41,-2.19,1.05,-151.41
17297,780.34,759.61,746.13,746.65,758.18,-49.80,-900.39,470.21,-3.11,-4.40,0.58,-158.73
17332,783.17,758.15,745.98,745.80,758.27,-48.83,-918.95,447.75,-9.71,0.82,-0.52,-151.24
17368,786.60,756.72,745.81,744.75,758.47,-38.57,-893.55,491.21,-10.07,5.37,1.23,-144.97
17403,789.63,755.46,745.61,744.04,758.68,-77.15,-921.39,416.50,-12.78,4.78,0.18,-142.74
17438,791.96,754.57,745.62,743.79,758.99,-54.20,-907.71,435.06,-10.22,2.38,1.76,-137.74
17474,794.96,753.53,745.52,743.47,759.37,-26.37,-893.55,463.38,-12.64,3.50,2.07,-137.94
17509,798.07,752.42,745.51,743.36,759.84,-74.71,-952.15,370.61,-10.90,-1.74,3.98,-131.65
17545,802.05,751.82,745.48,743.32,760.67,-52.73,-935.06,418.95,-4.27,-5.21,0.99,-138.49
17580,804.66,750.34,745.37,743.20,760.89,-62.01,-955.08,388.18,-9.17,-6.37,6.71,-90.05
17615,807.06,749.34,745.44,743.19,761.26,-72.75,-925.78,416.02,-9.25,-1.79,7.56,-52.62
17651,809.80,749.02,745.44,743.16,761.86,-52.25,-922.36,414.06,-7.76,0.37,4.81,-48.27
17686,811.24,748.84,745.34,743.23,762.16,-85.45,-944.82,383.79,-10.21,2.87,4.15,-53.00
17722,812.97,748.68,745.38,743.21,762.56,-83.98,-952.64,374.02,-10.06,3.97,0.40,-49.07
17757,814.50,748.72,745.30,743.20,762.93,-72.75,-939.45,390.62,-9.69,3.66,-1.66,-59.76
17792,814.82,748.68,745.34,743.25,763.02,-70.80,-938.96,386.72,-12.66,-1.24,1.31,-55.94
17828,812.95,748.47,745.41,743.33,762.54,-77.64,-943.36,402.34,-12.91,1.03,0.55,-43.00
17870,806.48,747.89,745.42,743.23,760.76,-59.57,-941.41,390.62,-24.91,2.75,8.34,-16.02
17905,795.01,747.42,745.32,743.18,757.74,-175.29,-941.41,282.71,-5.02,2.03,-6.31,3.94
17940,783.31,747.36,745.35,742.98,754.75,-47.85,-949.71,337.89,7.06,-0.72,-8.45,22.72
17975,775.47,747.07,745.38,743.03,752.74,-90.82,-938.48,340.82,3.06,-1.74,0.48,30.05
18010,769.33,747.14,745.45,742.90,751.21,-72.75,-976.07,330.57,16.56,-3.52,-5.92,33.58
18045,764.63,747.22,745.49,743.01,750.09,-76.66,-955.08,370.12,16.24,-0.76,-5.89,38.90
18080,761.33,747.10,745.41,743.05,749.22,-57.13,-915.04,413.57,2.47,1.00,-2.52,40.98
18118,758.78,746.91,745.46,743.08,748.56,-64.45,-952.15,375.00,-9.56,1.91,-1.82,48.11
18153,756.92,746.95,745.37,743.08,748.08,-70.31,-961.91,363.77,-8.08,4.38,-3.95,46.30
18188,755.48,746.98,745.42,743.21,747.77,-58.11,-944.82,372.56,-5.15,3.96,-1.73,47.40
18223,754.41,747.02,745.38,743.25,747.51,-68.85,-957.03,341.31,-8.23,4.81,-1.50,46.37
18258,753.46,746.87,745.40,743.28,747.25,-74.71,-960.94,347.66,-4.98,0.85,-0.05,49.39
18293,752.88,746.85,745.37,743.29,747.10,-74.22,-958.50,349.12,-1.14,1.26,-2.73,49.28
18329,752.40,746.80,745.32,743.38,746.97,-70.31,-956.05,363.28,2.97,-2.39,-0.89,48.05
18364,752.03,746.71,745.39,743.37,746.88,-69.82,-944.82,361.33,0.84,-0.53,0.19,51.56
18399,751.56,746.63,745.42,743.34,746.74,-65.92,-941.41,372.07,0.68,0.34,-1.47,53.80
18435,750.80,746.56,745.35,743.43,746.53,-72.75,-946.78,362.79,-0.62,0.09,-0.29,52.51
18470,750.36,746.57,745.44,743.37,746.43,-60.55,-948.73,359.86,0.94,-0.12,-1.05,54.69
18508,750.13,746.55,745.38,743.41,746.37,-62.50,-960.94,361.33,-0.11,-1.63,-0.13,54.21
18543,749.86,746.52,745.39,743.38,746.28,-59.57,-950.20,362.30,0.63,3.02,0.61,55.33
18579,749.46,746.47,745.35,743.35,746.16,-74.22,-955.57,358.40,0.11,1.05,-0.42,55.29
18614,749.45,746.63,745.40,743.39,746.22,-84.96,-952.64,362.79,0.13,-1.54,-1.79,54.71
18650,749.31,746.61,745.35,743.42,746.17,-71.29,-954.10,358.89,-3.29,0.48,-2.54,53.33
18685,748.93,746.64,745.33,743.47,746.10,-68.85,-957.52,357.91,-0.54,2.17,-0.41,52.27
18720,748.98,746.69,745.44,743.37,746.12,-63.48,-962.89,356.45,0.09,2.82,-0.44,54.55
18756,748.75,746.66,745.30,743.48,746.05,-72.27,-960.94,356.45,-0.84,1.69,-1.00,51.19
18791,748.64,746.69,745.30,743.47,746.02,-64.94,-947.75,341.80,-0.36,2.04,1.26,50.80
18829,748.71,746.74,745.41,743.43,746.07,-57.13,-956.54,351.07,-0.26,0.56,-1.92,53.69
18865,748.61,746.77,745.35,743.45,746.04,-67.87,-952.64,352.05,-0.24,-1.39,-2.26,51.54
18900,748.53,746.82,745.39,743.45,746.05,-68.36,-955.57,353.52,-0.81,1.95,0.69,52.35
18935,748.56,746.90,745.48,743.43,746.09,-54.20,-952.64,356.45,0.53,2.44,0.58,53.51
18971,748.48,746.93,745.37,743.46,746.06,-64.94,-964.36,356.45,0.60,0.76,-0.05,50.25
19006,748.48,746.85,745.37,743.50,746.05,-67.38,-941.41,356.93,-1.92,1.50,-1.36,51.03
19042,748.34,746.95,745.43,743.44,746.04,-68.36,-967.29,357.42,-2.73,0.58,-1.70,51.86
19077,748.27,746.96,745.37,743.45,746.01,-61.52,-964.84,369.14,0.33,2.53,0.86,50.15
19112,748.35,746.92,745.32,743.55,746.04,-63.96,-963.87,349.12,-0.04,1.53,-2.05,48.38
19148,748.29,746.93,745.34,743.49,746.01,-78.12,-961.43,353.03,1.25,1.25,-1.13,49.28
19183,748.30,746.99,745.36,743.49,746.04,-64.94,-956.54,348.63,-0.03,-0.24,-1.11,49.15
19219,748.22,747.01,745.34,743.45,746.00,-69.82,-951.17,359.37,-0.60,1.21,-1.58,48.88
19254,748.26,747.04,745.38,743.54,746.05,-70.31,-955.08,345.70,-1.39,0.98,-0.84,48.72
19289,748.29,747.10,745.44,743.51,746.08,-75.20,-966.80,345.21,0.14,4.01,-0.89,49.96
19325,748.25,747.07,745.40,743.49,746.05,-66.41,-952.64,353.03,-1.19,0.96,0.48,49.54
19360,748.24,746.99,745.36,743.43,746.01,-73.73,-962.89,351.07,0.27,0.89,1.55,49.69
19396,748.32,747.07,745.45,743.54,746.10,-74.22,-952.15,348.14,-0.92,-1.67,0.98,50.33
19431,748.29,747.03,745.42,743.48,746.06,-69.34,-965.82,353.52,-2.40,0.17,-0.18,50.47
19467,748.26,747.03,745.44,743.53,746.06,-74.22,-957.03,352.54,-1.74,1.76,-0.18,50.83
19502,748.14,746.99,745.39,743.44,745.99,-60.06,-964.36,349.61,0.50,-0.41,1.50,50.42
19537,748.01,746.99,745.37,743.44,745.95,-56.15,-960.94,347.66,-0.78,0.40,-1.37,50.25
19573,747.94,746.98,745.37,743.50,745.95,-66.41,-962.40,348.14,-1.84,-1.87,-1.59,49.64
19608,747.86,746.97,745.44,743.50,745.94,-69.82,-957.52,357.42,0.71,1.44,-0.63,52.14
19643,747.80,746.90,745.43,743.47,745.90,-67.87,-957.03,362.30,1.98,1.92,-0.83,52.98
19679,747.78,746.87,745.35,743.45,745.86,-58.11,-966.31,354.00,1.61,0.89,0.40,50.88
19714,747.82,746.87,745.42,743.51,745.91,-60.06,-962.40,348.14,3.56,-3.05,-0.21,52.74
19749,747.74,746.90,745.40,743.52,745.89,-68.36,-966.80,365.72,-0.11,-0.77,-1.20,51.57
19787,747.66,746.91,745.41,743.47,745.86,-68.36,-972.17,342.29,-0.67,0.73,1.14,52.23
19828,747.70,746.90,745.45,743.45,745.87,-64.94,-963.38,353.03,-0.75,0.02,-0.31,53.62
19863,747.67,746.82,745.42,743.48,745.85,-61.52,-954.59,350.59,-3.24,1.15,-2.30,53.66
19899,747.59,746.81,745.36,743.52,745.82,-62.99,-955.08,341.80,-1.00,-2.37,-1.76,51.79
19934,747.57,746.74,745.42,743.49,745.81,-65.43,-953.12,348.14,-1.69,-0.39,0.34,54.61
19970,747.57,746.80,745.42,743.42,745.80,-71.29,-956.54,342.29,0.08,-0.31,-1.62,54.35
20005,747.53,746.73,745.33,743.43,745.76,-67.87,-963.87,345.21,0.21,1.17,2.60,52.38
20041,747.46,746.74,745.38,743.51,745.77,-58.59,-957.03,360.35,-0.60,-0.11,1.17,53.32
20076,747.47,746.78,745.40,743.54,745.80,-61.52,-956.54,353.52,1.31,1.14,-2.24,53.20
20112,747.39,746.71,745.41,743.49,745.75,-71.29,-957.52,351.56,-0.75,-1.03,-1.41,54.67
20147,747.35,746.72,745.38,743.52,745.74,-59.57,-949.22,347.66,-0.98,-0.19,-1.24,53.56
20182,747.28,746.70,745.40,743.47,745.71,-71.78,-952.64,341.80,0.02,-0.21,-1.63,54.72
20218,747.26,746.61,745.37,743.52,745.69,-54.20,-958.50,349.12,0.02,-1.89,1.15,54.69
20254,747.15,746.64,745.39,743.50,745.67,-58.11,-961.91,357.91,-0.70,2.32,-2.32,55.28
20289,747.17,746.59,745.42,743.51,745.67,-62.99,-953.12,361.33,-0.11,-2.01,-1.25,56.18
20324,747.05,746.57,745.45,743.54,745.65,-60.55,-951.17,351.56,-1.92,-0.69,-1.57,56.39
20360,747.03,746.45,745.41,743.44,745.58,-70.80,-960.45,354.98,2.39,-2.53,0.56,57.00
20395,747.12,746.37,745.38,743.50,745.59,-68.36,-965.82,354.49,1.44,-2.09,-0.27,57.63
20431,746.99,746.35,745.36,743.44,745.53,-76.66,-949.71,352.54,0.64,-1.18,1.05,57.71
20466,747.07,746.31,745.48,743.41,745.57,-76.66,-942.87,336.91,-0.04,-0.99,-0.79,57.71
20502,747.14,746.18,745.45,743.45,745.56,-59.57,-965.33,359.86,0.22,2.66,0.85,58.56
20537,747.11,746.18,745.44,743.48,745.55,-63.48,-948.24,350.10,0.11,1.65,-3.24,58.66
20573,747.18,746.21,745.39,743.47,745.56,-66.89,-953.12,341.31,-1.86,1.45,-2.52,58.52
20608,747.20,746.31,745.45,743.50,745.61,-55.18,-961.91,356.93,-0.07,-2.15,-0.08,57.89
20643,747.30,746.34,745.41,743.47,745.63,-61.04,-961.43,354.98,0.02,1.21,-0.28,57.62
20679,747.39,746.46,745.42,743.53,745.70,-83.01,-955.08,359.86,-1.04,0.84,0.15,56.96
20714,747.58,746.63,745.46,743.57,745.81,-59.57,-952.64,359.86,0.19,-0.89,1.24,55.88
20750,747.59,746.85,745.46,743.54,745.86,-57.13,-958.50,357.42,-1.59,0.79,-2.33,54.09
20785,747.58,746.90,745.46,743.63,745.89,-55.66,-961.43,352.05,-1.20,1.95,1.29,52.80
20825,747.65,746.96,745.46,743.65,745.93,-62.50,-949.71,355.96,2.66,-1.47,1.34,51.90
20861,747.65,747.06,745.43,743.68,745.96,-67.87,-956.54,362.30,2.57,1.18,-1.34,49.47
20898,747.80,747.04,745.42,743.67,745.98,-83.50,-951.66,361.82,1.83,0.56,-0.74,49.20
20933,747.93,747.08,745.45,743.63,746.02,-60.55,-953.61,365.23,0.06,1.60,-1.57,49.91
20969,748.03,747.14,745.48,743.65,746.08,-61.04,-951.66,363.77,0.53,-0.97,0.33,49.89
21004,748.17,747.23,745.48,743.62,746.12,-63.96,-955.57,348.14,-1.16,0.89,1.27,49.02
21039,748.15,747.25,745.42,743.64,746.12,-69.82,-957.03,365.72,-1.66,2.82,0.76,46.86
21075,748.19,747.28,745.42,743.62,746.13,-62.50,-947.75,352.05,-1.34,-0.35,0.22,46.60
21110,748.29,747.36,745.42,743.66,746.18,-62.99,-958.50,354.00,-0.11,-0.92,-1.17,45.33
21146,748.38,747.36,745.46,743.54,746.18,-75.20,-957.03,365.72,0.37,1.32,-3.88,47.14
21181,748.48,747.30,745.46,743.55,746.20,-69.82,-944.82,364.26,0.69,-1.58,-1.09,47.65
21216,748.58,747.35,745.38,743.64,746.24,-72.75,-959.47,362.30,-0.85,0.42,-0.21,44.05
21252,748.59,747.42,745.45,743.57,746.26,-72.27,-962.89,340.82,-0.79,0.73,-2.47,45.81
21287,748.65,747.47,745.36,743.61,746.27,-58.11,-960.94,364.26,-1.11,1.09,-0.15,42.25
21322,748.60,747.46,745.39,743.55,746.25,-71.29,-955.08,354.00,-0.23,0.02,0.73,43.49
21357,748.65,747.45,745.47,743.54,746.28,-77.64,-954.59,361.33,-1.45,0.57,1.89,46.17
21392,748.70,747.42,745.45,743.56,746.28,-64.45,-944.82,350.59,-1.18,2.48,-1.66,45.87
21428,748.75,747.48,745.41,743.55,746.30,-64.94,-959.47,358.89,-0.16,1.77,0.56,43.79
21463,748.71,747.44,745.37,743.54,746.26,-68.36,-946.29,348.63,-1.34,1.18,-1.04,43.22
21500,748.70,747.45,745.39,743.50,746.26,-63.96,-957.52,354.00,-0.56,-1.68,-0.81,43.93
21535,748.76,747.46,745.51,743.60,746.34,-63.96,-961.43,353.52,0.89,-0.14,-1.99,46.74
21570,748.78,747.45,745.46,743.56,746.31,-71.78,-960.94,352.05,-0.07,-0.09,-0.70,45.71
21608,748.83,747.36,745.46,743.62,746.32,-66.89,-963.87,338.87,-0.34,-0.89,-0.37,46.31
21643,748.88,747.38,745.50,743.59,746.34,-70.31,-955.57,354.00,0.01,0.34,-0.17,47.48
21678,748.81,747.40,745.48,743.61,746.33,-67.87,-953.12,354.49,1.50,-2.19,-2.89,46.55
21713,748.90,747.38,745.45,743.59,746.33,-67.87,-949.22,360.35,0.03,-0.33,-1.71,45.76
21748,748.98,747.41,745.50,743.68,746.39,-64.94,-956.05,360.84,1.85,-2.50,-0.94,46.07
21784,748.98,747.47,745.39,743.61,746.36,-76.66,-942.87,351.56,1.03,0.34,0.38,42.95
21824,749.01,747.41,745.38,743.62,746.36,-58.11,-957.03,364.75,2.27,0.47,-0.03,43.23
21860,748.97,747.44,745.50,743.68,746.40,-69.34,-939.45,361.82,-1.04,0.67,0.10,45.93
21895,749.02,747.44,745.44,743.59,746.37,-67.38,-958.98,358.89,0.22,0.98,-0.63,44.91
21931,748.99,747.46,745.44,743.62,746.38,-61.52,-951.17,360.84,-3.22,0.56,-2.37,44.41
21966,748.99,747.39,745.45,743.64,746.37,-56.64,-944.82,373.05,-0.17,1.02,-1.53,45.44
22001,748.96,747.42,745.42,743.63,746.36,-64.45,-953.61,360.84,-0.29,0.99,0.47,44.13
22037,749.00,747.46,745.44,743.56,746.36,-80.08,-961.43,357.42,0.92,2.22,0.79,44.79
22072,749.05,747.36,745.40,743.55,746.34,-65.92,-958.98,368.16,-1.97,2.43,-0.18,44.75
22108,749.09,747.28,745.41,743.55,746.33,-62.01,-960.45,357.42,-1.30,1.23,0.03,46.00
22143,749.05,747.32,745.36,743.53,746.32,-68.36,-949.71,342.77,-1.27,-1.35,-1.89,44.43
22178,749.07,747.29,745.41,743.52,746.32,-61.52,-955.08,344.73,-2.59,2.08,1.07,46.12
22214,749.16,747.28,745.38,743.49,746.33,-61.04,-965.82,343.75,-0.55,1.26,-1.50,45.54
22249,749.34,747.18,745.37,743.31,746.30,-60.55,-954.10,357.42,-2.48,3.60,-1.85,47.67
22284,749.66,746.96,745.34,743.28,746.31,-68.85,-950.68,362.30,-2.74,4.18,1.30,49.62
22320,750.04,746.67,745.39,743.24,746.34,-43.95,-978.03,346.68,2.88,5.55,-1.18,54.04
22355,750.36,746.55,745.39,743.31,746.40,-95.70,-944.34,341.31,5.34,10.92,-4.23,54.80
22390,750.56,746.44,745.38,743.33,746.43,-115.72,-972.66,332.52,4.60,5.30,-1.08,55.39
22426,750.57,746.58,745.39,743.41,746.49,-78.61,-955.08,371.58,4.48,-2.45,-0.45,53.84
22461,750.45,746.61,745.35,743.51,746.48,-72.75,-946.78,382.32,3.84,-0.29,-1.86,51.76
22497,750.18,746.66,745.39,743.51,746.43,-61.04,-949.71,352.54,3.38,-2.53,-2.50,52.59
22532,750.03,746.66,745.46,743.53,746.42,-69.34,-948.73,366.70,-0.18,2.91,-2.02,54.40
22567,749.93,746.66,745.47,743.51,746.39,-62.01,-948.24,368.16,-0.44,0.62,0.56,54.59
22603,749.93,746.73,745.36,743.47,746.37,-75.20,-950.68,374.02,-2.46,2.40,1.61,51.28
22638,749.99,746.66,745.37,743.37,746.35,-78.12,-948.73,359.86,-2.23,0.31,-0.05,53.12
22673,750.21,746.47,745.43,743.28,746.35,-62.50,-937.01,373.54,-1.15,-1.09,1.10,55.22
22709,750.52,746.13,745.45,743.23,746.33,-76.17,-937.01,353.52,1.95,5.32,1.02,57.03
22744,750.68,746.01,745.39,743.19,746.32,-40.53,-943.36,377.44,0.61,4.63,-1.90,57.72
22780,750.95,745.71,745.37,743.09,746.28,-40.04,-960.94,365.72,-0.53,5.58,-1.72,59.27
22819,751.40,745.52,745.38,743.03,746.33,-92.29,-946.29,364.26,-0.77,9.53,0.34,60.10
22857,752.43,745.44,745.36,742.91,746.54,-80.08,-953.61,346.68,-2.59,-0.89,5.85,59.89
22892,754.44,745.36,745.40,742.96,747.04,-78.61,-948.73,355.96,-1.11,-3.56,6.40,59.56
22928,758.47,745.37,745.37,742.83,748.01,-81.54,-962.89,347.17,5.39,-5.92,4.80,57.89
22963,764.74,745.53,745.40,742.86,749.63,-128.91,-939.94,350.10,18.49,-10.82,5.33,53.53
22998,772.57,745.71,745.28,742.88,751.61,-62.50,-950.20,391.60,16.21,-14.58,2.53,46.78
23034,778.70,746.00,745.32,742.83,753.21,-62.99,-943.85,424.80,18.37,-15.69,-0.02,44.70
23069,783.02,746.05,745.33,742.82,754.31,-65.43,-937.01,417.97,10.09,-5.48,0.42,44.15
23104,785.65,746.14,745.37,742.83,755.00,-87.89,-932.62,408.20,9.60,0.10,-2.98,42.33
23140,787.53,746.18,745.28,742.73,755.43,-118.16,-1026.86,402.34,22.78,-5.36,-1.61,39.18
23177,788.35,746.19,745.38,742.75,755.67,-69.82,-928.22,409.18,0.63,-0.62,-1.02,40.84
23212,788.61,746.10,745.33,742.84,755.72,-81.54,-928.71,445.80,2.32,-3.59,2.25,40.63
23247,788.54,746.15,745.34,742.75,755.70,-79.10,-912.60,421.87,6.05,-5.26,2.08,40.63
23283,789.08,746.04,745.40,742.76,755.82,-71.29,-956.05,417.97,5.18,-6.33,1.07,42.24
23318,789.57,745.98,745.30,742.75,755.90,-52.73,-921.39,463.38,1.38,-6.15,4.47,40.89
23353,789.67,745.84,745.39,742.74,755.91,-103.52,-914.06,421.39,6.96,-3.48,3.56,43.75
23388,789.57,745.77,745.31,742.74,755.85,-87.40,-896.48,458.50,5.74,1.12,-0.93,43.21
23423,789.91,745.82,745.34,742.74,755.95,-57.62,-932.13,455.57,1.07,1.39,-0.88,42.95
23459,789.88,745.78,745.33,742.73,755.93,-84.96,-911.13,443.85,-3.97,2.51,-2.46,43.17
23494,790.11,745.96,745.34,742.77,756.04,-64.45,-933.59,431.64,-2.13,2.92,-6.06,41.49
23530,791.35,746.27,745.40,742.81,756.46,-67.38,-938.48,432.13,0.41,-0.33,-7.63,38.12
23565,792.45,746.37,745.34,742.73,756.72,-62.50,-916.99,444.34,-4.10,2.08,-1.55,35.73
23600,793.12,746.43,745.34,742.77,756.92,-60.06,-913.57,448.24,-2.98,-0.21,-0.75,34.14
23636,793.48,746.47,745.32,742.75,757.01,-37.60,-919.43,442.87,-1.95,1.23,-1.23,31.82
23671,794.01,746.47,745.44,742.76,757.17,-65.92,-922.85,461.43,-7.82,2.36,-1.71,34.90
23707,794.18,746.40,745.38,742.79,757.19,-72.27,-936.04,437.99,-10.55,3.93,-1.73,34.59
23742,794.61,746.38,745.32,742.88,757.30,-50.78,-940.43,416.99,-13.91,4.18,-0.38,30.90
23777,794.89,746.14,745.26,742.90,757.30,-59.57,-946.78,399.90,-23.63,1.41,5.37,32.92
23819,793.19,745.81,745.27,742.92,756.80,-85.45,-952.64,405.76,-28.66,2.98,7.08,39.55
23855,791.08,745.73,745.37,742.96,756.29,-113.77,-944.34,367.19,-13.45,2.74,3.76,43.35
23890,786.22,745.31,745.32,742.89,754.94,-61.52,-957.52,420.90,-17.24,6.88,7.89,47.95
23925,776.08,744.88,745.36,742.85,752.29,-121.58,-896.97,352.54,-21.54,5.02,7.78,51.18
23961,764.31,744.72,745.36,742.82,749.30,-230.96,-908.69,275.88,4.27,7.21,-27.60,58.62
23997,757.10,744.97,745.36,742.77,747.55,9.28,-1035.16,293.95,-1.85,-2.93,-17.31,60.62
24033,752.38,744.76,745.34,742.87,746.34,-117.19,-942.87,315.43,-26.44,10.95,12.11,63.89
24068,747.99,744.60,745.29,742.87,745.19,-155.27,-1001.95,292.97,-29.77,8.87,6.07,66.77
24104,746.02,744.61,745.23,742.86,744.68,-83.98,-959.47,342.77,2.15,-1.44,-11.66,67.64
24139,746.14,744.67,745.32,742.89,744.76,-41.50,-968.75,346.68,-6.11,3.89,3.09,66.75
24175,745.49,744.65,745.38,742.90,744.61,-164.06,-933.59,283.69,-0.78,3.35,-5.65,66.22
24210,745.37,744.72,745.32,742.87,744.57,-96.68,-1000.00,294.92,11.72,-4.79,-14.24,66.56
24245,744.94,744.76,745.33,742.88,744.48,-27.34,-953.12,363.28,1.49,-1.99,-4.81,66.46
24281,744.63,744.73,745.36,742.89,744.40,-62.01,-956.05,343.75,-1.24,-0.32,1.82,66.35
24316,744.59,744.58,745.20,742.86,744.31,-54.69,-955.57,333.01,0.54,0.27,-1.50,68.44
24352,744.41,744.46,745.33,743.00,744.30,-93.75,-966.31,338.38,1.15,1.01,0.35,68.83
24387,744.46,744.50,745.38,742.97,744.33,-83.50,-958.50,324.22,1.71,2.75,-2.13,67.67
24423,744.20,744.55,745.35,743.10,744.30,-74.71,-979.00,335.45,0.19,1.30,-1.90,68.83
24458,743.74,744.57,745.35,743.13,744.20,-69.34,-956.54,299.80,0.21,-0.50,-2.51,69.07
24494,743.63,744.61,745.44,743.13,744.20,-88.38,-973.14,332.03,1.45,-1.61,-1.10,67.61
24529,743.26,744.66,745.32,743.19,744.11,-63.96,-958.98,351.07,-4.64,0.53,-2.82,68.95
24565,742.56,744.52,745.33,743.26,743.92,-69.82,-966.80,344.24,-4.93,2.53,-3.38,70.13
24600,742.02,744.45,745.31,743.18,743.74,-82.03,-973.63,318.85,-3.78,4.53,-2.39,70.61
24635,741.36,744.25,745.39,743.19,743.55,-73.73,-966.80,296.87,-3.72,10.92,-9.03,71.10
24670,740.62,744.01,745.31,743.25,743.30,-91.31,-934.57,353.03,-11.24,24.42,-10.31,73.89
24708,740.11,743.83,745.36,743.23,743.13,-61.52,-952.64,308.11,-10.59,11.92,-6.56,74.10
24743,739.94,743.68,745.31,743.21,743.03,-1.95,-986.82,228.03,9.33,-3.21,0.69,75.36
24778,739.93,743.78,745.26,743.24,743.05,-58.11,-984.37,275.88,18.79,6.28,3.26,75.55
24818,740.41,743.70,745.35,743.20,743.17,-62.01,-923.83,405.76,8.42,-11.27,-2.73,74.52
24858,740.24,743.71,745.34,743.30,743.15,-70.31,-971.19,314.45,-0.27,-2.34,2.47,75.33
24893,740.36,743.74,745.33,743.32,743.19,-77.15,-958.50,320.31,5.34,2.09,-4.08,75.46
24928,740.65,743.84,745.32,743.40,743.30,-77.15,-955.57,336.43,5.08,-0.18,0.81,75.12
24963,740.86,744.04,745.43,743.39,743.43,-66.41,-959.47,333.98,7.19,-0.95,-1.70,72.92
24998,741.65,744.35,745.45,743.63,743.77,-53.71,-954.59,354.49,15.55,2.56,-3.29,71.95
25033,742.87,744.83,745.43,743.80,744.23,-91.80,-962.40,366.70,15.23,-0.90,0.56,69.12
25068,743.38,745.19,745.46,743.98,744.50,-63.48,-954.10,352.54,7.66,-2.79,-2.53,67.20
25104,743.87,745.75,745.54,744.22,744.84,-69.82,-944.82,374.51,9.98,-1.19,-0.25,63.99
25139,744.53,746.10,745.59,744.38,745.15,-57.13,-943.36,384.28,8.00,-2.50,1.27,61.86
25175,745.13,746.54,745.56,744.49,745.43,-73.24,-933.59,390.62,6.96,0.65,-0.37,55.56
25210,745.50,747.00,745.60,744.80,745.73,-58.59,-934.57,390.14,5.50,-3.73,-2.29,47.55
25245,745.77,747.33,745.65,744.90,745.91,-62.01,-947.27,374.02,4.01,-1.91,-0.55,43.69
25281,746.32,747.41,745.64,744.94,746.08,-64.94,-940.92,403.81,5.57,2.80,-0.68,41.41
25316,746.80,747.55,745.68,745.09,746.28,-72.27,-946.29,387.21,4.88,-0.08,0.22,39.19
25351,746.94,747.81,745.70,745.21,746.41,-58.59,-941.89,392.58,2.40,-0.55,-1.56,35.29
25387,747.41,748.16,745.71,745.27,746.64,-63.48,-938.48,397.95,0.98,3.61,-1.33,29.85
25422,747.49,748.52,745.69,745.31,746.75,-57.13,-944.34,372.07,-1.56,0.85,-3.78,23.71
25458,747.62,748.92,745.71,745.36,746.90,-64.94,-937.50,407.71,-1.78,4.06,-1.40,17.83
25493,747.49,749.25,745.65,745.39,746.95,-54.69,-947.27,389.16,-1.60,4.36,0.66,9.74
25528,747.45,749.43,745.74,745.34,746.99,-72.27,-949.71,398.44,-0.49,3.79,-1.60,11.12
25564,747.57,749.68,745.74,745.32,747.08,-72.75,-937.99,390.62,-1.33,2.88,-1.19,7.25
25599,747.42,749.77,745.68,745.39,747.06,-58.59,-938.96,397.46,-1.46,0.12,-2.30,2.31
25634,747.25,749.81,745.67,745.45,747.04,-52.73,-942.87,379.88,1.77,-2.05,1.13,0.41
25670,747.26,749.71,745.74,745.36,747.02,-61.52,-942.87,389.16,0.95,-0.76,2.60,6.59
25705,747.17,749.47,745.73,745.41,746.94,-62.99,-948.73,388.18,1.69,0.76,-0.93,9.62
25741,747.27,749.15,745.71,745.30,746.86,-54.20,-936.52,400.88,2.85,-0.53,-1.34,15.37
25776,747.42,748.64,745.76,745.11,746.73,-42.48,-942.38,398.44,0.33,-1.66,1.25,27.27
25817,748.03,747.98,745.60,744.73,746.59,-68.36,-948.73,396.97,-1.21,1.92,1.53,33.30
25853,748.32,747.30,745.58,744.56,746.44,-64.94,-938.48,405.27,0.51,-1.08,0.60,43.13
25888,748.49,746.79,745.53,744.41,746.31,-56.15,-939.45,391.11,-0.04,0.12,1.96,49.16
25924,748.65,746.29,745.48,744.16,746.14,-68.36,-944.82,390.14,2.42,-1.11,0.87,55.83
25959,748.85,745.96,745.51,743.97,746.07,-77.64,-936.04,397.95,0.61,-1.71,0.32,60.20
25994,748.86,745.61,745.46,743.86,745.95,-64.94,-941.41,386.72,-4.71,-1.30,-0.24,62.20
26030,748.79,745.48,745.47,743.73,745.87,-72.27,-953.61,389.16,-3.53,0.24,0.17,62.70
26065,748.63,745.32,745.45,743.57,745.74,-77.15,-946.78,386.72,-3.15,1.85,-0.05,63.50
26100,748.58,745.10,745.38,743.56,745.65,-60.55,-940.92,369.14,-1.53,-2.00,-0.39,64.89
26136,748.75,745.00,745.41,743.52,745.67,-68.85,-960.94,366.21,-1.16,-2.79,-2.80,65.27
26173,748.80,744.86,745.38,743.31,745.59,-78.61,-958.50,380.37,1.38,-1.15,1.93,65.71
26208,749.01,744.71,745.43,743.32,745.62,-83.01,-940.43,391.60,1.21,-2.76,1.29,66.38
26244,749.17,744.81,745.43,743.26,745.67,-51.76,-944.34,402.83,1.11,-3.67,-0.18,65.59
26279,749.57,744.61,745.35,743.18,745.68,-29.79,-914.06,424.32,-1.84,4.24,2.00,66.57
26314,750.49,744.76,745.40,743.08,745.94,-102.54,-951.66,351.56,-6.84,2.92,5.45,65.03
26350,752.75,744.79,745.37,743.08,746.50,-80.08,-943.36,407.71,-2.19,2.84,4.36,63.98
26385,758.95,745.25,745.28,742.88,748.09,-153.81,-961.91,312.01,11.44,-6.67,-6.26,58.59
26420,768.54,745.82,745.38,742.95,750.67,-120.12,-949.71,347.17,19.18,-5.47,-1.25,48.67
26455,778.41,746.45,745.44,742.85,753.29,-13.18,-910.64,442.87,22.27,-8.50,-2.80,41.75
26491,785.08,746.81,745.42,742.81,755.03,-18.07,-909.67,449.22,24.42,-7.97,-2.55,34.57
26528,789.02,746.91,745.39,742.88,756.05,-53.71,-947.27,508.79,17.86,-8.55,0.08,29.92
26563,791.17,746.64,745.47,742.84,756.53,-30.27,-943.36,509.77,8.02,-1.66,2.66,35.54
26601,791.43,746.23,745.42,742.77,756.46,-78.61,-915.04,452.64,-1.96,2.24,1.40,38.97
26636,791.47,745.90,745.38,742.76,756.38,-74.71,-916.50,417.48,-2.82,2.40,2.81,41.61
26673,791.16,746.25,745.44,742.88,756.43,-34.67,-929.69,448.24,5.81,-4.15,-0.93,39.06
26708,790.87,746.39,745.45,742.81,756.38,-65.92,-900.88,451.17,3.93,-3.63,-0.44,38.10
26744,790.59,746.34,745.40,742.93,756.31,-148.93,-835.94,438.48,2.78,-4.87,0.55,37.90
26785,790.70,746.11,745.39,742.80,756.25,-31.25,-934.57,476.07,1.10,-1.03,2.85,40.19
26821,790.82,745.96,745.35,742.82,756.24,-59.57,-882.32,394.04,0.05,-2.06,1.24,41.00
26856,791.15,745.97,745.38,742.79,756.32,-53.71,-925.78,485.84,-3.65,1.14,-1.24,41.13
26892,790.99,745.78,745.40,742.87,756.26,-55.66,-914.06,478.52,-12.23,2.34,5.43,43.26
26927,790.86,745.64,745.35,742.80,756.16,-117.68,-908.20,409.18,-5.70,-0.44,1.40,44.24
26963,790.17,745.57,745.39,742.78,755.98,-74.71,-917.97,437.01,-9.48,1.72,1.69,45.74
26998,788.44,745.58,745.31,742.88,755.55,-45.90,-917.48,429.69,-8.53,5.72,1.83,45.88
27034,786.41,745.30,745.39,742.84,754.99,-76.66,-934.08,405.27,-7.48,5.14,-0.35,47.83
27069,784.76,745.23,745.38,742.87,754.56,-55.18,-917.97,423.34,-7.76,6.96,-5.35,48.41
27104,780.95,745.19,745.35,742.93,753.61,-72.27,-924.80,442.87,-5.08,9.59,-6.63,49.02
27140,773.89,745.01,745.37,742.84,751.78,-66.41,-914.55,421.39,-11.14,10.28,-4.80,50.86
27175,767.44,744.73,745.29,742.83,750.07,-69.34,-924.32,425.29,-27.38,12.44,-0.53,55.99
27211,761.97,744.68,745.29,742.98,748.73,-74.22,-946.78,374.02,-28.30,10.99,-2.08,60.13
27246,757.55,744.67,745.33,742.99,747.63,-105.47,-962.89,328.61,-17.00,7.16,-3.82,62.78
27281,754.75,744.83,745.34,743.11,747.01,-97.66,-960.94,341.80,-3.28,1.50,-3.23,63.05
27317,753.41,744.86,745.37,743.21,746.71,-82.52,-949.22,382.81,-0.96,1.92,-3.38,63.62
27353,752.74,744.93,745.37,743.27,746.58,-84.96,-948.24,364.26,-0.60,-3.23,-1.56,63.60
27388,752.13,745.01,745.41,743.31,746.47,-80.08,-951.17,378.42,0.22,-3.55,-3.08,63.39
27423,751.78,744.96,745.35,743.33,746.35,-72.27,-946.29,381.35,1.08,-1.35,-0.05,63.98
27459,751.51,744.92,745.36,743.32,746.28,-86.91,-946.29,362.79,0.30,1.07,-0.89,64.30
27494,751.36,744.85,745.32,743.33,746.22,-71.78,-951.66,376.95,0.66,-1.32,-0.51,64.84
27529,751.30,744.84,745.36,743.32,746.20,-79.59,-962.89,368.16,-3.88,0.61,-0.54,64.84
27565,751.23,744.84,745.33,743.26,746.16,-79.59,-957.03,369.63,-4.37,1.45,0.50,64.80
27600,751.28,744.93,745.38,743.30,746.22,-64.45,-951.17,362.30,-3.71,3.95,-0.10,64.24
27636,751.15,744.88,745.37,743.31,746.18,-84.96,-954.59,357.42,-1.60,0.08,-2.02,64.61
27671,750.93,744.84,745.35,743.30,746.10,-79.59,-934.08,363.28,-4.08,1.94,-0.59,64.98
27706,750.74,744.87,745.34,743.22,746.04,-74.71,-958.01,362.79,-4.38,2.85,-2.77,64.74
27742,750.24,744.83,745.32,743.30,745.92,-70.80,-955.08,353.03,-5.29,1.13,0.47,65.36
27784,749.66,744.82,745.39,743.27,745.79,-86.43,-971.19,352.54,-4.44,1.42,-0.23,65.47
27822,749.54,744.80,745.38,743.34,745.76,-73.73,-963.38,336.91,-0.02,0.34,-1.50,65.79
27857,749.49,744.88,745.40,743.34,745.78,-89.36,-949.22,342.77,-0.21,-2.22,0.17,65.27
27892,749.12,744.80,745.38,743.34,745.66,-82.03,-948.73,343.26,0.46,-1.20,1.89,65.94
27928,748.98,744.75,745.34,743.37,745.61,-80.08,-947.75,339.84,0.92,-3.72,-0.59,66.47
27963,748.89,744.65,745.31,743.30,745.54,-58.59,-953.61,347.66,-0.90,-2.60,1.94,66.98
27998,748.83,744.62,745.34,743.31,745.52,-79.59,-960.45,355.47,-1.50,1.73,1.63,67.15
28033,748.74,744.51,745.34,743.31,745.48,-61.52,-954.59,348.63,-1.02,-2.88,-1.37,67.78
28068,748.96,744.36,745.31,743.15,745.45,-80.57,-958.98,357.42,-4.01,-0.63,0.10,68.32
28104,749.38,744.29,745.38,743.05,745.53,2.44,-963.87,390.62,-13.63,-0.24,9.98,67.86
28138,749.75,744.10,745.42,742.95,745.55,-143.07,-980.47,301.27,-17.77,8.28,15.56,67.30
28174,749.68,744.04,745.34,743.01,745.52,-126.46,-946.29,308.59,-7.34,1.47,1.83,69.23
28211,749.99,744.09,745.39,742.93,745.60,-107.42,-955.57,309.08,0.21,5.09,-5.83,67.62
28246,750.05,744.15,745.37,743.03,745.65,-84.96,-949.71,342.29,0.99,3.93,-4.11,68.29
28281,749.95,744.20,745.35,743.02,745.63,-87.89,-964.84,334.47,3.30,2.13,-9.24,68.42
28317,750.26,744.34,745.39,742.98,745.74,-83.01,-973.63,330.57,4.39,0.86,-5.73,66.78
28352,750.38,744.22,745.28,743.00,745.72,-83.98,-948.73,361.82,2.78,1.40,0.68,68.30
28387,750.63,744.34,745.41,742.98,745.84,-60.55,-954.10,359.86,3.65,6.11,-2.49,66.32
28422,750.73,744.27,745.39,743.06,745.86,-44.92,-948.73,353.03,-0.90,12.95,-5.27,67.52
28457,750.74,744.22,745.38,742.97,745.83,-63.48,-946.78,377.44,6.30,29.02,-10.26,67.24
28493,750.87,744.19,745.34,743.04,745.86,61.04,-952.64,364.26,2.64,45.31,-8.48,68.14
28528,750.76,744.00,745.34,742.96,745.76,-160.64,-991.21,359.37,8.88,57.50,-17.02,68.82
28563,750.82,744.00,745.35,743.01,745.79,-199.22,-954.59,275.88,9.42,46.27,-19.95,68.91
28599,750.48,744.00,745.36,743.13,745.74,-204.10,-961.43,283.20,6.33,22.79,-13.45,69.48
28634,749.90,744.03,745.35,743.26,745.64,-157.71,-977.54,283.69,6.11,-10.53,-12.89,69.83
28670,749.22,744.25,745.41,743.42,745.58,68.85,-953.12,366.21,4.00,-6.14,-4.21,69.06
28705,748.55,744.29,745.37,743.57,745.45,-81.54,-961.91,354.98,6.27,-1.66,0.79,69.53
28743,747.83,744.54,745.49,743.84,745.42,-52.25,-935.55,396.97,4.50,-7.85,1.47,68.67
28779,746.75,744.71,745.49,744.05,745.25,-73.24,-947.27,372.56,-2.76,-6.68,2.56,68.61
28814,745.23,745.19,745.48,744.48,745.10,-86.43,-943.36,366.70,-4.74,-14.11,-1.37,67.43
28849,743.65,745.67,745.44,744.86,744.90,-74.71,-945.31,352.54,-7.66,-6.44,6.18,59.79
28885,742.07,746.08,745.54,745.22,744.73,-355.47,-1158.20,229.98,-18.63,-17.02,-0.53,55.94
28920,740.76,746.32,745.58,745.41,744.52,-145.51,-875.49,539.55,-12.89,-45.02,5.99,53.42
28957,739.96,746.51,745.60,745.40,744.37,-96.68,-930.66,428.22,-0.48,-71.44,21.44,52.17
28994,739.78,746.77,745.63,745.21,744.35,8.30,-994.14,255.86,-5.69,-60.83,19.44,52.11
29029,739.52,746.90,745.64,745.18,744.31,43.95,-1039.06,168.95,-3.14,-34.07,10.31,51.35
29064,739.62,746.87,745.53,745.01,744.26,-24.41,-1021.97,173.83,1.50,6.19,2.52,49.61
29100,739.93,746.66,745.48,744.78,744.21,-62.01,-897.95,448.24,21.36,2.07,1.69,52.77
29137,741.06,746.15,745.48,744.38,744.27,-68.36,-973.14,338.38,5.92,3.50,1.83,61.72
29173,741.80,745.68,745.46,744.18,744.28,-80.57,-948.24,355.96,2.11,3.47,1.25,65.27
29208,742.26,745.42,745.42,744.10,744.30,-67.87,-958.50,358.40,2.12,4.33,-0.96,66.59
29243,742.94,745.23,745.33,743.93,744.36,-76.66,-937.50,369.63,0.23,3.53,-0.94,67.26
29279,743.30,745.12,745.39,743.88,744.42,-83.01,-966.31,362.79,-1.90,0.21,0.64,67.56
29316,743.68,744.97,745.39,743.82,744.47,-63.96,-956.05,384.77,2.12,1.15,-2.78,68.17
29351,744.09,744.93,745.42,743.80,744.56,-61.52,-946.78,367.68,1.72,1.76,-0.47,68.12
29387,744.33,744.92,745.37,743.88,744.62,-62.50,-955.08,370.12,1.41,-1.60,1.37,68.38
29422,744.69,744.88,745.44,743.87,744.72,-77.64,-945.31,361.33,2.58,0.97,-0.83,68.29
29458,744.93,744.83,745.40,743.80,744.74,-67.87,-939.94,371.09,0.51,1.56,2.99,68.41
29493,745.13,744.89,745.48,743.84,744.84,-54.69,-955.57,371.09,1.44,-1.48,-2.29,67.88
29528,745.22,744.86,745.42,743.85,744.84,-70.31,-942.38,377.44,0.86,0.93,1.11,68.21
29564,745.43,744.82,745.51,743.80,744.89,-73.73,-947.75,378.91,-0.63,0.63,1.24,68.00
29599,745.66,744.83,745.45,743.77,744.93,-69.34,-952.15,384.28,0.76,-1.29,-0.95,67.97
29635,745.84,744.80,745.47,743.78,744.97,-70.31,-955.57,381.35,-1.27,1.40,2.05,67.99
29670,746.05,744.83,745.46,743.83,745.04,-65.92,-949.71,371.58,-1.89,-0.18,-0.16,67.88
29705,746.15,744.95,745.48,743.78,745.09,-59.08,-937.01,380.37,-1.63,0.90,-0.41,67.02
29741,746.16,745.02,745.47,743.79,745.11,-81.54,-949.71,360.35,-2.99,-0.70,0.15,66.65
29780,746.21,745.13,745.49,743.81,745.16,-66.89,-940.92,371.58,-0.33,-0.37,-0.79,66.02
29815,746.21,745.17,745.44,743.73,745.14,-73.24,-958.01,360.84,-0.31,3.57,-2.30,65.69
29851,746.28,745.10,745.48,743.75,745.16,-81.05,-952.64,368.16,-2.00,0.16,-0.05,66.01
29891,746.39,745.11,745.43,743.76,745.17,-61.04,-954.59,363.77,0.40,2.24,-0.62,66.06
29926,746.41,745.17,745.43,743.74,745.19,-70.80,-947.27,357.91,-0.21,-1.18,-0.55,65.66
29961,746.43,745.20,745.44,743.70,745.19,-72.75,-946.29,362.30,-1.80,1.14,1.05,65.39
29996,746.56,745.16,745.45,743.68,745.21,-68.36,-946.78,360.84,0.34,-0.12,-1.15,65.49
30031,746.70,745.24,745.40,743.71,745.26,-68.85,-948.73,374.02,-0.80,2.26,-1.07,65.08
30067,746.83,745.25,745.40,743.70,745.30,-73.24,-963.87,376.95,1.15,0.44,-0.68,64.97
30102,746.85,745.29,745.42,743.72,745.32,-70.31,-953.61,369.14,-0.53,0.08,-2.25,64.75
30137,746.92,745.27,745.41,743.72,745.33,-74.71,-950.20,354.98,-1.72,-0.45,-0.10,64.84
30173,746.91,745.32,745.43,743.69,745.34,-73.73,-943.85,369.14,-2.55,0.50,-0.37,64.44
30208,746.94,745.28,745.43,743.71,745.34,-70.31,-959.47,367.68,-0.38,-0.11,-1.88,64.73
30243,746.90,745.32,745.44,743.73,745.35,-61.04,-950.68,365.23,0.63,-1.02,-1.39,64.54
30278,746.94,745.33,745.49,743.69,745.36,-70.80,-956.54,366.70,1.34,-3.44,-2.99,64.31
30314,746.83,745.31,745.45,743.72,745.33,-74.22,-942.38,365.72,-2.15,0.17,2.28,64.58
30349,746.92,745.29,745.43,743.71,745.34,-72.75,-953.12,361.82,-1.97,0.50,-1.37,64.68
30384,746.84,745.35,745.37,743.70,745.31,-73.73,-952.15,361.82,1.44,0.42,-0.60,64.42
30420,746.84,745.31,745.45,743.69,745.32,-63.48,-952.64,363.77,-1.73,-0.33,-3.01,64.50
30455,746.92,745.36,745.41,743.73,745.36,-64.94,-968.26,372.07,-0.12,1.73,-0.26,64.32
30491,746.92,745.36,745.51,743.64,745.36,-72.75,-955.57,358.89,1.34,-1.90,-0.08,63.99
30526,747.01,745.36,745.45,743.71,745.38,-72.27,-954.10,366.21,0.77,-1.08,0.62,64.21
30561,747.04,745.37,745.39,743.59,745.35,-69.34,-965.82,360.84,2.16,0.39,-0.03,63.95
30596,747.31,745.22,745.38,743.50,745.35,-44.43,-920.41,392.09,-2.33,2.33,1.92,64.60
30632,747.89,745.03,745.35,743.42,745.42,-77.15,-967.77,345.21,-4.23,0.86,1.53,65.36
30667,748.11,744.94,745.49,743.40,745.49,-83.50,-955.57,351.56,-2.66,1.47,-0.64,65.44
30702,748.19,744.83,745.33,743.29,745.41,-73.24,-940.92,354.00,-2.15,0.34,-0.23,66.13
30743,748.70,744.68,745.34,743.18,745.48,-55.66,-958.01,345.70,-8.41,2.60,3.73,66.57
30780,748.98,744.55,745.39,743.17,745.52,-95.70,-969.73,337.89,-6.25,5.58,9.56,67.09
30816,749.09,744.45,745.37,743.12,745.51,-86.43,-964.84,344.73,-4.64,-0.82,1.43,67.51
30851,749.55,744.40,745.43,743.02,745.60,-68.36,-970.21,358.89,-8.31,1.65,12.05,66.42
30887,749.63,744.16,745.39,743.00,745.55,-133.79,-958.50,322.27,-5.79,4.98,6.99,67.83
30925,749.65,744.08,745.44,742.99,745.54,-144.04,-936.04,316.41,0.70,3.05,-1.12,67.36
30960,749.64,744.11,745.39,743.01,745.54,-102.54,-947.75,348.14,2.44,-3.12,-6.45,68.14
30996,749.13,744.15,745.41,743.14,745.46,-133.30,-939.94,331.54,6.63,-1.11,-15.33,68.65
31031,748.54,744.57,745.42,743.32,745.46,-83.01,-1055.66,332.52,16.22,-5.34,-26.79,67.42
31066,747.86,744.64,745.38,743.42,745.32,-69.82,-893.07,479.98,4.87,0.18,-1.79,67.56
31102,747.61,744.78,745.44,743.41,745.31,-113.77,-957.03,318.36,-1.74,2.14,-1.57,66.70
31137,747.42,744.87,745.41,743.48,745.29,-68.36,-931.15,370.61,-1.77,1.75,-1.78,66.48
31173,747.41,744.86,745.42,743.47,745.29,-78.12,-953.12,362.79,1.17,0.76,0.66,66.50
31208,747.38,744.88,745.42,743.51,745.30,-74.22,-949.71,353.52,1.18,-0.30,-0.34,66.45
31244,747.38,744.91,745.42,743.49,745.30,-67.87,-952.15,357.42,0.18,0.56,-3.06,66.27
31279,747.28,744.94,745.39,743.49,745.27,-71.29,-959.47,361.82,3.15,-0.71,-0.62,66.19
31314,747.32,744.93,745.36,743.54,745.29,-70.80,-959.47,367.19,1.33,1.53,-0.24,66.40
31350,747.23,744.88,745.42,743.50,745.26,-66.89,-957.52,363.28,-0.25,1.93,-0.87,66.50
31385,747.35,744.96,745.44,743.53,745.32,-69.34,-942.38,353.52,-0.58,0.92,-0.43,66.03
31420,747.28,745.00,745.37,743.48,745.28,-64.94,-951.66,365.72,0.34,-0.97,2.26,65.85
31456,747.23,744.96,745.36,743.54,745.27,-65.43,-948.73,353.52,-1.44,-0.97,0.08,66.29
31491,747.25,744.92,745.44,743.52,745.28,-78.61,-951.66,357.42,0.57,-1.52,-0.04,66.26
31526,747.28,744.94,745.38,743.54,745.28,-78.61,-950.68,354.98,-2.52,1.19,-0.92,66.32
31562,747.29,744.94,745.45,743.52,745.30,-78.12,-966.31,359.86,-1.53,1.38,-0.59,66.13
31599,747.30,745.01,745.43,743.50,745.31,-68.36,-968.26,367.19,1.09,0.99,-1.18,65.72
31634,747.27,744.94,745.41,743.50,745.28,-79.10,-954.59,354.00,-0.77,0.19,0.40,66.15
31670,747.24,744.94,745.42,743.51,745.28,-82.03,-944.34,356.93,0.05,-0.02,-1.28,66.20
31710,747.28,745.03,745.40,743.48,745.30,-70.31,-959.47,355.96,-0.40,0.65,-2.42,65.63
31745,747.24,745.00,745.39,743.51,745.28,-77.64,-947.27,358.40,-0.42,1.69,-2.73,65.91
31780,747.16,744.97,745.39,743.55,745.27,-81.54,-937.99,350.59,0.13,-0.47,1.13,66.18
31815,747.27,744.99,745.44,743.49,745.30,-76.66,-935.06,358.89,-1.48,-0.78,-1.66,65.83
31851,747.23,744.95,745.45,743.48,745.28,-70.80,-958.50,354.49,1.37,0.74,0.20,66.00
31886,747.25,744.92,745.40,743.53,745.27,-62.50,-946.29,357.91,-0.31,-0.04,1.40,66.39
31922,747.31,744.91,745.39,743.47,745.27,-64.94,-949.71,361.82,-1.18,1.21,-0.50,66.31
31957,747.33,744.93,745.35,743.47,745.27,-74.71,-943.36,360.84,0.24,3.02,0.54,66.28
31992,747.35,744.97,745.39,743.53,745.31,-85.45,-947.75,365.72,0.46,0.24,-0.42,66.09
32028,747.33,744.98,745.34,743.53,745.29,-69.82,-946.29,352.05,-0.97,1.77,1.22,66.13
32063,747.28,745.00,745.37,743.50,745.29,-81.54,-952.15,363.77,-0.50,1.41,-0.21,65.92
32099,747.34,744.99,745.40,743.50,745.31,-79.10,-945.31,351.56,-1.36,1.24,-0.18,65.92
32134,747.31,744.96,745.39,743.49,745.29,-78.61,-953.61,365.23,0.50,0.94,-0.55,66.07
32169,747.31,744.93,745.33,743.52,745.27,-71.78,-941.41,358.40,-0.33,0.83,-0.08,66.43
32205,747.38,745.01,745.34,743.57,745.33,-78.12,-958.98,353.03,-1.60,0.05,-0.53,65.99
32240,747.39,744.97,745.36,743.45,745.29,-85.45,-944.34,349.12,-2.12,1.00,-1.59,65.95
32275,747.40,745.07,745.38,743.52,745.34,-73.24,-952.15,355.96,-0.89,-0.67,0.72,65.46
32311,747.35,745.06,745.34,743.41,745.29,-64.45,-958.50,363.28,0.94,2.54,-1.89,65.40
32346,747.41,745.09,745.40,743.56,745.37,-67.87,-943.36,374.02,-1.91,-2.66,-0.09,65.39
32382,747.35,745.04,745.41,743.56,745.34,-69.82,-941.89,362.30,0.44,2.42,0.76,65.69
32417,747.43,745.05,745.32,743.55,745.34,-81.05,-956.54,360.84,-0.46,-3.06,-1.44,65.73
32452,747.39,745.02,745.36,743.53,745.33,-76.66,-967.77,362.30,0.85,0.19,0.85,65.84
32488,747.43,745.02,745.37,743.50,745.33,-65.43,-943.36,355.96,-0.45,-3.47,0.12,65.76
32523,747.43,744.99,745.39,743.51,745.33,-75.68,-957.03,365.72,0.85,-0.37,-0.95,65.87
32558,747.45,745.08,745.36,743.51,745.35,-71.78,-964.36,363.28,-0.21,3.85,-1.72,65.44
32594,747.40,745.10,745.42,743.54,745.36,-68.36,-950.20,367.19,-0.40,-0.79,-2.88,65.28
32629,747.42,745.11,745.40,743.47,745.35,-72.27,-938.48,360.35,0.60,-1.64,-0.08,65.07
32665,747.40,745.06,745.45,743.44,745.34,-73.24,-956.05,361.33,-0.21,-0.73,-0.40,65.26
32706,747.39,745.08,745.35,743.54,745.34,-75.20,-963.87,361.33,-0.82,1.44,1.68,65.49
32742,747.37,745.06,745.42,743.51,745.34,-75.20,-957.03,353.03,-0.24,-0.70,-0.14,65.43
32777,747.39,745.07,745.35,743.54,745.34,-76.66,-962.89,356.45,-0.52,0.35,-0.63,65.59
32812,747.45,744.93,745.40,743.49,745.32,-59.08,-960.94,362.30,-0.07,1.62,-2.11,66.19
32848,747.40,744.99,745.37,743.47,745.31,-80.57,-960.94,354.00,-0.70,0.00,-1.18,65.88
32883,747.37,745.00,745.32,743.55,745.31,-67.87,-941.89,357.42,1.19,0.24,-1.15,66.03
32919,747.33,745.01,745.42,743.56,745.33,-72.27,-946.29,345.21,-2.23,-1.24,-1.86,65.84
32954,747.28,744.94,745.40,743.49,745.28,-70.80,-939.45,346.68,-1.21,0.95,-1.13,66.17
32989,747.24,744.94,745.45,743.52,745.29,-71.29,-951.17,354.00,-0.99,2.10,-1.25,66.18
33025,747.14,744.87,745.40,743.53,745.23,-81.54,-931.15,356.45,2.04,-0.41,-1.57,66.73
33060,747.22,744.94,745.33,743.48,745.24,-73.24,-937.99,352.54,-1.93,1.62,2.16,66.32
33095,747.22,744.98,745.40,743.56,745.29,-77.64,-961.91,359.37,-0.90,-1.11,1.65,66.10
33130,747.18,744.91,745.38,743.52,745.25,-74.71,-968.75,355.96,-0.69,-0.28,-0.78,66.47
33165,747.13,744.89,745.40,743.63,745.26,-91.31,-957.52,357.42,-0.75,1.02,-0.76,66.80
33200,747.11,744.99,745.37,743.53,745.25,-76.66,-967.77,345.70,-0.48,-0.10,0.18,66.08
33235,747.10,744.94,745.37,743.58,745.25,-71.29,-949.71,365.23,-0.50,-0.40,-0.73,66.48
33273,747.06,744.91,745.36,743.58,745.23,-77.15,-947.75,352.05,-0.93,1.19,0.92,66.70
33308,747.18,744.89,745.46,743.54,745.27,-73.24,-950.20,362.30,-1.12,-0.44,-2.48,66.46
33343,747.09,744.93,745.42,743.60,745.26,-70.80,-958.50,355.47,-0.95,-0.96,-0.22,66.48
33378,747.15,745.01,745.43,743.53,745.28,-68.85,-947.75,372.07,-0.19,0.50,1.69,65.85
33413,747.08,744.90,745.32,743.59,745.22,-71.78,-952.64,354.98,-1.16,2.02,0.56,66.85
33448,747.10,744.93,745.37,743.47,745.22,-64.45,-964.84,352.54,-0.42,-1.35,2.46,66.36
33484,747.12,744.93,745.41,743.49,745.24,-72.27,-945.80,346.19,-0.26,1.39,0.58,66.27
33519,747.12,744.93,745.43,743.56,745.26,-64.45,-953.12,349.12,-2.22,-1.56,0.37,66.38
33554,747.12,744.91,745.43,743.54,745.25,-64.45,-964.36,368.16,-0.34,1.56,-1.37,66.42
33590,747.15,744.99,745.39,743.54,745.27,-77.15,-958.01,361.33,-0.66,2.71,-1.63,66.05
33625,747.14,745.05,745.41,743.56,745.29,-71.29,-942.38,355.96,-0.75,1.81,-2.62,65.69
33666,747.10,745.02,745.44,743.51,745.27,-70.80,-965.33,359.86,-1.17,2.80,-0.19,65.77
33701,747.16,745.02,745.42,743.59,745.30,-74.71,-950.20,347.17,0.40,1.85,3.17,65.91
33736,747.15,745.03,745.50,743.49,745.29,-80.08,-950.68,359.86,-2.03,-0.31,-0.05,65.52
33772,747.19,745.04,745.37,743.56,745.29,-76.66,-965.33,367.19,-0.21,1.56,-1.40,65.83
33807,747.28,745.08,745.35,743.53,745.31,-73.24,-965.82,357.42,-0.32,0.83,-0.06,65.52
33843,747.27,745.12,745.39,743.52,745.32,-71.29,-956.05,367.19,0.44,1.02,-1.98,65.19
33878,747.26,745.18,745.40,743.55,745.35,-65.43,-955.08,354.00,-0.26,-0.89,-2.12,64.93
33913,747.35,745.07,745.39,743.61,745.35,-75.20,-957.03,363.28,-0.27,0.44,0.45,65.68
33949,747.30,745.13,745.42,743.51,745.34,-74.71,-957.03,366.21,0.38,-0.69,-1.45,65.10
33984,747.30,745.10,745.35,743.57,745.33,-77.64,-964.84,354.98,-1.46,-0.20,-1.07,65.44
34022,747.35,745.11,745.34,743.54,745.34,-71.29,-962.89,356.93,0.41,-2.36,-2.89,65.34
34057,747.43,745.16,745.34,743.55,745.37,-64.94,-951.17,356.45,0.21,-0.75,0.54,65.02
34092,747.46,745.12,745.39,743.58,745.39,-76.66,-956.05,357.42,0.11,0.04,-2.49,65.30
34128,747.49,745.19,745.40,743.55,745.41,-67.38,-950.20,362.79,-2.53,1.95,-0.79,64.75
34163,747.52,745.26,745.37,743.57,745.43,-82.03,-944.82,357.42,-0.11,0.45,1.15,64.38
34198,747.54,745.22,745.43,743.50,745.42,-64.94,-946.78,361.82,0.38,-2.04,0.12,64.41
34234,747.63,745.22,745.40,743.54,745.45,-74.22,-946.29,354.00,-2.00,0.10,1.21,64.49
34269,747.61,745.19,745.44,743.56,745.45,-76.66,-952.15,359.37,-1.52,-0.56,-1.48,64.68
34304,747.57,745.17,745.41,743.57,745.43,-82.52,-939.94,354.98,0.27,0.86,-0.25,64.87
34340,747.64,745.15,745.36,743.52,745.42,-79.10,-938.96,358.40,0.44,0.18,-0.86,64.93
34375,747.71,745.05,745.38,743.54,745.42,-73.24,-943.36,378.91,-1.12,-0.16,-2.28,65.50
34411,747.67,745.09,745.42,743.50,745.42,-83.01,-954.10,363.77,-1.74,0.15,-1.39,65.11
34446,747.63,745.09,745.39,743.48,745.40,-68.36,-950.68,368.16,-1.79,1.51,0.77,65.19
34481,747.73,745.21,745.41,743.54,745.47,-73.24,-958.50,371.58,-0.27,-1.20,0.46,64.52
34517,747.75,745.21,745.40,743.59,745.49,-77.64,-965.82,355.47,-0.53,0.66,0.00,64.60
34552,747.73,745.25,745.36,743.60,745.49,-75.68,-945.80,361.82,0.02,1.92,0.31,64.48
34587,747.79,745.18,745.40,743.61,745.50,-74.22,-953.12,367.68,0.04,1.23,-2.52,64.80
34623,747.69,745.15,745.45,743.56,745.46,-60.06,-958.01,360.84,-0.60,1.87,-1.84,64.82
34664,747.80,745.23,745.46,743.63,745.53,-72.27,-950.20,378.42,-0.13,3.17,-0.18,64.43
34700,747.83,745.19,745.40,743.57,745.50,-78.12,-948.73,375.98,-0.56,1.22,-0.99,64.63
34735,747.76,745.25,745.45,743.51,745.49,-72.27,-944.82,357.91,-1.60,0.89,-1.73,64.14
34770,747.84,745.19,745.36,743.56,745.49,-63.96,-956.54,358.40,-0.52,-1.05,-1.42,64.67
34806,747.82,745.16,745.35,743.53,745.47,-64.45,-969.73,365.23,-1.28,-1.83,-1.76,64.82
34841,747.75,745.24,745.44,743.61,745.51,-86.43,-948.24,350.10,-2.31,0.56,2.08,64.39
34876,747.81,745.23,745.38,743.60,745.51,-61.52,-955.08,362.79,0.64,0.76,0.05,64.51
34911,747.86,745.24,745.40,743.54,745.51,-69.34,-951.66,368.16,-1.24,1.31,-0.82,64.31
34949,747.78,745.23,745.39,743.57,745.49,-67.87,-938.96,357.42,-1.27,-0.83,-0.87,64.47
34984,747.90,745.23,745.39,743.57,745.52,-73.24,-950.20,349.61,0.47,-0.31,-0.55,64.40
35019,747.84,745.24,745.41,743.61,745.53,-76.66,-953.12,354.00,-0.22,4.39,0.63,64.42
35054,747.86,745.31,745.34,743.59,745.52,-71.29,-948.24,360.35,0.44,0.90,0.58,64.02
35089,747.80,745.34,745.30,743.62,745.52,-68.36,-956.54,361.82,-0.05,0.68,-0.17,63.96
35124,747.82,745.33,745.37,743.54,745.52,-75.20,-959.96,364.75,-0.08,0.92,-3.43,63.81
35160,747.79,745.28,745.41,743.53,745.50,-63.96,-953.61,352.05,-1.92,1.71,-0.60,64.04
35195,747.78,745.34,745.50,743.52,745.53,-62.50,-954.10,359.37,-1.85,-1.40,0.66,63.54
35230,747.89,745.28,745.45,743.52,745.54,-80.08,-962.40,351.56,-0.11,0.98,-0.39,63.92
35266,747.96,745.28,745.37,743.54,745.54,-76.66,-965.33,350.59,0.27,1.31,-0.24,64.05
35301,747.88,745.31,745.38,743.55,745.53,-82.52,-942.87,350.10,-0.05,0.29,-1.17,63.89
35336,747.91,745.40,745.40,743.59,745.57,-81.54,-948.24,354.00,-1.29,0.85,-1.99,63.43
35372,747.82,745.39,745.39,743.56,745.54,-81.05,-954.10,359.86,0.94,0.17,-0.95,63.46
35407,747.86,745.33,745.40,743.54,745.53,-65.43,-956.54,354.49,0.25,-2.52,-2.19,63.73
35443,747.83,745.39,745.37,743.61,745.55,-65.92,-946.78,356.93,-0.37,-1.11,0.95,63.58
35478,747.92,745.40,745.43,743.70,745.61,-84.96,-937.50,360.35,-0.61,1.65,-1.53,63.56
35513,748.03,745.36,745.33,743.56,745.57,-71.78,-962.89,358.89,-0.69,0.08,1.40,63.64
35549,747.90,745.32,745.41,743.59,745.56,-71.78,-950.68,362.79,1.15,-1.14,-0.55,63.86
35584,747.73,745.42,745.42,743.62,745.55,-73.73,-948.73,354.49,-0.13,-0.54,-1.24,63.39
35624,747.42,745.27,745.38,743.56,745.41,-79.59,-952.64,353.52,-2.06,0.63,0.66,64.33
35660,747.34,745.18,745.43,743.60,745.39,-77.15,-954.10,360.84,-0.76,-0.04,-0.80,64.91
35695,747.36,744.98,745.33,743.47,745.29,-80.57,-952.64,357.91,-0.44,0.31,1.61,66.00
35730,747.47,744.88,745.41,743.51,745.32,-79.59,-937.99,362.30,-1.84,-0.18,2.12,66.45
35766,747.47,744.84,745.40,743.52,745.31,-90.82,-961.91,346.68,-0.03,1.95,1.60,66.75
35801,747.39,744.79,745.34,743.54,745.26,-75.68,-958.50,350.10,-0.47,0.73,-2.07,67.24
35836,747.41,744.75,745.38,743.53,745.27,-79.10,-951.66,357.91,1.12,-1.20,-0.73,67.36
35872,747.29,744.75,745.38,743.58,745.25,-73.73,-955.57,356.93,0.98,0.08,-0.17,67.49
35907,747.18,744.80,745.36,743.61,745.24,-65.92,-952.64,357.42,-2.00,-0.15,0.69,67.36
35943,747.09,744.90,745.37,743.58,745.24,-79.10,-947.27,361.33,-1.15,-0.18,-0.79,66.76
35978,747.14,744.87,745.40,743.55,745.24,-73.24,-957.03,368.65,-0.13,-0.87,0.22,66.74
36013,747.24,744.79,745.40,743.61,745.26,-83.98,-947.75,366.21,-0.65,-1.56,2.27,67.29
36049,747.19,744.70,745.42,743.54,745.21,-65.92,-958.98,366.21,-0.55,0.06,-0.59,67.63
36084,747.27,744.59,745.39,743.48,745.18,-71.29,-955.57,363.77,0.26,0.59,-1.04,68.16
36119,747.36,744.54,745.37,743.47,745.19,-67.38,-937.01,360.35,-1.55,0.34,1.11,68.47
36171,747.34,744.54,745.41,743.48,745.19,-70.31,-964.84,368.16,-1.51,1.37,-0.93,68.39
36206,747.31,744.58,745.39,743.46,745.18,-69.82,-947.27,355.47,-1.34,2.46,1.95,68.19
36242,747.26,744.64,745.41,743.49,745.20,-71.78,-947.75,366.21,-2.05,0.65,-0.46,67.87
36277,747.32,744.53,745.41,743.47,745.18,-75.68,-957.03,361.33,0.39,-1.88,-0.07,68.42
36312,747.29,744.57,745.33,743.51,745.18,-74.22,-957.03,353.52,-2.28,1.71,-1.24,68.45
36348,747.18,744.68,745.34,743.41,745.15,-84.47,-946.78,362.30,-1.73,2.57,-2.29,67.65
36383,747.22,744.65,745.40,743.45,745.18,-74.22,-962.89,354.98,1.63,-1.94,0.13,67.75
36418,747.16,744.67,745.32,743.47,745.16,-69.34,-942.38,349.12,-0.37,1.92,0.06,67.88
36454,747.16,744.66,745.38,743.45,745.17,-73.73,-950.68,370.12,-0.05,0.81,-1.55,67.77
36489,747.18,744.70,745.41,743.40,745.17,-77.64,-957.03,354.49,-1.69,-1.50,-0.56,67.38
36524,747.13,744.70,745.42,743.44,745.17,-69.82,-949.22,367.19,-1.42,-1.71,-1.45,67.46
36559,747.24,744.71,745.35,743.47,745.19,-72.27,-958.98,348.14,0.50,-0.53,0.18,67.56
36594,747.18,744.64,745.42,743.44,745.17,-69.82,-950.68,360.84,-0.08,2.63,-1.13,67.79
36631,747.29,744.73,745.35,743.54,745.23,-76.17,-957.03,365.23,0.44,1.23,-1.31,67.60
36666,747.26,744.76,745.36,743.44,745.20,-65.43,-964.36,356.93,-0.68,-2.56,-0.02,67.23
36702,747.32,744.82,745.42,743.49,745.26,-76.66,-952.64,367.19,-1.69,2.34,1.34,66.84
36737,747.24,744.86,745.35,743.50,745.24,-73.24,-950.68,350.59,0.25,-1.86,-2.06,66.77
36772,747.31,744.84,745.39,743.55,745.27,-73.73,-962.89,355.47,-0.55,0.58,-0.40,66.90
36807,747.30,744.78,745.32,743.46,745.21,-70.80,-948.73,364.26,-0.47,-0.99,-0.17,67.17
36842,747.35,744.78,745.35,743.51,745.25,-64.94,-951.66,358.89,0.49,-1.12,-2.42,67.22
36878,747.28,744.82,745.38,743.59,745.27,-79.59,-960.45,349.61,-0.57,0.32,3.13,67.15
36913,747.32,744.89,745.43,743.57,745.30,-61.04,-959.47,357.42,-1.04,1.98,0.00,66.56
36948,747.25,744.84,745.38,743.46,745.23,-53.22,-938.48,354.00,-1.36,-0.85,-2.16,66.76
36984,747.22,744.82,745.32,743.54,745.23,-67.38,-953.61,361.33,-1.23,0.50,0.21,67.16
37019,747.17,744.77,745.33,743.55,745.21,-66.89,-948.73,359.37,-1.26,0.31,0.64,67.44
37055,747.23,744.82,745.39,743.54,745.25,-69.34,-955.08,368.16,-1.13,1.37,-1.65,66.97
37092,747.25,744.69,745.42,743.55,745.23,-66.41,-937.50,355.96,0.46,-0.05,2.24,67.72
37145,747.33,744.70,745.27,743.51,745.20,-82.03,-969.73,342.77,-1.27,1.04,-1.93,67.82
37181,747.40,744.62,745.25,743.43,745.17,-75.68,-957.52,355.47,-0.97,-1.08,0.66,68.16
37216,747.36,744.66,745.38,743.44,745.21,-72.27,-959.96,357.91,-0.48,2.18,-2.44,67.66
37252,747.40,744.76,745.36,743.49,745.25,-74.71,-951.66,355.96,-1.40,-1.64,2.76,67.26
37287,747.36,744.87,745.40,743.50,745.28,-76.66,-953.12,349.12,-0.09,1.09,-0.11,66.57
37323,747.21,744.93,745.32,743.59,745.26,-80.08,-958.01,347.66,1.85,0.74,0.65,66.60
37358,747.15,745.07,745.39,743.59,745.30,-77.64,-952.15,368.16,0.03,-0.34,-0.89,65.73
37393,747.14,745.16,745.42,743.59,745.33,-66.89,-957.03,369.63,0.37,1.09,-0.60,65.12
37429,747.03,745.15,745.39,743.54,745.28,-57.13,-959.96,363.77,1.19,-0.46,-0.99,65.17
37464,747.12,745.06,745.38,743.54,745.28,-69.34,-947.75,359.37,-1.36,-2.70,1.12,65.69
37499,747.13,745.01,745.42,743.52,745.27,-91.80,-956.54,360.84,-0.18,-0.47,1.84,65.86
37535,747.19,744.98,745.38,743.50,745.26,-76.17,-959.96,343.75,-1.44,2.76,0.31,66.03
37570,747.29,744.96,745.42,743.54,745.31,-73.73,-947.27,349.12,0.41,-1.24,-1.34,66.09
37606,747.45,745.04,745.45,743.54,745.37,-58.59,-961.43,354.49,0.61,2.56,1.95,65.52
37641,747.72,745.14,745.37,743.59,745.45,-63.96,-950.68,365.23,2.06,0.53,-0.89,65.09
37679,747.98,745.30,745.38,743.64,745.57,-81.54,-952.15,362.79,-0.08,2.24,-1.90,64.15
37714,747.49,745.32,745.39,743.62,745.46,-58.11,-962.89,355.47,-2.60,-3.21,-1.31,64.10
37751,747.37,745.28,745.39,743.64,745.42,-71.29,-957.52,350.59,-1.71,-0.71,-0.23,64.50
37786,747.50,745.32,745.43,743.66,745.48,-72.27,-942.87,361.33,0.98,0.18,-1.62,64.15
37822,747.80,745.51,745.39,743.58,745.57,-66.41,-950.68,356.45,-3.63,2.91,-1.33,62.79
37857,747.80,745.36,745.37,743.61,745.54,-82.52,-952.15,348.14,-3.54,0.48,0.84,63.76
37893,747.79,745.33,745.37,743.63,745.53,-72.75,-953.12,350.59,0.77,0.79,-2.03,63.99
37928,747.97,745.39,745.39,743.54,745.57,-75.68,-951.17,346.19,1.26,2.52,-1.79,63.38
37964,748.11,745.36,745.43,743.57,745.62,-67.87,-969.24,352.05,1.69,-0.06,1.52,63.51
37999,748.12,745.34,745.39,743.66,745.63,-80.08,-955.57,354.49,-1.62,-0.21,-0.24,63.86
38035,748.08,745.32,745.43,743.60,745.61,-73.73,-957.03,363.77,2.32,0.01,-0.34,63.80
38070,748.09,745.39,745.44,743.68,745.65,-73.24,-956.05,353.03,1.74,-1.15,-1.25,63.52
38106,748.15,745.43,745.41,743.67,745.66,-69.82,-961.91,360.84,-0.76,2.48,-2.52,63.27
38144,748.03,745.41,745.45,743.70,745.65,-68.36,-959.47,357.91,0.42,0.09,-0.52,63.46
38179,748.05,745.49,745.40,743.65,745.65,-85.45,-945.31,360.35,4.13,-0.05,-2.84,62.92
38214,748.11,745.50,745.43,743.67,745.68,-66.41,-947.75,357.91,0.76,3.36,-2.31,62.81
38250,748.17,745.44,745.44,743.63,745.67,-62.50,-949.71,370.61,0.08,1.65,0.66,63.06
38285,748.26,745.40,745.39,743.66,745.68,-67.87,-953.61,371.09,-0.27,-1.82,-2.02,63.43
38323,748.26,745.46,745.40,743.55,745.67,-68.36,-959.47,375.98,-0.91,2.47,0.73,62.79
38358,748.30,745.47,745.42,743.61,745.70,-73.24,-955.57,358.89,-2.40,-0.82,3.50,62.84
38393,748.34,745.46,745.38,743.64,745.71,-76.17,-947.27,355.96,-1.71,0.37,-0.63,62.96
38428,748.29,745.51,745.39,743.61,745.70,-67.87,-955.08,350.59,-1.75,-0.28,-1.18,62.61
38464,748.37,745.50,745.34,743.66,745.72,-76.66,-963.87,349.61,-0.32,3.02,-1.29,62.78
38499,748.30,745.51,745.32,743.59,745.68,-84.47,-945.80,358.89,1.07,2.22,-0.58,62.65
38534,748.24,745.53,745.33,743.56,745.66,-66.89,-955.08,345.21,0.11,-1.68,0.43,62.46
38569,748.22,745.55,745.34,743.59,745.68,-60.55,-963.38,355.96,1.34,-2.68,-0.75,62.40
38605,748.18,745.50,745.43,743.54,745.66,-62.50,-955.57,360.84,0.65,-1.07,-0.49,62.55
38640,748.18,745.56,745.36,743.67,745.69,-72.75,-951.17,346.68,0.27,0.76,-4.48,62.51
38676,748.18,745.43,745.42,743.62,745.66,-78.12,-955.57,359.37,-1.20,-0.70,-0.37,63.13
38712,748.21,745.47,745.40,743.59,745.67,-72.75,-943.36,362.30,-0.23,-2.79,0.73,62.81
38747,748.23,745.45,745.38,743.61,745.67,-77.64,-947.27,365.72,0.31,2.03,0.02,63.02
38782,748.22,745.37,745.39,743.57,745.64,-61.04,-961.91,355.47,-0.66,2.31,-0.95,63.43
38818,748.26,745.42,745.43,743.56,745.67,-88.38,-969.24,361.82,1.04,-0.31,1.36,63.02
38853,748.21,745.44,745.39,743.60,745.66,-68.85,-949.22,367.19,-2.50,3.70,0.55,63.06
38889,748.20,745.42,745.39,743.57,745.64,-78.61,-953.12,371.09,-0.34,1.82,2.21,63.13
38924,748.22,745.43,745.39,743.59,745.66,-80.08,-967.77,360.35,-1.96,-0.11,-0.86,63.13
38960,748.27,745.52,745.40,743.67,745.72,-69.82,-946.29,352.05,-0.93,0.79,0.53,62.65
38996,748.22,745.43,745.41,743.55,745.65,-71.29,-959.96,348.63,-0.89,-0.05,-0.19,63.00
39031,748.23,745.53,745.40,743.62,745.69,-83.01,-957.03,343.26,0.78,-0.46,-1.20,62.51
39066,748.29,745.50,745.39,743.66,745.71,-72.27,-942.38,353.03,1.35,-4.47,-2.05,62.81
39119,748.21,745.55,745.38,743.61,745.69,-75.20,-951.17,358.89,0.31,1.82,-1.56,62.42
39154,748.22,745.59,745.42,743.60,745.71,-82.52,-955.57,361.33,1.37,0.51,-0.13,62.07
39190,748.20,745.60,745.38,743.67,745.71,-75.20,-961.43,354.98,-1.63,-0.94,-1.41,62.22
39225,748.21,745.57,745.37,743.62,745.69,-75.20,-958.98,350.59,-0.76,0.46,-0.37,62.31
39260,748.09,745.50,745.43,743.65,745.67,-80.57,-951.17,352.05,-1.47,2.17,-0.12,62.79
39296,747.72,745.43,745.39,743.61,745.53,-77.15,-962.89,343.75,-1.15,-1.37,0.45,63.35
39331,747.49,745.22,745.45,743.59,745.43,-58.59,-950.68,363.28,-1.82,-1.31,-0.56,64.60
39366,747.32,745.12,745.38,743.61,745.36,-72.27,-949.22,357.42,-2.28,0.49,-4.22,65.38
39402,747.36,744.97,745.38,743.54,745.31,-85.94,-958.98,353.03,-1.47,2.38,0.79,66.10
39437,747.39,744.86,745.37,743.53,745.29,-75.20,-953.12,352.05,-1.18,1.81,2.18,66.74
39473,747.43,744.91,745.39,743.62,745.34,-80.57,-968.26,352.54,-0.11,1.84,0.92,66.57
39508,747.38,744.98,745.34,743.53,745.31,-72.27,-962.40,351.56,0.85,0.80,0.26,66.12
39543,747.31,745.03,745.42,743.51,745.32,-71.29,-952.15,353.52,0.96,-0.46,-1.15,65.64
39579,747.20,745.09,745.32,743.59,745.30,-73.73,-946.78,364.75,1.08,1.53,-2.15,65.65
39614,747.21,745.09,745.38,743.66,745.33,-65.92,-949.22,353.52,0.98,0.57,-3.17,65.73
39649,747.11,745.12,745.41,743.78,745.35,-70.31,-959.47,357.42,0.87,-0.90,0.08,65.78
39685,747.08,745.05,745.45,743.68,745.31,-71.29,-953.61,365.72,0.71,-3.59,-0.19,65.89
39720,747.01,744.97,745.36,743.65,745.25,-67.87,-947.27,373.05,0.91,-0.83,-0.60,66.50
39756,747.10,745.00,745.41,743.58,745.27,-65.92,-955.08,362.30,-0.07,-0.02,-0.89,66.03
39791,747.09,745.00,745.42,743.70,745.30,-77.64,-962.89,371.09,-1.95,1.86,-0.95,66.29
39826,747.12,745.07,745.42,743.59,745.30,-57.13,-960.45,352.05,-3.92,1.28,0.44,65.65
39862,747.09,745.04,745.37,743.51,745.25,-70.80,-959.96,351.07,-2.36,1.59,0.31,65.81
39897,747.17,745.15,745.38,743.55,745.31,-71.78,-962.89,358.89,-3.53,-0.62,0.67,65.18
39932,747.16,745.20,745.38,743.61,745.34,-79.59,-945.31,354.00,-4.08,1.44,-0.41,64.98
39967,747.07,745.16,745.44,743.52,745.30,-76.66,-958.98,350.59,-3.79,1.14,0.21,64.95
40003,747.11,745.18,745.43,743.53,745.31,-70.31,-967.29,352.54,-1.15,2.26,-1.15,64.88
40044,747.10,745.25,745.39,743.55,745.32,-69.82,-954.59,360.35,-1.34,2.24,-2.56,64.56
40082,747.15,745.23,745.38,743.51,745.32,-72.27,-958.01,353.03,-0.80,-0.27,-2.39,64.61
40117,747.16,745.21,745.34,743.54,745.31,-62.01,-963.38,349.12,1.05,0.95,-1.09,64.86
40152,747.26,745.28,745.35,743.58,745.36,-69.34,-961.91,352.05,-0.69,-0.63,-1.18,64.46
40187,747.54,745.33,745.38,743.52,745.44,-75.68,-953.61,350.10,1.82,-1.45,-1.27,63.90
40225,748.09,745.48,745.36,743.57,745.63,-87.89,-966.31,355.47,0.44,1.92,-3.02,62.83
40260,747.74,745.44,745.38,743.53,745.52,-76.17,-939.94,359.86,-1.16,-0.26,-3.44,63.10
40295,747.62,745.56,745.37,743.62,745.54,-82.03,-959.96,337.89,0.45,1.24,-1.19,62.61
40331,747.55,745.59,745.40,743.69,745.56,-73.73,-944.34,377.44,1.18,-1.92,-0.69,62.60
40366,747.53,745.69,745.44,743.61,745.57,-62.99,-944.82,353.52,0.27,-0.37,-0.98,61.74
40402,747.59,745.70,745.39,743.63,745.58,-57.62,-935.06,375.49,0.58,-1.98,-1.04,61.80
40437,747.67,745.64,745.37,743.65,745.59,-71.78,-953.61,356.93,-0.57,0.63,-1.05,62.18
40472,747.82,745.63,745.43,743.62,745.62,-70.31,-952.15,354.00,-1.31,0.40,0.82,62.05
40508,748.00,745.65,745.38,743.64,745.67,-67.87,-959.96,360.35,-0.86,-1.10,0.45,61.97
40543,748.04,745.52,745.39,743.63,745.65,-86.43,-954.59,353.03,-0.15,3.79,-3.51,62.68
40579,748.07,745.60,745.42,743.59,745.67,-86.43,-957.03,369.14,0.67,1.34,-1.81,62.07
40614,748.10,745.58,745.34,743.61,745.66,-77.64,-951.17,349.12,-0.66,0.00,-0.58,62.33
40650,748.03,745.62,745.37,743.62,745.66,-79.59,-947.27,343.26,-0.99,-0.64,-0.63,62.07
40685,747.98,745.65,745.38,743.69,745.67,-67.87,-945.80,362.30,-1.33,1.37,-0.40,62.08
40720,748.00,745.62,745.38,743.52,745.63,-71.78,-951.17,357.91,-0.75,-0.66,-1.73,61.90
40756,747.98,745.74,745.42,743.62,745.69,-94.73,-966.31,340.82,-0.71,1.18,1.50,61.32
40791,747.96,745.73,745.37,743.54,745.65,-70.80,-962.89,349.61,0.98,0.20,1.34,61.31
40826,748.06,745.64,745.43,743.61,745.68,-66.89,-952.15,354.98,-0.69,1.85,-0.84,61.89
40862,747.99,745.65,745.50,743.58,745.68,-72.75,-943.85,353.52,-1.85,0.76,1.69,61.68
40897,747.97,745.60,745.40,743.63,745.65,-71.78,-952.64,357.91,-0.89,-0.23,1.21,62.22
40933,747.98,745.69,745.32,743.58,745.64,-73.73,-957.03,354.00,-1.69,2.22,0.08,61.65
40968,748.08,745.64,745.42,743.62,745.69,-83.98,-952.15,360.35,1.75,0.29,1.11,61.90
41003,748.08,745.58,745.38,743.54,745.64,-72.27,-949.22,343.26,-0.58,-0.90,-3.39,62.18
41045,748.06,745.54,745.33,743.58,745.63,-59.57,-950.68,344.24,0.53,-0.07,-0.06,62.52
41081,748.15,745.51,745.36,743.62,745.66,-71.78,-941.89,353.03,-0.09,-2.79,-1.69,62.70
41117,748.14,745.55,745.36,743.61,745.66,-66.41,-953.61,353.03,-1.11,1.75,-0.79,62.47
41152,748.13,745.46,745.38,743.61,745.65,-81.54,-951.17,355.96,-0.69,0.06,0.82,63.01
41188,748.15,745.54,745.45,743.61,745.68,-79.10,-958.98,354.98,-2.19,-0.19,-1.60,62.45
41223,748.15,745.49,745.39,743.62,745.66,-77.15,-953.12,359.86,-2.48,2.75,-1.11,62.79
41259,748.16,745.50,745.45,743.58,745.67,-62.99,-956.54,358.40,1.75,1.36,-3.40,62.59
41294,748.23,745.58,745.38,743.67,745.72,-72.27,-949.22,353.52,-0.63,0.78,-2.05,62.35
41330,748.23,745.67,745.42,743.63,745.74,-71.78,-954.10,350.59,-0.31,0.05,-1.27,61.67
41365,748.31,745.74,745.43,743.60,745.77,-72.75,-949.71,350.59,-2.34,1.97,-2.38,61.13
41400,748.39,745.74,745.36,743.61,745.78,-75.20,-950.20,360.84,-2.95,0.11,0.20,61.19
41436,748.47,745.75,745.41,743.60,745.81,-72.27,-961.43,354.98,-0.47,1.10,0.86,61.05
41471,748.54,745.75,745.40,743.63,745.83,-70.80,-956.05,364.75,-1.98,0.50,-0.08,61.08
41507,748.53,745.83,745.42,743.60,745.85,-91.31,-951.66,355.47,-0.58,1.06,-1.34,60.52
41542,748.52,745.85,745.40,743.60,745.84,-88.38,-937.50,352.54,-1.36,1.40,0.97,60.42
41577,748.54,745.86,745.44,743.58,745.86,-82.03,-962.40,359.86,-0.95,-0.71,-1.70,60.23
41612,748.53,745.95,745.38,743.55,745.85,-67.38,-957.52,344.24,-0.69,-2.12,-1.18,59.73
41648,748.52,745.98,745.38,743.58,745.86,-75.68,-960.94,346.68,-0.92,0.54,-0.72,59.61
41683,748.48,746.04,745.45,743.62,745.90,-69.82,-954.10,351.56,-0.16,0.76,-2.05,59.25
41722,748.57,746.07,745.41,743.56,745.90,-78.12,-954.59,354.00,0.62,1.63,1.03,58.97
41757,748.59,746.05,745.45,743.62,745.93,-67.87,-957.52,347.66,-1.45,2.03,0.45,59.11
41792,748.63,746.06,745.46,743.64,745.95,-67.87,-964.36,367.68,-0.72,-1.37,-3.21,59.07
41827,748.67,746.06,745.33,743.61,745.92,-76.17,-953.12,351.56,-1.56,1.39,0.42,58.40
41862,748.69,746.09,745.42,743.52,745.93,-63.96,-956.05,359.37,0.52,0.07,1.78,58.67
41897,748.76,746.11,745.39,743.59,745.96,-73.24,-949.71,356.45,-1.29,1.01,-1.63,58.71
41932,748.84,746.16,745.41,743.62,746.01,-76.66,-963.38,349.12,-0.89,2.79,-0.49,58.41
41972,748.70,746.18,745.38,743.61,745.97,-78.61,-946.29,362.79,1.63,-1.18,0.73,58.37
42007,748.75,746.16,745.40,743.61,745.98,-82.03,-958.50,356.45,0.46,-1.85,-2.30,58.40
42043,748.74,746.16,745.39,743.71,746.00,-62.50,-947.27,357.42,0.66,-1.60,-2.82,58.08
42078,748.70,746.18,745.43,743.65,745.99,-74.22,-948.24,353.03,0.53,-1.36,-1.77,58.32
42113,748.73,746.14,745.44,743.70,746.00,-67.38,-954.10,354.49,2.22,-1.56,-0.56,58.69
42149,748.70,746.18,745.42,743.66,745.99,-78.61,-950.20,352.05,0.67,0.27,0.02,58.41
42184,748.75,746.18,745.41,743.64,745.99,-84.47,-953.12,347.17,-2.21,-1.89,-0.65,58.36
42219,748.81,746.16,745.51,743.59,746.02,-77.15,-963.38,359.37,0.98,-0.95,-1.60,58.19
42255,748.74,746.18,745.43,743.66,746.00,-72.75,-956.54,359.86,-1.21,-2.98,0.18,58.39
42290,748.78,746.14,745.46,743.67,746.01,-71.78,-967.77,355.47,-1.40,-2.11,-3.33,58.60
42326,748.82,746.22,745.39,743.65,746.02,-85.45,-954.10,360.84,-0.75,-0.56,-0.48,57.89
42361,748.72,746.23,745.33,743.59,745.97,-78.61,-955.08,344.24,1.06,0.43,-0.97,56.37
42396,748.71,746.24,745.33,743.71,746.00,-68.36,-947.27,348.14,0.31,-0.35,0.01,55.48
42432,748.76,746.16,745.35,743.62,745.97,-83.01,-958.98,350.10,-1.24,0.01,0.08,57.53
42467,748.81,746.14,745.46,743.68,746.02,-65.43,-947.27,360.35,-1.84,-0.51,-1.83,58.59
42502,748.75,746.24,745.43,743.65,746.02,-66.89,-952.15,340.82,-1.66,0.90,-0.53,57.97
42538,748.79,746.27,745.32,743.62,746.00,-75.68,-959.47,355.96,1.44,1.53,0.92,55.43
42574,748.79,746.18,745.47,743.59,746.01,-69.34,-961.43,359.37,-0.83,1.25,0.41,58.17
42610,748.77,746.17,745.37,743.58,745.97,-69.82,-966.31,352.54,-0.34,-1.24,-0.96,58.35
42646,748.79,746.18,745.39,743.60,745.99,-75.20,-954.10,344.24,0.51,-0.08,-1.88,58.29
42681,748.77,746.20,745.36,743.57,745.98,-83.50,-949.71,356.45,-0.02,1.34,-0.69,57.73
42717,748.75,746.21,745.34,743.64,745.99,-82.52,-954.59,354.98,-0.30,-1.57,-3.74,56.74
42753,748.70,746.29,745.45,743.67,746.03,-80.57,-950.68,355.47,-1.15,0.60,-1.55,57.69
42789,748.67,746.25,745.39,743.62,745.98,-74.22,-956.05,354.98,-0.31,-0.74,-1.02,57.88
42824,748.69,746.31,745.46,743.61,746.02,-81.54,-957.52,341.31,-0.82,-0.53,-0.95,57.42
42860,748.77,746.26,745.37,743.61,746.00,-78.61,-970.70,356.45,-0.80,0.18,1.37,57.03
42895,748.76,746.26,745.48,743.64,746.04,-74.22,-957.52,350.59,0.18,-1.84,1.67,57.79
42930,748.82,746.21,745.45,743.57,746.01,-82.52,-958.01,344.24,0.70,0.08,0.56,57.95
42972,748.82,746.27,745.45,743.60,746.04,-83.01,-949.22,344.24,-0.56,2.02,-0.81,57.62
43008,748.84,746.38,745.46,743.60,746.07,-77.64,-957.03,361.82,-2.33,1.62,-0.50,56.96
43044,748.85,746.46,745.40,743.69,746.10,-73.24,-949.22,351.56,-2.63,-0.69,-1.50,54.86
43079,748.88,746.47,745.43,743.69,746.12,-78.12,-956.05,349.12,-0.09,-2.22,-0.18,55.65
43115,748.84,746.46,745.39,743.61,746.08,-74.71,-951.17,354.00,-0.44,-0.13,-2.15,55.15
43150,748.86,746.50,745.41,743.72,746.12,-68.36,-959.47,353.52,-2.30,0.79,-0.72,54.65
43185,748.83,746.40,745.36,743.66,746.06,-78.61,-959.96,351.56,-1.94,2.03,1.05,54.76
43221,748.83,746.48,745.38,743.64,746.08,-77.64,-972.17,352.54,-0.06,0.74,0.20,54.57
43256,748.89,746.49,745.42,743.62,746.10,-67.87,-963.38,351.07,0.28,2.51,-1.44,55.78
43291,748.90,746.54,745.43,743.67,746.13,-72.27,-956.54,351.07,1.55,-0.18,-0.91,55.05
43327,748.84,746.45,745.46,743.76,746.13,-83.50,-946.29,360.84,-1.78,0.36,-1.00,56.09
43365,748.87,746.47,745.45,743.64,746.11,-79.10,-955.57,360.35,-2.92,0.20,-1.42,56.48
43404,748.89,746.40,745.39,743.62,746.07,-78.12,-953.12,349.61,-0.06,0.82,1.30,55.71
43439,748.88,746.46,745.48,743.66,746.12,-60.06,-945.80,346.19,0.75,1.53,-1.50,56.54
43474,748.94,746.47,745.42,743.60,746.11,-70.31,-946.29,357.91,0.26,0.90,-6.46,56.06
43509,748.87,746.42,745.37,743.67,746.08,-73.73,-951.17,345.70,-0.35,-0.45,-1.27,54.57
43544,748.94,746.41,745.36,743.61,746.08,-86.43,-959.47,347.66,1.13,0.56,0.85,54.83
43579,748.91,746.40,745.37,743.66,746.09,-72.27,-961.91,367.68,-2.14,0.96,1.42,54.87
43615,748.93,746.36,745.39,743.63,746.08,-83.98,-958.98,354.49,-0.68,-2.38,0.52,56.00
43650,748.91,746.37,745.43,743.64,746.09,-81.05,-967.29,362.30,-0.44,1.00,-0.38,57.06
43685,748.86,746.40,745.50,743.69,746.11,-80.57,-959.96,352.54,-1.28,-0.70,-2.25,56.96
43721,748.87,746.46,745.43,743.70,746.11,-70.80,-953.12,345.21,-1.78,-0.10,1.12,55.72
43756,748.88,746.36,745.38,743.62,746.06,-59.57,-960.94,327.64,0.25,1.12,-1.13,56.12
43791,748.84,746.44,745.41,743.60,746.07,-75.68,-964.84,350.10,1.28,-0.08,-0.18,56.06
43826,748.94,746.43,745.41,743.68,746.12,-68.85,-955.57,353.52,1.67,1.23,0.22,55.59
43862,748.92,746.43,745.41,743.63,746.10,-80.57,-963.38,355.96,1.91,0.75,-0.60,55.88
43900,748.88,746.39,745.39,743.63,746.07,-64.45,-964.36,341.31,-0.72,0.28,-3.30,55.89
43936,748.90,746.46,745.39,743.66,746.10,-70.80,-955.57,362.30,-1.02,-1.28,-1.99,54.78
43971,749.00,746.40,745.42,743.65,746.12,-68.85,-968.26,360.84,-0.11,-0.14,0.27,56.42
44007,748.91,746.41,745.36,743.69,746.09,-63.96,-960.94,340.82,-0.53,1.73,0.36,54.28
44042,748.93,746.40,745.40,743.67,746.10,-80.08,-959.47,355.96,-0.63,-0.70,-1.08,55.60
44077,748.91,746.54,745.41,743.64,746.12,-72.75,-950.20,343.75,-0.77,3.52,-0.24,54.56
44113,748.87,746.45,745.39,743.76,746.12,-66.41,-954.10,347.17,-1.61,-0.77,-2.17,54.09
44148,748.92,746.40,745.38,743.62,746.08,-70.80,-956.54,351.07,-2.43,-0.07,0.09,55.53
44184,748.98,746.37,745.35,743.66,746.09,-70.31,-962.40,353.03,0.21,-0.60,0.75,54.52
44219,748.94,746.39,745.43,743.64,746.10,-76.66,-959.47,348.14,0.50,-2.05,0.15,56.76
44255,748.95,746.46,745.41,743.72,746.14,-77.64,-943.85,339.36,-1.27,0.97,0.83,54.82
44290,748.94,746.44,745.44,743.63,746.12,-76.66,-962.40,352.54,-0.69,1.37,0.42,56.60
44325,748.96,746.40,745.43,743.63,746.11,-58.59,-958.01,342.77,-0.32,-0.65,1.27,56.77
44361,748.91,746.43,745.41,743.64,746.10,-62.50,-976.56,353.03,-0.42,-0.67,-2.00,55.74
44396,748.97,746.48,745.43,743.69,746.14,-70.31,-952.64,342.77,0.65,-0.48,0.20,55.29
44431,748.96,746.40,745.42,743.60,746.10,-65.92,-949.71,346.19,-0.92,2.21,1.89,56.80
44467,748.91,746.35,745.38,743.60,746.06,-71.78,-956.05,349.12,-0.58,-0.47,-2.57,56.35
44502,748.89,746.39,745.37,743.73,746.10,-81.54,-959.96,349.12,0.51,0.22,-2.75,54.69
44538,748.87,746.41,745.36,743.69,746.08,-62.50,-946.29,352.05,-1.77,0.91,-1.94,54.36
44573,748.97,746.47,745.44,743.65,746.13,-74.71,-940.92,355.47,-0.95,-1.55,-0.82,56.13
44608,748.91,746.44,745.42,743.64,746.10,-72.27,-955.57,350.10,0.96,0.15,-0.26,56.04
44644,748.86,746.38,745.47,743.62,746.08,-45.90,-963.38,343.26,-1.34,0.15,-0.63,56.96
44679,748.95,746.47,745.39,743.62,746.11,-77.64,-950.20,352.54,0.42,-0.25,-1.15,54.83
44715,749.03,746.49,745.39,743.70,746.15,-79.59,-967.77,349.12,-1.61,-0.10,-1.57,54.14
44750,748.89,746.47,745.46,743.72,746.13,-75.68,-957.52,339.36,-0.75,-0.67,-1.05,56.20
44786,748.80,746.48,745.42,743.74,746.11,-75.20,-961.43,333.98,0.27,0.07,-0.21,55.08
44821,748.74,746.51,745.42,743.75,746.10,-65.92,-957.03,337.40,0.89,0.12,-1.39,54.65
44856,748.62,746.37,745.48,743.66,746.03,-81.05,-965.33,338.87,-0.47,1.90,1.30,57.20
44897,748.61,746.27,745.47,743.70,746.01,-70.80,-946.29,340.82,0.24,-0.11,-0.05,57.87
44932,748.72,746.30,745.40,743.62,746.01,-93.75,-960.45,363.28,-0.72,1.33,-1.10,57.43
44967,748.88,746.29,745.43,743.63,746.06,-80.57,-950.20,339.36,-0.66,0.15,-0.37,57.61
45002,749.05,746.33,745.43,743.65,746.12,-82.52,-957.03,354.49,0.09,0.27,0.78,57.30
45037,749.11,746.41,745.42,743.67,746.15,-74.71,-964.36,349.12,-2.28,-0.14,1.50,56.12
45075,749.08,746.42,745.41,743.65,746.14,-80.08,-958.98,351.07,-1.80,2.16,-0.04,55.84
45110,749.05,746.52,745.43,743.66,746.17,-80.08,-957.03,353.03,-1.72,3.39,1.21,54.97
45145,748.97,746.60,745.46,743.70,746.18,-77.15,-955.08,360.84,2.51,-1.21,-2.51,54.60
45180,748.95,746.57,745.40,743.68,746.15,-77.15,-969.24,352.05,2.34,-0.59,-1.85,53.61
45216,748.80,746.54,745.42,743.65,746.10,-84.96,-972.66,343.75,-0.57,-1.17,-1.30,54.67
45251,748.83,746.49,745.36,743.68,746.09,-77.15,-960.94,350.10,2.11,-2.16,-0.34,53.45
45286,748.83,746.47,745.39,743.68,746.09,-91.80,-949.71,354.98,0.05,-1.28,-3.55,54.37
45321,748.94,746.43,745.45,743.64,746.11,-82.52,-951.66,354.49,-0.98,-0.97,-3.01,56.68
45357,748.94,746.47,745.34,743.66,746.10,-67.87,-968.26,353.03,-1.06,-1.78,-1.35,53.01
45392,748.96,746.38,745.45,743.66,746.11,-74.71,-962.89,344.24,-0.14,-1.24,0.14,57.01
45427,748.93,746.40,745.41,743.70,746.11,-80.08,-955.57,352.05,-2.62,0.46,-0.62,55.82
45463,748.93,746.47,745.39,743.67,746.11,-82.52,-960.45,349.61,-0.02,-0.21,-0.64,54.48
45498,748.97,746.53,745.39,743.69,746.15,-67.38,-955.08,354.00,-0.64,0.08,-1.34,53.65
45533,748.87,746.48,745.34,743.64,746.08,-73.24,-964.84,351.56,-0.84,2.65,-1.09,53.35
45569,748.93,746.41,745.44,743.68,746.11,-70.80,-955.08,351.56,0.69,-0.66,-1.07,56.82
45604,748.85,746.44,745.39,743.70,746.10,-68.85,-955.08,345.70,0.47,1.37,-1.33,54.87
45640,748.89,746.49,745.42,743.68,746.12,-80.57,-947.75,342.29,-0.45,-1.50,0.02,55.25
45675,748.89,746.57,745.49,743.67,746.15,-77.15,-950.68,347.17,-0.20,3.55,-0.19,55.86
45710,748.93,746.54,745.41,743.70,746.14,-66.41,-955.57,349.61,0.06,0.86,-0.11,53.98
45746,748.96,746.47,745.40,743.70,746.13,-90.82,-956.54,346.68,-0.78,1.44,0.02,54.62
45781,748.99,746.48,745.46,743.66,746.15,-78.61,-954.59,346.68,-1.66,-1.08,-0.19,56.33
45820,748.90,746.51,745.54,743.68,746.16,-66.41,-950.20,356.45,0.87,0.21,0.82,56.18
45855,748.89,746.49,745.40,743.67,746.11,-75.20,-960.94,346.19,0.05,1.27,-2.01,54.70
45890,748.87,746.54,745.43,743.77,746.15,-64.94,-960.94,345.70,0.45,0.56,-0.41,54.22
45926,748.89,746.57,745.49,743.68,746.16,-79.10,-962.89,342.29,-1.92,1.32,0.02,55.87
45961,748.78,746.61,745.41,743.68,746.12,-70.31,-970.21,347.17,0.08,-1.15,1.20,53.44
45996,748.76,746.55,745.41,743.69,746.10,-68.36,-955.57,360.84,-2.76,0.32,0.69,54.27
46032,748.80,746.54,745.40,743.73,746.12,-72.27,-969.24,363.28,-0.69,0.73,-1.55,53.71
46067,748.79,746.53,745.46,743.70,746.12,-72.75,-963.38,351.07,-1.37,0.81,-2.89,55.71
46103,748.77,746.49,745.46,743.70,746.11,-70.31,-966.31,358.40,0.62,-2.52,0.27,56.24
46138,748.93,746.53,745.42,743.63,746.13,-81.05,-954.10,359.37,-0.89,-1.96,-3.08,55.15
46174,748.92,746.45,745.48,743.66,746.13,-80.57,-954.59,355.96,-1.92,1.56,0.37,56.59
46209,748.93,746.45,745.37,743.67,746.10,-72.75,-959.47,346.68,-1.23,1.57,-0.44,54.31
46244,749.03,746.51,745.40,743.72,746.17,-68.85,-954.59,346.68,-0.49,-0.17,-2.59,54.05
46280,748.83,746.51,745.38,743.71,746.11,-83.50,-965.82,343.75,-1.11,0.84,0.66,53.52
46315,748.86,746.55,745.34,743.69,746.11,-75.20,-953.12,346.68,1.21,0.66,1.05,52.12
46351,748.79,746.50,745.38,743.68,746.09,-66.41,-958.50,344.73,0.02,-0.67,-0.47,53.93
46386,748.65,746.60,745.40,743.66,746.08,-83.98,-962.40,350.10,-0.49,-0.86,0.85,53.44
46421,748.77,746.64,745.51,743.68,746.15,-68.36,-957.03,346.19,0.15,0.95,-2.70,55.45
46459,748.82,746.64,745.45,743.72,746.16,-79.59,-964.84,343.26,-1.19,3.42,-2.40,54.09
46494,748.84,746.61,745.45,743.69,746.15,-86.91,-950.68,345.70,-1.63,0.69,-0.26,54.56
46530,748.91,746.60,745.43,743.70,746.16,-76.17,-969.24,340.82,0.52,0.50,-2.08,54.03
46565,749.00,746.60,745.41,743.67,746.17,-77.64,-953.12,350.59,-0.68,3.97,-2.62,53.58
46601,749.00,746.58,745.36,743.60,746.13,-78.12,-945.80,344.24,-0.27,-1.88,-0.83,52.83
46636,749.00,746.60,745.46,743.67,746.18,-70.31,-961.43,343.75,-1.91,-0.83,1.43,55.09
46671,748.92,746.64,745.41,743.70,746.17,-80.57,-960.94,344.73,0.32,1.97,-0.07,52.85
46706,748.95,746.61,745.38,743.74,746.17,-75.68,-954.10,351.07,1.50,0.04,0.86,52.00
46742,748.88,746.68,745.47,743.69,746.18,-65.92,-956.54,355.47,-1.08,0.13,-1.69,54.24
46784,748.82,746.59,745.44,743.64,746.12,-85.45,-950.68,350.10,-0.56,1.31,-1.01,54.96
46820,748.81,746.62,745.45,743.76,746.16,-74.71,-955.08,346.68,-0.02,-2.13,-0.17,53.91
46855,748.86,746.60,745.45,743.76,746.17,-79.10,-969.73,344.73,-0.13,-3.01,-2.25,54.13
46890,748.87,746.57,745.44,743.69,746.14,-84.96,-959.96,344.73,-1.95,1.37,0.67,54.53
46928,748.88,746.58,745.40,743.70,746.14,-80.08,-949.71,333.01,0.39,-2.34,-1.11,53.35
46964,748.92,746.53,745.38,743.75,746.15,-87.89,-964.36,343.26,0.98,2.31,-0.46,52.76
46999,748.89,746.56,745.38,743.67,746.13,-84.96,-966.80,339.84,-0.47,-0.28,0.40,53.21
47035,748.90,746.55,745.50,743.68,746.16,-72.27,-950.20,350.10,-1.71,-1.21,-1.47,55.97
47071,748.95,746.55,745.47,743.80,746.19,-72.27,-955.08,340.82,-0.42,-0.58,0.47,54.83
47106,748.83,746.52,745.48,743.69,746.13,-80.08,-951.17,330.08,-0.37,2.02,0.76,56.24
47142,748.87,746.54,745.46,743.66,746.13,-78.12,-956.05,345.21,0.66,-0.63,-0.09,55.77
47177,748.88,746.56,745.40,743.68,746.13,-79.10,-949.22,346.68,-0.67,0.63,-1.78,53.85
47212,748.88,746.59,745.40,743.68,746.14,-66.89,-963.87,352.05,-0.11,0.92,1.22,53.37
47249,748.95,746.49,745.46,743.65,746.14,-72.75,-952.64,350.59,-0.43,-0.25,0.09,56.29
47284,748.95,746.54,745.45,743.69,746.16,-84.96,-960.45,340.33,-0.48,0.56,2.18,55.37
47320,748.87,746.56,745.42,743.70,746.14,-76.17,-958.98,356.93,-2.09,1.78,-0.70,54.22
47355,748.83,746.61,745.48,743.70,746.15,-76.17,-955.57,346.68,-0.12,-0.96,2.65,55.46
47390,748.92,746.53,745.39,743.70,746.14,-78.12,-951.17,354.00,-0.37,1.73,0.47,53.62
47426,748.95,746.61,745.44,743.64,746.16,-67.87,-955.57,345.21,0.60,0.10,0.27,54.56
47461,748.91,746.56,745.42,743.68,746.14,-83.98,-958.98,351.56,-0.24,-1.69,0.92,54.14
47497,748.89,746.59,745.41,743.67,746.14,-90.33,-958.50,343.75,0.29,0.26,-1.16,53.89
47532,748.92,746.52,745.48,743.70,746.15,-80.08,-954.10,359.37,-1.17,-0.96,-1.95,56.25
47568,748.96,746.65,745.42,743.71,746.19,-71.29,-950.20,347.66,-1.14,3.11,-0.56,52.99
47603,748.89,746.59,745.42,743.67,746.14,-81.05,-961.43,344.73,-1.21,-1.18,0.58,53.88
47638,748.87,746.57,745.40,743.69,746.13,-81.05,-962.40,353.03,-0.18,2.95,0.28,53.55
47674,748.93,746.53,745.44,743.62,746.13,-69.82,-967.77,349.61,-0.31,1.99,-0.35,55.69
47709,748.93,746.53,745.45,743.66,746.14,-85.45,-958.01,341.31,0.01,0.69,-1.93,55.65
47749,748.86,746.60,745.51,743.68,746.16,-73.24,-954.59,356.45,-0.47,1.73,-1.47,55.70
47784,748.92,746.50,745.46,743.68,746.14,-75.20,-963.38,349.12,0.71,-1.96,-0.53,56.25
47820,748.94,746.53,745.41,743.71,746.15,-72.27,-954.10,341.31,-0.26,3.66,1.69,54.09
47855,748.89,746.52,745.48,743.73,746.16,-67.87,-945.80,347.17,0.18,-0.24,0.63,56.27
47891,748.90,746.55,745.49,743.67,746.15,-63.96,-946.29,342.77,-0.02,4.33,-2.15,55.96
47926,748.86,746.56,745.46,743.70,746.14,-69.34,-961.43,349.61,0.42,0.31,-0.93,55.31
47962,748.94,746.52,745.45,743.64,746.14,-79.10,-957.03,345.70,-1.52,0.82,0.70,56.00
47997,748.91,746.48,745.45,743.74,746.14,-68.36,-951.17,354.98,-0.96,-1.62,0.75,55.80
48033,748.82,746.55,745.48,743.67,746.13,-71.78,-955.57,350.10,0.73,-2.15,0.01,56.04
48068,748.82,746.53,745.45,743.74,746.14,-69.82,-956.05,355.96,1.03,1.77,0.40,55.30
48103,748.79,746.58,745.49,743.75,746.15,-64.94,-951.66,352.05,0.96,0.95,-2.02,55.49
48139,748.82,746.56,745.48,743.74,746.15,-78.12,-972.66,342.77,-3.22,-1.34,-1.24,55.60
48174,748.86,746.56,745.49,743.67,746.15,-76.66,-968.75,342.77,-0.22,0.95,-1.86,55.91
48209,748.90,746.56,745.50,743.72,746.17,-82.03,-951.17,349.12,0.30,0.09,0.47,56.02
48245,748.85,746.59,745.48,743.72,746.16,-72.75,-952.15,352.54,-0.56,-0.49,0.88,55.45
48280,748.96,746.63,745.45,743.76,746.20,-71.29,-951.66,332.52,-0.21,-0.33,-1.74,53.70
48315,748.95,746.59,745.49,743.77,746.20,-86.91,-958.01,345.70,2.47,0.50,-1.02,55.25
48350,748.90,746.63,745.47,743.70,746.17,-71.29,-944.34,338.87,0.48,2.03,-2.06,54.76
48385,748.90,746.58,745.43,743.69,746.15,-72.27,-962.40,351.07,-0.89,-0.98,-1.28,54.25
48421,748.90,746.59,745.49,743.72,746.17,-71.29,-962.40,343.26,-1.63,-0.04,-1.34,55.67
48458,748.92,746.59,745.49,743.66,746.17,-78.12,-963.87,334.47,0.07,-1.31,-1.85,55.68
48493,748.87,746.59,745.44,743.72,746.16,-73.73,-954.59,340.33,-0.74,2.15,0.71,54.31
48529,748.93,746.59,745.47,743.67,746.16,-81.54,-956.05,346.19,-0.17,0.19,-2.20,55.56
48564,748.85,746.60,745.50,743.71,746.17,-70.31,-966.80,344.24,0.46,-1.11,-1.15,55.75
48599,748.92,746.58,745.48,743.64,746.15,-79.59,-961.91,334.47,-1.20,-1.19,-0.48,55.75
48634,748.91,746.56,745.49,743.76,746.18,-70.31,-961.43,359.37,-0.33,-0.15,-1.84,55.55
48669,748.87,746.49,745.49,743.67,746.13,-82.52,-959.96,352.05,-0.15,2.41,-0.79,56.38
48711,748.91,746.57,745.46,743.68,746.15,-82.03,-954.10,345.70,-0.21,2.04,0.07,55.47
48747,748.90,746.59,745.40,743.70,746.15,-54.20,-960.45,354.00,0.64,1.79,1.66,53.24
48782,748.93,746.53,745.36,743.73,746.14,-82.03,-952.15,334.96,-0.98,-3.41,1.31,52.40
48817,748.88,746.55,745.47,743.73,746.16,-71.78,-971.68,364.75,-0.03,0.75,-2.51,55.61
48853,748.90,746.56,745.41,743.73,746.15,-67.87,-954.10,349.61,0.61,-0.66,-1.56,53.48
48888,748.83,746.58,745.45,743.66,746.13,-76.66,-971.19,348.63,-0.46,0.99,-2.96,55.22
48924,748.90,746.53,745.47,743.70,746.15,-78.61,-955.08,341.31,-1.34,-0.66,-0.59,55.99
48959,748.83,746.58,745.48,743.72,746.15,-64.45,-949.71,352.54,-2.36,2.08,-1.56,55.51
48994,748.75,746.51,745.47,743.67,746.10,-88.38,-958.98,348.14,-1.44,-1.54,0.63,56.31
49030,748.66,746.51,745.55,743.76,746.12,-77.64,-956.54,345.70,0.45,-0.07,0.15,56.42
49065,748.63,746.59,745.40,743.70,746.08,-70.31,-957.03,361.33,0.82,0.03,0.52,53.42
49100,748.56,746.49,745.42,743.73,746.05,-77.64,-957.03,354.98,-1.19,-1.16,0.40,55.06
49136,748.57,746.51,745.45,743.72,746.06,-77.64,-958.98,354.98,-0.25,-0.34,-0.05,55.97
49171,748.63,746.41,745.46,743.73,746.06,-71.78,-950.68,340.33,0.27,0.27,0.32,57.03
49207,748.60,746.40,745.42,743.69,746.03,-75.20,-959.47,350.10,-0.47,-0.58,-1.04,56.34
49242,748.58,746.42,745.46,743.73,746.05,-72.75,-953.61,338.87,-0.27,-1.01,-2.28,57.02
49277,748.52,746.46,745.44,743.67,746.02,-77.15,-954.10,350.59,1.53,0.30,-0.13,56.51
49313,748.54,746.46,745.45,743.73,746.04,-64.94,-960.45,350.59,-0.68,-1.05,-1.08,56.17
49348,748.52,746.45,745.47,743.71,746.04,-70.80,-962.89,357.91,-0.26,2.48,0.98,56.84
49383,748.52,746.39,745.43,743.74,746.02,-82.03,-965.82,347.17,-0.02,-1.11,0.98,56.40
49419,748.50,746.38,745.43,743.73,746.01,-75.68,-952.15,350.59,-0.32,0.18,-1.47,56.82
49454,748.50,746.36,745.44,743.80,746.03,-75.20,-951.17,350.10,-0.15,1.32,-1.62,56.75
