currTime,s1,s2,s3,s4,s,AccX,AccY,AccZ,GyroX,GyroY,GyroZ,GRF
25,798.71,768.40,768.41,766.90,775.61,122.56,-827.15,558.59,-0.37,3.68,0.66,-127.67
59,798.76,768.41,768.44,766.83,775.61,111.82,-844.24,556.15,-0.82,2.56,0.12,-126.23
93,798.60,768.38,768.36,766.83,775.54,123.54,-840.82,562.50,1.67,0.85,2.73,-127.41
127,798.56,768.28,768.38,766.75,775.49,114.26,-833.98,557.62,-0.15,1.63,-1.21,-124.80
160,798.46,768.32,768.36,766.69,775.46,103.52,-830.57,571.78,-0.79,-1.02,4.27,-124.34
194,798.38,768.30,768.34,766.66,775.42,118.16,-845.21,559.08,-1.52,0.94,1.39,-123.89
228,798.20,768.22,768.36,766.57,775.34,99.12,-852.54,538.09,-1.77,1.86,-0.24,-120.82
262,798.10,768.23,768.33,766.57,775.31,114.26,-842.29,527.83,1.08,1.31,-0.33,-121.36
296,798.05,768.12,768.29,766.53,775.25,118.65,-862.30,554.20,1.09,1.31,0.24,-120.78
330,798.08,768.17,768.24,766.54,775.25,118.16,-825.68,562.99,1.76,3.72,2.73,-122.53
365,798.10,768.11,768.26,766.63,775.27,115.23,-860.84,549.32,1.74,2.25,0.10,-122.92
399,798.11,768.18,768.31,766.50,775.28,110.84,-840.82,552.73,1.63,0.60,0.53,-120.35
433,798.12,768.17,768.22,766.45,775.24,116.70,-829.10,575.20,2.15,-0.08,-0.16,-121.97
467,798.22,768.12,768.29,766.44,775.27,115.23,-851.07,560.55,-0.91,0.21,2.02,-119.90
501,798.30,768.22,768.32,766.46,775.33,118.65,-844.73,572.75,-1.50,-0.66,3.43,-120.72
535,798.38,768.20,768.25,766.49,775.33,118.16,-849.61,563.96,0.17,0.14,2.97,-122.91
569,798.45,768.18,768.12,766.50,775.31,113.77,-851.07,570.80,1.39,2.24,1.60,-126.27
603,798.59,768.24,768.25,766.48,775.39,121.09,-820.31,555.66,-1.10,2.44,1.02,-123.65
637,798.78,768.22,768.19,766.44,775.41,114.26,-840.33,560.55,1.47,3.17,-0.68,-125.21
672,798.80,768.20,768.30,766.45,775.44,106.93,-845.70,562.01,0.44,0.40,2.41,-122.56
706,798.93,768.26,768.31,766.42,775.48,113.77,-841.31,556.64,1.86,0.82,-1.65,-122.65
740,799.15,768.26,768.27,766.51,775.55,106.45,-834.96,566.41,-0.73,0.84,-0.04,-125.86
774,799.34,768.29,768.30,766.56,775.62,106.45,-844.73,564.94,0.46,0.85,0.50,-126.54
808,799.44,768.30,768.31,766.52,775.64,108.89,-832.52,560.06,2.07,-1.02,1.00,-126.16
842,799.58,768.23,768.23,766.56,775.65,96.19,-836.91,568.85,0.74,-0.42,0.02,-128.74
878,799.73,768.29,768.24,766.52,775.69,114.26,-827.64,565.92,0.70,-0.39,1.92,-129.00
912,799.84,768.18,768.25,766.55,775.71,105.96,-860.84,560.55,0.99,-0.20,0.40,-128.56
946,799.81,768.28,768.25,766.57,775.73,102.05,-825.68,558.59,-0.87,1.41,-1.39,-129.61
980,799.82,768.31,768.19,766.65,775.74,107.91,-846.19,564.45,-0.31,-0.69,0.29,-132.62
1014,799.90,768.29,768.26,766.69,775.78,114.75,-839.84,559.57,-1.96,1.17,0.18,-131.63
1049,799.75,768.27,768.36,766.71,775.77,118.16,-848.63,560.55,0.02,0.87,2.13,-128.52
1083,799.76,768.18,768.29,766.74,775.74,119.14,-842.77,566.89,3.18,0.76,0.92,-130.03
1117,799.75,768.28,768.35,766.69,775.77,102.05,-851.56,557.13,-0.40,2.93,-1.20,-128.68
1151,799.87,768.26,768.40,766.76,775.82,133.79,-846.19,564.94,-1.09,0.99,-0.34,-128.71
1185,800.04,768.26,768.35,766.80,775.86,111.33,-842.77,561.52,1.52,0.56,1.22,-130.97
1219,800.06,768.28,768.33,766.88,775.89,119.63,-836.91,556.64,-0.16,0.36,0.89,-133.21
1253,800.10,768.28,768.34,766.86,775.90,100.10,-847.17,564.45,0.65,1.42,0.15,-132.68
1288,800.26,768.31,768.47,766.83,775.97,102.05,-828.12,568.36,0.92,3.03,1.81,-129.82
1322,800.43,768.30,768.36,766.99,776.02,116.21,-847.17,562.99,0.91,1.40,0.72,-135.46
1356,800.52,768.39,768.36,766.93,776.05,111.82,-836.91,550.29,1.76,1.24,2.03,-135.49
1390,800.37,768.45,768.34,766.94,776.02,115.23,-851.07,584.96,-1.07,1.37,1.55,-136.03
1424,800.18,768.47,768.39,767.00,776.01,122.07,-840.33,552.25,1.61,1.47,1.43,-135.09
1457,800.10,768.52,768.43,766.91,775.99,119.63,-842.29,558.11,1.16,0.49,1.46,-133.13
1491,799.89,768.50,768.43,767.04,775.96,116.21,-837.40,569.82,-0.57,2.21,1.92,-133.90
1524,799.53,768.43,768.45,767.08,775.87,118.65,-830.08,562.99,0.50,0.44,0.27,-132.35
1558,799.04,768.47,768.41,767.09,775.75,109.37,-841.80,554.69,0.67,-0.31,1.48,-132.06
1592,798.52,768.51,768.49,767.09,775.65,92.29,-857.91,572.27,-0.45,0.61,-0.76,-128.66
1626,798.21,768.48,768.55,767.20,775.61,108.40,-840.82,561.04,0.97,1.15,1.78,-127.53
1660,797.81,768.52,768.63,767.24,775.55,121.58,-839.84,582.52,2.47,3.11,-0.45,-125.01
1694,797.56,768.52,768.54,767.39,775.50,102.54,-843.75,555.18,0.52,-1.17,-2.46,-128.66
1727,797.19,768.59,768.65,767.53,775.49,107.42,-845.70,566.41,0.38,0.96,-1.84,-127.20
1761,797.04,768.59,768.68,767.58,775.47,123.05,-842.77,566.41,0.05,-1.24,-2.44,-126.72
1797,796.80,768.57,768.72,767.67,775.44,124.02,-839.84,557.13,1.42,1.18,-1.07,-126.07
1830,796.59,768.50,768.71,767.80,775.40,108.40,-854.49,563.96,0.42,2.11,1.33,-126.85
1865,796.50,768.64,768.75,767.90,775.45,111.82,-822.75,559.57,0.29,1.03,0.12,-128.14
1899,796.44,768.65,768.80,768.01,775.47,98.14,-849.61,550.78,0.30,1.94,-2.17,-128.59
1933,796.39,768.74,768.86,768.15,775.53,107.91,-836.91,569.82,2.08,3.19,3.40,-129.62
1967,796.47,768.83,768.84,768.20,775.59,105.96,-844.24,571.78,0.32,1.31,0.97,-131.68
2001,796.58,768.86,768.94,768.20,775.65,105.47,-839.84,572.75,1.02,2.55,-2.15,-130.03
2035,796.66,768.94,768.98,768.33,775.73,100.59,-836.91,563.96,0.63,1.71,-0.32,-131.99
2069,796.63,768.96,769.02,768.39,775.75,98.63,-849.12,554.69,1.81,0.45,2.27,-131.72
2103,796.54,769.06,769.02,768.55,775.79,108.40,-836.91,567.87,1.81,3.25,1.53,-134.48
2137,796.45,769.11,769.04,768.66,775.82,110.84,-835.45,566.41,0.69,0.66,0.77,-135.79
2171,796.41,769.23,769.15,768.87,775.91,118.16,-825.68,562.50,0.92,1.85,2.25,-137.07
2205,796.24,769.25,769.20,768.93,775.90,125.49,-845.21,568.36,2.59,-0.03,-0.23,-136.36
2240,796.00,769.33,769.33,769.14,775.95,117.19,-835.94,577.64,0.37,0.79,0.96,-135.97
2274,795.67,769.46,769.48,769.48,776.02,94.73,-842.29,583.98,1.21,-0.52,0.58,-137.11
2308,795.29,769.55,769.56,769.71,776.03,106.93,-839.84,567.38,0.83,2.99,0.53,-137.70
2342,795.00,769.65,769.60,769.89,776.04,108.89,-840.82,566.41,-0.18,4.03,5.10,-139.31
2376,794.65,769.68,769.76,770.03,776.03,112.79,-835.45,561.04,0.32,2.20,0.78,-136.45
2410,794.29,769.79,769.85,770.22,776.04,123.54,-834.96,570.31,1.97,-1.00,1.81,-136.71
2444,793.92,769.81,769.92,770.46,776.03,103.52,-817.87,578.12,0.60,0.15,0.33,-137.29
2478,793.54,769.82,770.00,770.50,775.97,100.59,-818.36,577.64,-0.46,1.86,1.29,-134.72
2512,793.14,769.93,770.11,770.57,775.94,112.79,-840.33,567.38,0.34,1.56,0.66,-132.38
2546,792.86,769.99,770.12,770.71,775.92,105.47,-848.63,568.85,1.44,3.15,-1.34,-133.87
2581,792.58,770.02,770.11,770.74,775.86,105.96,-844.24,570.80,0.60,1.95,0.99,-133.64
2615,792.39,770.12,770.13,770.80,775.86,100.10,-838.87,585.94,0.40,-0.04,0.99,-134.31
2649,792.26,770.17,770.25,770.81,775.88,109.37,-834.47,580.08,-0.55,2.69,1.64,-131.62
2683,792.23,770.30,770.24,770.91,775.92,127.93,-828.12,571.78,-0.63,-0.27,1.24,-134.06
2718,792.17,770.28,770.26,770.89,775.90,101.07,-849.12,567.38,-1.22,2.42,0.40,-132.88
2753,792.17,770.30,770.21,770.92,775.90,109.86,-839.36,555.18,-0.37,2.85,0.23,-134.77
2787,792.31,770.28,770.27,770.92,775.94,104.98,-833.50,558.11,2.01,1.21,-0.26,-133.70
2821,792.26,770.33,770.24,770.97,775.95,102.05,-831.54,577.15,0.79,0.38,-0.59,-135.37
2855,792.28,770.39,770.30,770.94,775.98,104.00,-836.43,572.27,0.86,2.53,2.29,-133.90
2889,792.41,770.40,770.33,771.11,776.07,109.86,-846.19,572.27,0.60,0.85,1.07,-136.26
2923,792.43,770.51,770.26,771.12,776.08,112.79,-835.94,567.38,0.18,1.78,-0.32,-138.93
2957,792.46,770.50,770.35,771.22,776.13,103.03,-833.01,574.22,-1.21,2.12,-0.82,-138.33
2991,792.33,770.47,770.35,771.31,776.11,101.56,-836.91,571.29,2.75,0.64,-1.39,-139.03
3026,792.19,770.66,770.46,771.43,776.18,84.47,-842.29,575.68,-0.01,-1.03,-2.23,-138.93
3059,791.74,770.74,770.56,771.65,776.17,98.63,-844.73,561.52,1.62,1.87,-0.40,-138.94
3093,791.21,770.83,770.70,771.97,776.18,114.75,-842.29,578.12,3.46,2.11,-1.66,-139.00
3126,790.68,770.97,770.92,772.27,776.21,105.47,-837.40,566.89,0.92,-0.92,1.16,-137.14
3160,790.10,771.14,771.02,772.58,776.21,106.93,-835.45,569.82,1.59,2.01,0.54,-138.65
3193,789.55,771.26,771.20,772.84,776.21,104.49,-821.78,579.59,1.56,0.25,-0.47,-137.16
3227,789.15,771.31,771.31,773.03,776.20,107.91,-836.91,583.50,0.47,3.19,1.42,-136.14
3261,789.08,771.32,771.27,773.21,776.22,111.82,-842.77,575.68,-2.40,-0.10,4.15,-139.58
3295,789.23,771.33,771.32,773.26,776.28,104.49,-822.75,584.96,2.00,-1.95,1.50,-139.64
3329,789.40,771.38,771.31,773.22,776.33,114.26,-819.82,581.05,1.24,0.30,1.64,-140.35
3363,789.56,771.45,771.30,773.14,776.36,98.14,-840.33,575.20,0.34,2.44,-0.17,-140.63
3396,789.68,771.42,771.34,773.02,776.37,112.30,-837.40,572.75,-0.02,-0.16,0.89,-138.00
3430,789.81,771.36,771.24,772.97,776.34,107.42,-842.77,572.75,1.18,1.29,1.75,-139.65
3464,789.86,771.43,771.26,772.87,776.35,105.96,-829.59,578.12,-0.75,3.09,1.38,-138.47
3498,790.00,771.42,771.22,772.83,776.37,115.23,-835.45,576.66,2.68,0.50,-0.22,-139.36
3532,790.09,771.43,771.18,772.75,776.36,102.05,-830.08,568.85,-1.37,2.02,2.23,-139.51
3566,790.14,771.51,771.20,772.69,776.38,106.45,-827.64,583.50,0.05,0.96,0.63,-138.85
3601,790.25,771.43,771.23,772.62,776.38,116.21,-839.84,568.85,1.19,3.96,-0.69,-136.99
3636,790.28,771.53,771.26,772.51,776.39,106.45,-829.10,583.01,0.60,2.54,1.73,-135.57
3670,790.24,771.46,771.20,772.46,776.34,113.28,-826.66,573.73,-0.99,2.40,-1.12,-135.41
3705,790.22,771.48,771.19,772.31,776.30,100.10,-824.22,571.29,-1.30,3.82,-0.73,-133.57
3739,790.25,771.50,771.18,772.36,776.32,104.98,-822.75,570.31,1.34,1.80,-1.28,-134.88
3773,790.27,771.49,771.19,772.35,776.33,107.42,-833.01,574.22,1.62,1.05,0.42,-134.58
3807,790.21,771.44,771.13,772.23,776.25,104.49,-842.77,571.29,-0.88,0.09,1.56,-133.62
3841,790.17,771.40,771.11,772.20,776.22,96.68,-834.96,578.61,2.29,0.94,-1.59,-133.20
3875,790.23,771.28,771.06,772.12,776.17,108.40,-826.66,574.22,-0.48,2.19,-0.27,-132.62
3909,790.58,771.24,770.96,771.97,776.19,112.79,-845.70,558.59,-0.40,0.94,-0.86,-133.45
3943,791.44,771.04,770.86,771.67,776.25,103.03,-822.27,558.11,0.65,0.85,0.24,-133.00
3977,792.36,770.93,770.67,771.37,776.33,101.56,-840.33,568.36,-0.08,2.47,1.92,-135.70
4011,793.42,770.95,770.54,771.15,776.51,111.33,-829.10,585.45,-0.18,2.89,-2.07,-139.48
4045,794.76,770.90,770.43,770.98,776.77,91.31,-839.84,581.54,1.47,2.35,1.02,-143.81
4080,796.18,770.90,770.41,770.78,777.07,104.00,-836.43,586.91,0.78,1.44,0.90,-146.34
4114,797.38,771.06,770.36,770.61,777.35,113.77,-820.80,571.78,-0.24,2.05,0.47,-150.58
4148,798.78,771.14,770.25,770.62,777.70,114.75,-844.73,573.73,-0.05,2.02,0.45,-158.94
4182,799.89,771.24,770.35,770.60,778.02,108.89,-822.27,583.98,0.26,4.80,2.96,-160.67
4216,801.00,771.28,770.28,770.71,778.32,105.96,-831.05,580.08,1.37,1.24,2.62,-168.06
4250,801.87,771.37,770.27,770.73,778.56,96.19,-831.54,577.64,0.86,2.60,0.36,-172.54
4284,802.64,771.40,770.29,770.75,778.77,104.98,-825.68,583.01,0.92,2.30,0.97,-174.90
4318,803.11,771.37,770.30,770.77,778.89,91.80,-828.12,590.82,1.54,0.93,-1.18,-176.37
4352,803.60,771.42,770.24,770.69,778.99,103.03,-820.31,579.10,-0.75,0.63,0.56,-179.00
4386,803.87,771.51,770.27,770.73,779.10,100.10,-836.43,581.54,1.07,0.75,2.52,-180.30
4421,803.96,771.44,770.28,770.66,779.09,105.47,-829.10,584.47,-0.32,0.64,2.21,-178.84
4455,803.91,771.41,770.32,770.79,779.11,92.77,-832.03,591.31,4.11,0.59,2.11,-179.36
4489,803.82,771.54,770.32,770.69,779.09,100.59,-824.22,585.45,0.83,0.43,1.11,-178.59
4523,803.67,771.59,770.36,770.75,779.09,100.59,-839.36,582.03,1.71,1.16,-1.25,-178.32
4558,803.60,771.64,770.38,770.78,779.10,98.14,-828.12,578.61,-0.15,3.01,1.09,-178.58
4593,803.63,771.55,770.32,770.85,779.09,99.61,-826.66,595.21,1.50,3.11,1.11,-180.47
4627,803.59,771.49,770.27,770.87,779.05,106.45,-823.73,572.27,-0.96,2.42,0.21,-181.30
4660,803.60,771.49,770.25,770.72,779.01,109.37,-832.52,570.80,-2.04,0.85,1.93,-179.71
4694,803.50,771.38,770.28,770.75,778.98,91.31,-838.87,578.12,0.37,0.44,0.81,-177.97
4727,803.39,771.39,770.29,770.78,778.96,113.77,-819.82,581.54,0.38,0.74,-1.73,-177.96
4761,803.40,771.31,770.30,770.69,778.92,97.66,-824.71,581.05,0.99,0.02,1.50,-175.87
4795,803.28,771.26,770.29,770.57,778.85,95.70,-836.91,580.08,-1.52,0.79,0.65,-173.52
4828,803.25,771.18,770.20,770.51,778.79,104.98,-824.71,582.52,0.31,0.82,0.13,-174.05
4862,803.18,771.21,770.24,770.40,778.76,91.31,-840.33,587.89,-0.76,-1.15,1.60,-171.41
4896,802.83,771.12,770.22,770.19,778.59,100.10,-821.29,590.82,0.59,0.85,-1.34,-166.80
4930,802.51,770.98,770.20,770.20,778.47,114.75,-826.17,569.82,-0.49,0.36,1.45,-165.36
4964,802.16,771.00,770.27,770.20,778.41,96.68,-825.68,573.73,0.72,0.79,-2.24,-162.73
4998,801.81,770.90,770.30,770.21,778.30,102.54,-831.05,560.55,0.27,1.21,-0.63,-160.06
5031,801.50,770.96,770.28,770.23,778.24,106.93,-819.82,587.40,2.05,3.23,0.21,-160.26
5065,801.25,770.91,770.24,770.28,778.17,95.70,-833.98,577.64,0.96,1.61,-0.77,-160.55
5099,800.81,770.81,770.28,770.43,778.08,98.63,-829.59,572.75,0.97,1.65,-2.96,-159.61
5133,800.31,770.90,770.28,770.47,777.99,104.00,-825.68,580.57,1.89,2.76,-0.29,-159.12
5168,799.97,770.87,770.32,770.54,777.93,105.96,-827.15,593.75,1.64,1.41,-2.09,-158.00
5202,799.74,770.84,770.36,770.67,777.90,102.05,-827.15,581.54,-1.11,3.84,-0.09,-157.58
5236,799.36,770.81,770.42,770.64,777.81,97.66,-821.78,581.54,-0.18,0.83,0.72,-154.21
5270,799.31,770.85,770.32,770.81,777.82,116.70,-815.92,587.89,2.27,-0.24,0.01,-159.33
5304,799.31,770.91,770.39,770.79,777.85,97.66,-814.45,591.31,0.95,-0.05,-1.06,-157.84
5338,799.34,770.84,770.39,770.83,777.85,96.19,-819.82,587.89,1.11,-0.55,-0.25,-157.90
5372,799.33,770.83,770.39,770.73,777.82,103.03,-832.03,583.98,-0.43,0.18,-1.42,-156.27
5406,799.32,770.81,770.36,770.70,777.80,111.33,-823.73,583.01,-0.90,0.87,0.57,-156.37
5441,799.32,770.81,770.33,770.62,777.77,97.17,-827.15,595.21,-0.74,1.73,1.99,-156.06
5476,799.19,770.76,770.32,770.61,777.72,98.63,-830.08,578.12,1.56,2.56,2.12,-155.32
5511,798.94,770.64,770.29,770.55,777.61,112.30,-844.73,586.91,-1.60,0.26,0.03,-153.33
5545,798.48,770.70,770.33,770.47,777.49,112.79,-829.10,568.36,0.37,1.22,2.98,-150.09
5579,797.88,770.58,770.29,770.47,777.30,114.26,-832.03,582.03,1.21,-1.02,0.36,-147.92
5613,797.29,770.60,770.31,770.48,777.17,101.56,-821.78,576.66,-1.37,4.56,1.03,-145.85
5647,796.88,770.49,770.30,770.41,777.02,101.56,-839.84,587.40,0.00,-0.27,0.99,-142.68
5681,796.41,770.43,770.22,770.38,776.86,98.14,-825.68,568.36,-4.05,0.85,0.79,-142.14
5715,795.84,770.46,770.25,770.22,776.69,105.96,-836.43,560.06,-2.73,2.49,-1.07,-137.31
5749,795.58,770.40,770.28,770.11,776.59,109.37,-833.98,577.15,-2.39,0.69,-1.12,-133.61
5783,795.42,770.22,770.17,769.83,776.41,99.61,-815.92,577.64,-1.02,-0.71,0.80,-130.35
5817,795.36,770.18,770.21,769.63,776.34,103.03,-828.61,573.73,-2.26,-0.25,2.56,-125.78
5851,795.52,770.10,770.14,769.33,776.27,91.31,-842.77,586.43,2.18,1.54,1.01,-122.88
5886,795.71,769.88,770.05,769.08,776.18,116.21,-822.27,565.92,-1.08,0.92,-0.69,-120.50
5920,795.95,769.81,769.94,768.64,776.08,108.40,-822.75,577.64,-0.53,-1.27,-0.42,-116.95
5954,795.88,769.51,769.73,768.05,775.79,108.89,-826.17,586.43,-0.18,0.73,-0.23,-110.86
5988,795.88,769.05,769.50,767.47,775.47,100.10,-840.33,563.48,-1.33,-3.48,0.29,-104.43
6022,795.91,768.79,769.21,766.74,775.16,104.98,-833.50,573.73,-3.18,1.05,0.47,-98.95
6056,796.10,768.48,768.83,766.20,774.90,102.05,-828.61,580.08,-3.71,-0.24,3.17,-98.63
6090,796.52,768.33,768.49,765.63,774.74,109.37,-836.43,551.27,-4.52,1.95,1.41,-98.89
6124,797.44,768.16,768.10,765.07,774.69,104.00,-830.57,568.85,-1.00,0.58,-0.44,-102.06
6158,798.16,768.02,767.84,764.65,774.67,109.37,-849.61,555.18,-0.16,-0.70,1.44,-103.79
6192,798.89,767.97,767.66,764.36,774.72,107.42,-857.42,557.13,-0.37,1.59,-0.12,-106.20
6227,799.37,767.92,767.60,764.36,774.81,113.77,-835.94,563.96,-0.72,0.37,-1.49,-108.88
6260,799.84,767.92,767.59,764.25,774.90,95.21,-831.05,559.57,0.25,-0.34,1.19,-109.11
6294,799.98,767.80,767.56,764.32,774.92,108.89,-850.59,562.01,-0.81,2.76,0.99,-110.32
6327,799.71,767.82,767.60,764.23,774.84,100.59,-841.80,558.59,0.88,1.57,0.34,-107.34
6361,799.40,767.79,767.67,764.26,774.78,108.89,-836.43,573.24,2.08,0.02,0.18,-104.74
6396,798.95,767.73,767.70,764.28,774.66,110.84,-836.43,563.96,0.98,1.57,0.31,-102.30
6429,798.71,767.75,767.75,764.25,774.61,102.05,-849.61,547.36,0.95,0.53,-0.93,-99.84
6464,798.59,767.80,767.77,764.24,774.60,100.59,-854.49,560.55,-2.18,1.31,0.82,-99.27
6497,798.63,767.64,767.79,764.25,774.58,116.21,-850.10,546.39,-1.57,1.84,1.79,-97.76
6531,798.42,767.78,767.77,764.23,774.55,109.86,-836.91,561.04,0.96,-1.81,-0.51,-98.29
6565,798.15,767.68,767.81,764.23,774.47,114.26,-849.61,555.18,-0.58,0.92,-3.76,-95.58
6599,797.84,767.65,767.78,764.05,774.33,104.98,-836.91,562.01,-1.55,0.81,0.28,-92.53
6633,797.23,767.65,767.77,764.08,774.18,100.59,-840.33,561.52,-1.22,1.13,0.40,-90.97
6666,796.53,767.63,767.73,763.99,773.97,89.84,-840.82,558.11,-1.21,2.60,-1.41,-88.10
6701,795.73,767.60,767.73,763.99,773.76,97.17,-841.80,570.31,0.90,2.45,-0.98,-85.06
6735,794.83,767.60,767.76,763.97,773.54,104.98,-851.07,550.78,-1.74,-0.33,-1.56,-81.07
6769,793.79,767.61,767.82,764.04,773.31,102.54,-847.17,559.57,-0.50,1.27,-1.24,-77.16
6803,792.78,767.56,767.80,764.19,773.08,102.05,-839.84,559.08,-0.31,1.12,0.53,-75.93
6837,791.66,767.63,767.84,764.15,772.82,112.30,-838.38,559.57,-0.24,2.82,1.09,-70.83
6871,790.57,767.54,767.85,764.13,772.52,115.72,-847.66,579.10,-1.66,2.78,0.31,-66.15
6905,789.42,767.52,767.89,764.19,772.25,106.93,-842.77,551.27,-3.22,-0.12,0.92,-61.75
6939,788.42,767.52,767.91,764.05,771.97,102.54,-849.61,553.22,-0.26,-0.99,-2.38,-55.77
6974,787.88,767.32,767.81,764.05,771.77,95.70,-845.21,552.73,-0.03,1.48,-0.24,-54.70
7008,787.71,767.37,767.87,763.95,771.73,100.59,-857.91,553.71,2.49,1.91,-3.06,-51.65
7042,787.59,767.21,767.70,763.75,771.56,97.17,-838.38,563.96,-2.21,-0.21,-0.44,-51.38
7076,787.39,767.13,767.57,763.62,771.43,110.84,-844.24,531.74,-0.83,0.39,-1.04,-51.33
7110,787.46,767.18,767.57,763.58,771.45,122.56,-837.89,538.57,-0.22,3.27,2.11,-51.25
7144,787.47,767.26,767.62,763.69,771.51,105.47,-858.40,539.06,3.82,1.13,-3.33,-52.31
7178,787.78,767.17,767.71,763.67,771.58,94.24,-858.40,543.46,1.02,0.89,-1.89,-50.20
7212,788.29,767.12,767.63,763.64,771.67,109.37,-842.29,544.43,-0.88,1.19,-0.15,-53.28
7247,788.43,767.03,767.55,763.49,771.62,115.72,-848.14,578.12,0.41,0.82,1.95,-52.61
7281,788.53,767.00,767.45,763.41,771.60,101.56,-854.00,554.20,-1.29,0.11,-0.12,-54.14
7316,788.66,767.08,767.44,763.46,771.66,113.28,-834.47,548.34,0.68,1.15,0.55,-56.20
7350,788.72,767.02,767.44,763.43,771.65,105.47,-842.29,547.36,1.57,0.05,-0.81,-55.43
7385,788.77,767.07,767.44,763.44,771.68,122.07,-851.07,558.59,-0.24,-0.24,-0.32,-56.10
7419,788.65,767.13,767.48,763.42,771.67,102.05,-859.86,548.34,0.05,1.66,1.48,-54.93
7453,788.67,767.10,767.55,763.59,771.73,120.61,-848.63,565.43,0.92,2.24,-2.41,-55.42
7487,788.78,767.14,767.54,763.58,771.76,93.75,-862.79,559.57,0.38,0.35,0.74,-56.43
7521,788.76,767.15,767.66,763.67,771.81,116.70,-864.26,544.43,0.66,2.76,1.03,-54.73
7555,788.89,767.15,767.68,763.81,771.88,112.79,-838.38,549.80,0.75,0.22,1.36,-56.86
7589,788.95,767.20,767.72,763.85,771.93,117.19,-854.98,556.64,-0.86,2.08,1.87,-56.74
7623,789.04,767.25,767.74,763.94,771.99,119.63,-845.21,546.87,3.05,0.47,-0.73,-58.31
7657,789.16,767.38,767.78,764.02,772.08,112.79,-841.31,541.99,0.66,3.95,2.16,-59.92
7691,789.07,767.44,767.83,764.17,772.13,99.12,-836.91,561.04,0.79,0.42,-0.47,-61.06
7726,788.88,767.51,767.93,764.28,772.15,114.75,-837.89,553.22,1.75,1.72,2.45,-60.32
7760,788.83,767.48,767.97,764.47,772.19,121.58,-852.05,550.78,2.09,2.19,-1.19,-61.57
7794,788.58,767.50,768.04,764.64,772.19,95.21,-834.96,561.52,0.91,-0.10,0.36,-61.63
7828,788.41,767.58,768.13,764.78,772.22,116.21,-847.17,557.13,0.08,2.03,1.47,-61.54
7862,788.30,767.52,768.10,764.80,772.18,111.33,-842.29,549.32,0.87,1.18,-0.79,-61.64
7895,788.14,767.59,768.17,764.82,772.18,137.70,-768.07,587.40,-0.31,1.76,-0.01,-60.40
7929,787.92,767.62,768.07,764.76,772.10,109.86,-906.25,547.36,3.24,4.05,1.76,-61.32
7963,787.69,767.64,768.25,764.80,772.09,96.68,-812.99,572.75,5.50,3.70,-1.56,-56.88
7996,787.49,767.64,768.23,764.85,772.05,125.00,-829.59,567.38,-3.31,-1.83,-1.27,-57.34
8030,787.28,767.61,768.24,764.90,772.01,119.63,-857.42,559.08,0.34,-0.90,2.63,-56.86
8063,787.14,767.64,768.28,764.97,772.01,89.36,-839.36,538.09,0.07,1.07,1.11,-56.66
8097,786.96,767.79,768.34,765.09,772.04,97.66,-843.75,565.43,-0.46,-1.31,0.62,-57.49
8131,787.09,767.77,768.37,765.08,772.08,110.84,-838.87,535.16,-1.40,1.92,-0.78,-57.05
8165,786.81,767.84,768.50,765.20,772.09,90.82,-855.96,551.76,1.83,2.48,-0.27,-55.08
8199,786.39,767.86,768.49,765.33,772.02,108.40,-853.03,549.32,-0.42,2.58,1.87,-55.93
8234,785.80,767.83,768.49,765.31,771.86,113.28,-842.77,549.80,-1.96,3.24,-2.50,-53.56
8268,785.68,767.70,768.50,765.28,771.79,125.49,-845.21,558.59,0.90,1.93,-2.04,-51.23
8302,785.70,767.68,768.41,765.21,771.75,115.23,-848.14,570.80,1.66,2.05,-0.42,-52.37
8336,785.85,767.53,768.40,765.07,771.71,116.70,-832.52,575.68,1.08,3.44,-1.14,-49.84
8370,786.00,767.41,768.35,765.07,771.71,103.52,-840.82,563.96,-1.55,3.02,-0.62,-50.69
8404,786.09,767.43,768.34,764.94,771.70,114.26,-844.24,544.92,-0.91,0.42,1.28,-49.36
8438,786.26,767.38,768.38,764.92,771.73,103.03,-853.52,547.36,1.94,-0.74,0.01,-48.23
8472,786.87,767.32,768.42,764.87,771.87,85.45,-847.66,557.62,-1.66,-0.21,-0.88,-48.24
8506,787.82,767.39,768.33,764.76,772.08,116.21,-840.33,577.64,4.47,-3.38,2.05,-52.70
8540,788.73,767.39,768.19,764.61,772.23,45.41,-699.22,621.09,22.76,-11.83,3.60,-57.07
8575,789.58,767.37,768.20,764.54,772.42,59.08,-869.14,500.98,-13.99,-6.92,0.24,-58.51
8609,790.32,767.35,768.17,764.48,772.58,113.28,-897.46,539.06,-2.36,3.74,-2.06,-60.78
8643,790.52,767.31,768.11,764.45,772.60,95.70,-833.50,559.57,0.95,5.81,-3.10,-62.22
8677,790.73,767.14,768.06,764.23,772.54,96.19,-850.10,545.41,-3.33,0.36,-1.03,-59.60
8711,790.73,767.08,767.95,764.01,772.44,115.23,-846.68,554.20,-0.82,2.27,-0.36,-58.66
8745,790.58,767.03,767.76,763.82,772.30,110.35,-847.66,550.78,-0.76,2.53,4.05,-59.51
8779,790.43,767.00,767.76,763.73,772.23,110.35,-838.38,562.99,-1.21,1.85,0.08,-57.55
8813,790.52,766.94,767.71,763.57,772.19,102.05,-851.56,566.41,-1.56,0.37,1.34,-56.25
8847,790.53,767.08,767.63,763.48,772.18,107.42,-844.24,540.53,0.84,0.39,0.47,-57.91
8881,790.51,767.07,767.71,763.52,772.20,109.37,-848.63,543.95,1.80,0.57,3.04,-56.69
8916,790.33,767.25,767.74,763.60,772.23,101.56,-835.94,546.39,3.79,0.35,2.28,-57.72
8950,790.21,767.29,767.77,763.64,772.23,121.09,-847.66,551.27,-1.11,1.88,1.73,-57.54
8984,789.93,767.39,767.85,763.71,772.22,121.09,-842.77,550.29,2.92,1.71,2.71,-56.54
9018,789.73,767.48,767.92,763.81,772.23,117.68,-837.40,565.43,-1.58,2.89,0.21,-56.19
9052,789.52,767.57,768.11,763.96,772.29,100.59,-836.43,555.18,2.31,2.11,1.24,-53.55
9086,789.65,767.81,768.23,764.12,772.45,122.07,-852.54,544.92,2.18,1.72,0.33,-55.40
9120,790.00,768.08,768.51,764.22,772.70,92.77,-854.00,548.34,2.77,4.99,2.67,-53.35
9156,790.80,768.42,768.82,764.39,773.11,105.47,-844.24,557.13,2.93,5.11,5.85,-53.62
9190,791.91,768.72,768.86,764.24,773.44,95.70,-844.73,555.66,2.49,2.48,2.03,-56.50
9224,792.91,769.11,768.94,764.38,773.83,101.07,-857.91,559.57,4.83,1.52,3.63,-63.27
9258,793.73,769.41,769.01,764.46,774.15,98.14,-833.50,547.36,1.63,1.15,2.24,-67.70
9292,794.39,769.64,769.06,764.43,774.38,92.29,-842.77,560.06,0.77,0.73,1.41,-70.38
9326,794.79,769.88,769.14,764.52,774.58,92.29,-855.47,562.99,0.44,1.42,2.59,-72.70
9360,795.38,770.17,769.25,764.66,774.87,87.89,-836.43,564.45,2.38,1.86,1.99,-76.51
9395,795.57,770.41,769.42,764.86,775.07,97.66,-842.29,557.62,3.85,2.92,2.84,-77.87
9429,795.01,770.73,769.59,765.19,775.13,95.21,-840.82,578.61,1.39,3.18,1.11,-78.90
9463,794.54,770.92,769.73,765.41,775.15,93.26,-844.73,573.73,1.17,4.12,3.24,-78.77
9497,794.07,771.18,769.88,765.76,775.22,87.89,-845.70,552.73,1.28,1.95,2.10,-80.47
9530,793.66,771.34,770.08,766.11,775.29,86.91,-843.26,558.59,2.19,3.49,1.60,-80.70
9564,793.35,771.66,770.26,766.57,775.46,90.82,-841.31,577.15,1.17,1.74,1.63,-84.49
9598,793.02,771.95,770.46,767.04,775.62,97.66,-839.36,578.61,2.97,4.34,1.95,-87.48
9631,792.48,772.24,770.67,767.79,775.79,82.03,-833.98,579.59,4.07,5.22,2.39,-93.87
9665,791.71,772.60,770.95,768.57,775.96,85.94,-840.33,581.05,3.45,2.22,-0.66,-98.66
9698,791.11,772.97,771.11,769.31,776.12,102.05,-827.64,576.17,4.79,1.72,-3.11,-106.52
9732,790.58,773.19,771.38,770.08,776.31,92.29,-835.45,574.71,6.13,3.53,-2.47,-111.11
9766,790.19,773.34,771.49,770.73,776.44,91.31,-857.91,574.71,3.87,1.71,-1.49,-117.66
9800,789.40,773.51,771.65,771.51,776.52,87.40,-830.57,581.54,5.82,2.48,0.60,-123.91
9834,788.22,773.60,771.79,772.26,776.47,97.66,-827.15,585.45,5.11,0.05,-1.78,-128.08
9868,786.93,773.79,772.09,772.89,776.42,84.96,-823.24,590.82,2.31,2.72,-1.18,-127.05
9901,785.59,773.96,772.40,773.61,776.39,94.73,-816.41,583.98,4.78,3.60,0.16,-126.47
9935,784.16,774.22,772.78,774.49,776.41,99.12,-822.75,587.40,2.56,1.68,0.73,-127.15
9969,783.06,774.64,773.26,775.26,776.55,106.93,-811.52,597.66,2.76,1.56,0.92,-126.21
10003,782.17,775.04,773.77,776.21,776.80,96.68,-838.38,571.78,1.58,5.66,2.53,-127.53
10037,781.63,775.25,774.21,777.00,777.02,82.52,-827.15,595.21,3.66,3.53,1.79,-128.30
10073,781.33,775.55,774.47,777.56,777.23,91.80,-826.66,597.17,1.29,0.19,-1.10,-131.15
10107,780.94,775.54,774.66,777.79,777.23,89.84,-827.15,593.26,0.98,-0.89,0.88,-128.32
10142,780.95,775.50,774.70,777.89,777.26,93.75,-817.38,580.08,-1.03,1.03,-0.60,-128.68
10176,781.27,775.39,774.57,777.72,777.24,89.36,-831.05,603.52,-0.89,0.47,0.11,-129.73
10210,781.69,775.27,774.42,777.34,777.18,95.70,-817.87,591.31,-1.39,2.86,0.21,-128.46
10244,781.87,775.07,774.19,776.90,777.01,90.82,-826.66,594.24,-1.45,0.73,-1.56,-126.43
10278,781.86,774.93,774.12,776.53,776.86,98.14,-827.15,589.84,-0.31,0.32,0.79,-121.69
10312,781.52,774.74,774.06,776.13,776.61,82.52,-816.89,583.50,-1.27,4.39,0.78,-114.70
10346,780.84,774.56,773.89,775.88,776.29,77.64,-810.06,593.75,-0.93,0.88,0.17,-111.54
10380,780.11,774.43,773.88,775.57,776.00,94.73,-825.20,597.66,-2.49,2.19,1.51,-103.69
10414,779.26,774.28,773.88,775.42,775.71,77.15,-838.87,586.91,0.16,1.56,-0.16,-97.35
10449,778.55,774.22,773.86,775.35,775.50,86.91,-818.36,591.80,0.20,1.85,-2.36,-93.69
10483,778.24,774.35,773.90,775.32,775.45,90.82,-816.89,583.50,2.15,-0.13,2.56,-92.34
10517,778.52,774.64,774.02,775.39,775.64,88.38,-833.98,594.24,3.02,3.91,2.51,-93.57
10551,779.49,775.18,774.26,775.95,776.22,88.87,-813.48,593.26,5.29,2.67,1.39,-103.56
10585,781.99,776.09,774.70,776.85,777.41,79.10,-820.31,582.03,6.34,2.51,2.25,-121.63
10619,785.25,776.88,775.34,777.81,778.82,88.87,-823.24,581.54,5.87,5.69,-2.21,-137.45
10653,789.73,777.42,776.04,778.63,780.46,94.73,-829.59,608.89,4.70,2.32,2.95,-151.70
10687,794.67,777.74,776.26,778.81,781.87,97.17,-812.99,596.68,3.15,2.23,2.29,-168.36
10722,798.56,777.63,776.05,778.35,782.65,82.03,-810.06,612.79,1.92,1.37,0.19,-179.30
10756,801.74,777.16,775.50,777.48,782.97,88.87,-818.36,594.24,0.04,-0.49,-1.06,-187.49
10790,802.97,776.47,774.71,775.87,782.51,104.00,-851.07,574.71,-4.77,-0.46,1.43,-182.04
10824,802.87,775.96,773.93,774.85,781.90,87.89,-829.10,593.26,1.64,1.27,-1.09,-182.06
10858,802.91,775.54,773.12,774.24,781.45,96.19,-821.29,598.14,-3.42,1.76,0.33,-190.05
10892,803.25,775.24,772.55,773.79,781.21,84.96,-830.57,577.64,-1.34,2.80,-0.78,-196.38
10926,804.38,774.92,772.00,773.56,781.21,87.89,-820.80,592.29,4.12,0.95,-3.66,-207.95
10960,805.75,774.32,771.66,773.20,781.23,100.59,-821.78,590.33,0.66,0.08,-1.33,-211.01
10995,807.33,773.81,771.28,772.57,781.25,93.75,-821.29,592.29,1.44,0.34,-1.64,-212.41
11030,807.09,773.74,771.24,772.55,781.15,90.82,-815.92,594.73,0.60,0.25,0.15,-212.03
11065,806.50,773.86,771.17,772.79,781.08,103.52,-813.48,612.79,0.08,1.76,3.89,-216.10
11099,806.13,773.96,771.20,773.00,781.07,96.68,-827.15,602.05,-1.32,1.65,-0.02,-217.96
11132,805.97,774.21,771.39,773.34,781.23,97.17,-829.10,598.63,-2.99,-2.22,0.77,-219.79
11166,805.24,774.53,771.51,773.74,781.25,95.21,-812.50,590.82,-1.24,1.40,0.44,-222.55
11199,803.25,775.18,771.83,774.36,781.16,93.75,-822.75,599.61,-0.29,3.92,0.25,-222.23
11233,799.92,776.04,772.37,775.41,780.93,71.78,-810.55,596.68,-1.68,0.72,5.03,-219.58
11266,795.03,777.20,773.08,777.17,780.62,91.31,-818.85,585.45,-1.02,3.41,3.53,-220.40
11300,789.67,778.37,774.14,779.03,780.30,86.43,-834.47,600.59,1.75,3.22,2.54,-212.36
11334,783.92,779.88,775.68,781.00,780.12,64.45,-820.80,580.08,1.55,7.73,4.75,-195.41
11368,777.44,782.06,777.40,783.22,780.03,73.73,-824.22,598.63,2.40,8.51,3.11,-180.66
11402,771.01,784.21,780.04,785.21,780.12,84.47,-810.06,598.14,-1.66,3.89,3.42,-139.09
11436,764.79,786.34,784.01,786.63,780.44,100.59,-825.68,596.68,-8.15,1.53,1.80,-56.83
11470,759.69,787.55,787.23,787.36,780.46,110.35,-855.47,621.09,-17.75,-1.35,11.18,20.32
11503,756.84,787.88,789.15,787.61,780.37,91.31,-845.70,589.36,-32.94,-0.56,19.98,71.77
11537,756.33,786.60,790.72,787.28,780.23,104.49,-913.09,618.65,-54.66,26.32,33.94,127.52
11571,755.80,784.28,792.07,785.99,779.54,83.01,-893.55,604.00,-54.59,23.21,56.19,200.60
11605,755.30,781.19,792.67,782.86,778.01,62.99,-913.57,596.68,-68.02,39.69,71.94,288.19
11640,754.84,777.27,792.41,778.14,775.67,10.25,-1015.14,502.93,-71.17,43.09,103.15,384.30
11674,754.35,772.98,791.17,772.67,772.79,-43.95,-1101.56,460.94,-68.70,46.66,131.74,469.74
11708,753.89,769.43,787.06,766.90,769.32,-73.24,-1292.48,362.30,-30.18,51.45,148.92,482.57
11742,753.65,766.45,779.84,763.20,765.78,-244.63,-1413.09,339.36,-7.66,44.47,157.99,381.80
11776,753.65,764.34,766.67,760.69,761.34,-534.18,-1636.72,456.05,121.24,25.38,170.92,107.73
11810,753.73,762.90,760.01,759.05,758.92,-349.61,-1577.64,187.50,134.31,-6.36,139.20,-22.84
11844,753.68,762.42,759.72,758.78,758.65,-68.85,-1140.63,86.43,117.52,-5.36,51.40,-22.18
11878,753.70,762.25,759.53,758.75,758.56,230.47,-766.11,3.42,155.47,9.35,21.74,-25.35
11913,753.67,762.05,759.35,758.63,758.42,381.84,-331.54,-109.37,62.42,7.50,26.96,-26.13
11947,753.78,762.02,759.39,758.56,758.43,524.90,-413.57,-42.97,-8.21,10.74,-0.08,-24.33
11982,753.67,761.97,759.29,758.49,758.36,520.02,-523.93,47.85,-20.98,-0.82,-66.89,-24.98
12016,753.67,761.87,759.30,758.53,758.34,462.89,-576.17,147.46,-56.21,-27.37,-133.37,-24.60
12051,753.58,761.90,759.30,758.43,758.30,373.54,-687.99,208.01,-77.45,-48.29,-176.63,-23.03
12085,753.48,761.93,759.31,758.46,758.29,295.90,-797.36,284.18,-124.89,-69.27,-205.04,-23.06
12119,753.40,761.96,759.23,758.47,758.26,325.68,-1313.96,447.27,-146.76,-63.55,-227.13,-25.24
12153,753.29,762.07,759.25,758.40,758.25,112.30,-1384.28,646.97,-101.05,-21.85,-225.05,-24.21
12187,753.23,762.09,759.24,758.41,758.24,-83.01,-1526.86,754.39,-103.37,13.37,-203.77,-24.54
12221,753.10,762.08,759.22,758.42,758.20,-400.88,-1621.09,736.82,-79.89,28.34,-184.66,-24.71
12255,753.17,762.06,759.23,758.42,758.22,-710.94,-1571.78,638.18,-31.69,39.54,-153.75,-24.42
12289,753.10,762.10,759.21,758.41,758.21,-1098.63,-1314.94,387.21,13.03,64.28,-104.82,-24.95
12324,753.07,762.14,759.15,758.45,758.20,-1413.57,-744.63,243.16,18.05,76.35,-42.57,-27.33
12358,753.14,762.09,759.26,758.42,758.23,-1325.20,-907.23,434.08,-66.13,43.36,15.55,-23.68
12392,755.29,762.21,759.23,758.37,758.77,-1038.57,-909.67,417.97,29.63,54.88,74.94,-32.29
12426,770.77,762.77,759.07,758.33,762.74,1134.28,-410.16,370.61,250.13,120.66,151.25,-93.07
12460,801.42,765.99,760.52,758.71,771.66,-2000.00,-2000.00,1565.43,81.18,250.13,101.38,-193.66
12494,802.00,766.71,762.73,759.78,772.80,-256.84,-2000.00,1889.16,-76.19,-105.21,-5.43,-162.04
12528,806.61,768.56,765.39,761.66,775.55,455.57,-1136.23,699.22,-37.60,-30.78,5.15,-154.30
12562,814.95,771.24,768.25,763.86,779.57,219.24,-1040.53,475.10,39.39,0.71,13.67,-165.43
12597,819.47,773.24,770.04,766.13,782.22,116.21,-924.80,521.48,19.64,0.23,10.38,-185.76
12631,818.62,774.11,770.76,767.54,782.76,101.07,-836.91,559.08,9.24,3.18,1.05,-192.71
12664,816.42,774.56,771.04,768.47,782.62,71.78,-837.40,561.52,2.90,5.32,0.52,-195.36
12698,812.94,774.83,771.07,769.04,781.97,89.84,-832.03,564.94,-2.11,4.51,2.47,-193.26
12731,808.99,775.18,771.19,769.46,781.20,99.61,-826.66,573.73,-2.58,4.34,1.81,-185.71
12765,805.15,775.72,771.25,769.95,780.52,91.80,-828.61,579.10,-2.66,2.40,2.40,-182.47
12799,801.99,776.88,771.86,770.83,780.39,96.68,-837.89,572.75,0.27,4.53,3.43,-178.75
12832,798.20,778.95,773.05,772.14,780.58,92.29,-844.73,556.15,1.82,3.88,7.93,-172.01
12866,792.12,781.41,774.97,774.22,780.68,77.15,-843.26,565.92,8.28,9.46,7.79,-153.57
12900,781.98,784.20,777.60,776.88,780.16,110.84,-850.59,540.53,7.05,8.71,9.27,-114.95
12935,770.09,787.13,781.85,780.27,779.84,80.57,-840.82,590.82,13.08,11.60,5.55,-41.62
12969,761.35,789.56,786.25,783.26,780.11,100.59,-903.32,590.33,-10.12,6.96,18.34,34.40
13003,756.32,791.15,788.59,785.63,780.42,40.04,-827.64,562.01,-14.34,6.50,26.69,62.45
13037,755.63,791.07,790.58,786.96,781.06,201.17,-857.91,739.26,-69.50,-13.59,47.28,95.40
13071,755.41,789.26,791.97,787.09,780.93,-33.69,-691.41,654.79,-33.28,43.36,55.39,143.36
13105,755.08,785.77,792.82,785.91,779.90,-1.46,-848.63,592.77,-45.95,50.27,72.40,211.03
13139,754.88,780.88,793.31,783.23,778.07,17.58,-1039.06,563.96,-74.41,30.02,96.59,302.66
13173,754.39,774.11,792.93,777.88,774.83,-0.49,-1419.43,411.62,-50.18,50.76,136.71,427.73
13207,753.74,768.81,789.35,770.22,770.53,-162.60,-1474.12,306.15,34.95,55.53,192.39,496.09
13241,753.43,765.23,777.73,764.30,765.17,-235.35,-1765.14,465.33,14.17,28.67,215.50,323.55
13275,753.60,763.46,765.28,760.82,760.79,-128.91,-1825.68,280.76,105.72,19.69,217.61,78.24
13310,753.56,762.76,760.03,759.17,758.88,942.38,-842.77,134.77,187.95,3.60,147.90,-22.41
13344,753.52,762.39,759.71,759.05,758.67,554.20,-830.57,-121.58,106.84,8.13,18.12,-25.57
13378,753.49,762.24,759.49,758.82,758.51,443.36,-507.32,-90.33,81.64,25.59,-63.71,-26.42
13412,753.44,762.09,759.39,758.61,758.38,345.21,-426.27,-87.89,-2.78,24.08,-121.92,-24.58
13446,753.38,762.02,759.29,758.50,758.30,357.91,-891.60,-27.34,-45.63,35.35,-183.04,-24.51
13480,753.36,761.86,759.26,758.47,758.24,136.72,-1087.40,24.41,19.03,72.11,-250.14,-23.61
13514,753.25,761.86,759.24,758.45,758.20,-124.02,-1062.50,-1.46,6.22,56.39,-250.14,-23.37
13548,753.18,761.90,759.15,758.45,758.17,-291.99,-1405.76,52.73,-40.47,35.05,-250.14,-25.58
13583,753.15,761.98,759.16,758.43,758.18,-393.55,-1748.54,100.59,-21.50,52.11,-250.14,-25.81
13617,753.13,761.93,759.18,758.35,758.15,-479.98,-1740.23,-38.57,-0.36,101.54,-250.14,-23.57
13651,753.06,761.99,759.16,758.42,758.16,-717.29,-1665.53,-127.44,-47.06,113.12,-239.12,-25.21
13685,753.03,761.95,759.17,758.46,758.15,-750.00,-1411.13,2.93,-109.01,95.01,-187.65,-25.01
13719,753.07,761.88,759.11,758.40,758.12,-616.21,-1344.73,305.66,-134.89,91.26,-130.19,-25.32
13753,753.01,761.79,759.08,758.26,758.03,-655.27,-1380.86,602.05,-198.89,92.89,-98.66,-22.97
13787,752.99,761.83,759.15,758.24,758.05,-970.70,-1318.85,353.52,-34.92,134.24,-74.14,-21.52
13821,753.03,761.94,759.16,758.33,758.12,-1250.49,-738.77,161.13,-23.83,79.95,-24.73,-23.57
13856,753.30,761.93,759.10,758.23,758.14,-1045.41,-783.20,312.99,-92.69,10.69,31.82,-24.23
13891,757.30,762.34,759.02,758.24,759.22,563.48,-535.64,-691.41,250.13,250.13,135.97,-43.56
13925,780.51,763.27,759.08,758.26,765.28,987.30,-1315.43,-506.35,58.08,15.40,89.92,-129.20
13960,808.32,768.03,761.64,758.96,774.24,-1415.04,-2000.00,-1905.27,-106.70,114.80,26.14,-209.51
13994,811.34,771.02,764.91,761.85,777.28,-488.28,-1107.91,322.27,19.35,6.17,0.98,-205.02
14028,812.45,774.66,767.83,764.48,779.86,58.11,-973.63,541.99,30.37,28.03,7.87,-203.88
14062,814.61,776.40,770.58,767.10,782.18,75.20,-818.85,585.45,41.85,19.37,2.67,-195.38
14096,813.21,777.35,772.20,769.46,783.06,93.75,-749.02,657.71,11.02,6.66,-0.01,-192.47
14130,808.44,778.32,772.91,771.05,782.68,110.84,-805.66,590.82,-5.82,5.31,3.37,-189.47
14164,803.71,778.78,773.14,772.00,781.91,126.46,-860.84,563.48,1.63,5.91,-0.46,-185.24
14198,799.56,778.96,773.59,772.95,781.26,97.66,-814.94,570.31,2.56,3.38,-0.13,-175.19
14232,796.53,779.14,773.89,773.78,780.83,88.87,-813.96,583.01,-0.02,2.31,1.08,-171.17
14266,793.81,779.84,774.36,774.69,780.67,85.94,-820.80,576.66,-0.31,3.13,3.89,-169.00
14299,791.25,780.86,775.35,776.05,780.88,75.20,-830.57,565.92,2.45,3.05,0.63,-163.89
14333,788.25,781.85,776.62,777.85,781.14,98.14,-818.85,581.05,2.54,2.17,4.05,-156.20
14366,784.27,782.63,777.81,779.52,781.06,83.50,-839.84,589.84,5.28,0.18,2.37,-143.86
14400,779.72,783.26,779.00,781.16,780.78,62.50,-807.13,598.14,1.85,0.35,2.69,-127.76
14434,775.21,784.04,780.14,782.53,780.48,62.50,-809.57,577.64,0.93,1.63,3.27,-110.26
14468,770.41,785.17,781.49,784.15,780.31,76.66,-825.20,594.73,1.08,1.40,3.34,-93.18
14502,765.35,786.59,783.71,786.36,780.50,64.45,-808.11,579.59,-2.73,5.29,5.79,-64.46
14535,760.91,787.90,786.34,788.93,781.02,89.36,-877.44,556.64,-5.01,8.60,13.37,-31.97
14569,757.41,788.81,788.30,791.25,781.44,40.53,-862.30,569.82,-21.36,2.02,22.15,-12.51
14603,755.76,788.78,789.59,792.43,781.64,125.49,-885.74,627.44,-39.79,3.90,24.05,8.09
14637,755.48,787.34,790.47,791.29,781.14,58.11,-1041.02,503.42,-24.57,39.48,47.95,59.34
14671,755.11,783.52,791.10,788.82,779.64,130.86,-1180.66,511.72,-45.92,31.50,54.59,143.38
14705,754.80,777.52,791.52,784.78,777.16,27.34,-1078.13,499.51,-51.86,34.25,83.71,262.49
14739,754.45,772.01,791.55,779.25,774.31,-70.80,-1239.75,417.97,10.13,50.38,112.82,390.19
14773,753.99,768.50,790.53,773.05,771.52,-104.49,-1327.15,364.75,44.37,28.76,138.53,485.50
14808,753.53,765.92,785.21,767.03,767.93,-212.40,-1556.15,407.71,60.40,14.88,152.21,463.93
14843,753.49,764.28,773.98,762.12,763.46,-310.06,-1854.98,408.20,184.59,21.16,138.48,269.64
14877,753.75,763.17,760.36,759.73,759.26,-89.84,-1232.42,184.08,250.13,-11.97,101.44,-26.47
14911,753.65,762.63,760.12,758.90,758.83,575.20,-834.96,-319.34,-32.83,56.67,-57.05,-15.70
14946,753.55,762.36,759.82,758.74,758.62,320.31,-536.62,-186.04,29.27,122.78,-138.98,-18.19
14980,753.57,762.21,759.70,758.76,758.56,189.94,-475.10,14.65,-78.18,98.67,-152.53,-20.28
15014,753.59,762.18,759.70,758.63,758.52,133.79,-775.88,248.05,-88.93,74.87,-177.03,-18.14
15048,753.45,762.14,759.64,758.59,758.45,13.67,-727.54,423.34,-77.01,27.21,-203.47,-18.22
15082,753.37,762.13,759.60,758.61,758.43,-92.29,-951.17,489.26,-84.43,-14.60,-199.15,-19.35
15116,753.33,762.09,759.60,758.59,758.40,-237.79,-1132.81,482.91,-65.35,-21.22,-177.53,-18.47
15150,753.22,762.08,759.53,758.50,758.33,-401.86,-1343.75,513.18,-67.35,-12.91,-158.89,-18.52
15184,753.25,762.09,759.53,758.57,758.36,-519.04,-1350.59,643.55,-68.13,-6.89,-134.31,-19.83
15218,753.18,762.02,759.55,758.61,758.34,-716.80,-1269.04,788.57,-27.63,7.16,-82.98,-18.95
15253,753.26,762.04,759.57,758.67,758.38,-847.17,-833.50,813.48,-29.52,-40.51,-19.30,-19.64
15287,753.23,762.08,759.51,758.63,758.36,-627.93,-899.41,894.53,-39.64,-113.48,15.58,-20.82
15321,753.26,762.06,759.45,758.57,758.33,-388.18,-824.71,841.80,6.20,-138.50,44.31,-21.37
15355,753.21,762.07,759.49,758.50,758.32,-253.42,-782.23,723.14,16.34,-135.21,61.95,-19.36
15389,753.27,761.98,759.49,758.60,758.34,-202.64,-802.25,646.48,30.60,-116.40,64.87,-20.28
15423,753.29,762.00,759.44,758.63,758.34,-159.18,-881.84,533.69,40.41,-87.73,65.06,-22.17
15457,753.36,762.23,759.52,758.53,758.41,-115.23,-874.51,387.21,33.15,-52.78,73.65,-20.75
15491,755.38,762.24,759.63,758.67,758.98,929.20,-624.51,1130.37,250.13,140.79,0.18,-27.13
15526,758.80,763.04,760.18,759.19,760.30,52.25,-1198.24,181.15,165.86,34.78,1.87,-39.31
15560,761.65,763.89,761.00,760.23,761.69,161.13,-1074.22,339.36,37.21,2.49,-1.90,-50.80
15594,763.74,764.71,761.89,761.63,762.99,146.48,-909.67,507.81,27.53,2.53,-1.70,-62.79
15628,766.02,766.06,763.01,763.63,764.68,117.19,-898.93,459.96,34.15,13.21,1.03,-83.25
15662,769.63,768.13,764.39,766.55,767.18,119.63,-873.05,521.00,36.08,15.05,4.21,-120.62
15696,775.20,770.51,766.47,770.57,770.69,70.31,-837.89,531.25,36.86,9.31,3.55,-166.19
15730,781.71,772.84,768.68,774.82,774.51,116.21,-867.19,551.27,29.92,4.06,3.13,-214.62
15764,788.30,774.72,770.39,778.48,777.97,82.03,-832.52,580.08,21.53,8.40,1.95,-263.77
15799,792.06,776.18,771.75,781.26,780.31,111.82,-798.34,567.38,12.40,0.75,5.09,-295.32
15833,791.94,776.99,772.40,782.37,780.92,103.03,-815.92,605.47,4.66,1.11,2.74,-301.59
15866,789.63,777.08,772.59,782.43,780.43,92.77,-822.75,602.54,0.82,-0.37,4.69,-290.64
15900,786.73,776.66,772.65,781.87,779.48,91.80,-842.29,583.50,-5.53,-0.22,2.89,-267.48
15933,785.28,775.89,772.89,781.27,778.83,82.03,-840.82,579.10,0.09,-1.66,-2.44,-241.55
15968,785.31,775.39,773.11,780.84,778.66,91.31,-822.27,589.84,0.71,-2.18,-1.89,-225.99
16001,786.22,775.09,773.33,780.79,778.86,74.22,-804.20,607.91,4.76,-2.47,-3.98,-220.24
16035,787.60,774.65,773.53,780.72,779.13,100.10,-833.98,588.87,0.27,1.11,-1.11,-215.67
16069,789.75,774.21,773.52,780.22,779.43,108.40,-814.94,575.68,-1.76,-4.98,-1.02,-212.14
16103,792.28,773.78,773.29,779.51,779.72,91.31,-803.22,584.47,-1.18,-2.45,-2.39,-212.68
16137,794.10,773.35,773.02,778.62,779.77,114.75,-847.66,593.26,-2.76,-2.55,-2.19,-209.00
16170,795.10,773.23,772.89,778.08,779.82,83.50,-814.94,589.84,-3.35,-0.27,-1.59,-207.02
16205,795.26,773.07,772.89,778.02,779.81,93.75,-814.94,598.14,1.02,0.27,0.84,-205.23
16239,794.11,773.16,772.98,778.36,779.65,90.82,-828.61,583.01,-1.28,1.64,0.93,-204.87
16273,792.35,773.32,773.24,778.94,779.46,96.68,-824.71,572.27,1.38,0.97,-0.28,-202.12
16307,790.34,773.41,773.51,779.66,779.23,104.98,-820.80,585.45,-1.49,3.31,-2.43,-199.79
16341,788.57,773.59,773.82,780.26,779.06,105.47,-816.41,596.68,0.64,2.34,-0.61,-196.28
16375,786.70,773.92,774.18,780.58,778.85,107.91,-817.87,596.68,-0.03,4.40,0.21,-188.35
16409,784.14,774.65,774.73,780.94,778.61,103.52,-817.87,606.45,-0.89,5.24,2.92,-177.01
16443,781.48,775.42,775.28,781.72,778.48,83.98,-841.31,570.31,-0.79,6.79,5.12,-171.78
16478,778.18,776.48,776.08,782.66,778.35,75.20,-844.73,579.10,-1.70,3.38,4.76,-162.74
16512,772.46,777.45,776.80,783.83,777.63,86.43,-836.43,577.15,-3.39,1.02,7.51,-150.35
16546,764.51,777.39,777.33,784.45,775.92,71.78,-848.14,559.57,-18.08,-0.82,4.53,-118.65
16580,757.92,776.07,777.38,784.38,773.94,86.43,-964.36,513.67,-20.79,2.73,20.35,-82.96
16614,755.47,773.48,777.62,782.63,772.30,214.84,-954.10,613.28,-45.07,3.77,46.15,-22.16
16648,754.93,770.96,778.52,778.87,770.82,67.87,-1023.93,399.41,-20.48,56.63,84.92,77.78
16682,754.54,769.02,778.80,773.39,768.94,135.74,-1040.04,611.82,-46.79,46.66,98.02,182.19
16716,754.04,767.63,777.48,768.10,766.81,-19.04,-1202.15,570.31,-38.99,40.82,118.02,239.88
16752,753.86,765.90,771.01,763.62,763.60,10.74,-1376.46,558.59,-4.45,43.06,140.72,159.22
16786,753.85,764.14,761.43,760.44,759.97,-105.96,-983.89,257.81,-4.10,25.73,152.91,-18.46
16820,754.37,763.59,760.11,759.15,759.30,-1563.48,-1835.94,-791.02,-194.73,-159.02,149.66,-29.81
16854,754.07,763.17,759.80,758.74,758.94,-493.65,-631.35,194.82,16.49,-69.85,58.29,-27.00
16889,753.76,762.86,759.46,758.83,758.73,818.36,-369.14,-921.39,51.05,-160.19,-112.22,-33.29
16923,753.95,762.76,759.35,758.70,758.69,225.10,405.76,193.36,74.18,-37.85,-67.18,-33.89
16957,753.74,762.73,759.26,758.64,758.60,703.12,-519.04,309.57,-49.06,-95.07,-155.90,-34.31
16991,753.76,762.70,759.27,758.64,758.59,478.03,-434.08,428.71,-39.17,-57.20,-173.33,-33.85
17025,753.67,762.62,759.29,758.62,758.55,298.34,-822.27,489.75,-42.08,-31.85,-174.40,-32.20
17059,753.59,762.58,759.27,758.64,758.52,107.42,-1083.98,537.11,-57.29,6.23,-133.53,-32.30
17093,753.47,762.44,759.20,758.52,758.41,-268.07,-1314.45,456.54,-69.82,39.87,-115.64,-30.73
17127,753.50,762.29,759.22,758.58,758.40,-653.32,-1380.86,385.74,-63.67,56.79,-59.79,-30.03
17162,753.33,762.24,759.20,758.51,758.32,-953.61,-1208.50,217.29,-77.50,36.15,-29.55,-28.51
17196,753.63,762.27,759.13,758.48,758.38,-961.91,-856.45,322.75,-103.79,-1.15,30.20,-31.17
17230,754.40,763.12,759.46,758.52,758.88,-2000.00,-2000.00,773.93,-9.24,126.31,124.52,-32.96
17264,762.01,765.16,760.10,758.96,761.56,391.11,1188.48,1194.34,-78.74,20.66,6.95,-65.87
17298,776.80,767.87,761.71,760.41,766.70,25.39,-422.85,834.47,214.10,39.79,26.22,-119.64
17332,784.07,769.61,763.79,761.90,769.85,83.98,-958.01,486.82,84.16,9.25,5.36,-128.60
17365,789.56,771.23,766.32,762.92,772.51,56.64,-893.07,504.88,35.42,13.89,2.27,-112.26
17399,794.88,772.94,770.16,764.62,775.65,100.59,-901.37,481.93,38.46,14.10,1.95,-73.79
17432,798.63,774.43,773.95,767.01,778.50,69.34,-838.38,557.62,34.59,9.35,1.55,-39.47
17466,798.28,775.73,776.68,769.25,779.99,96.19,-812.99,604.98,14.28,3.79,-0.05,-13.70
17500,796.30,777.02,778.66,771.12,780.78,66.41,-842.77,589.36,6.80,3.30,2.92,4.76
17534,794.35,777.65,780.02,772.23,781.06,70.31,-837.89,578.12,3.86,4.95,3.56,23.81
17568,792.77,777.82,780.44,772.60,780.91,87.40,-806.15,572.75,-2.49,3.52,4.02,33.00
17601,791.72,777.69,780.36,772.46,780.56,84.47,-851.07,546.87,-4.52,2.76,2.34,37.79
17635,790.72,777.13,780.00,772.18,780.01,85.45,-864.75,560.55,-2.42,2.11,-2.11,40.67
17669,789.09,776.30,779.37,771.45,779.05,92.29,-838.38,560.55,-4.34,-1.41,-2.85,48.19
17705,786.79,775.21,778.15,770.50,777.66,81.54,-853.52,552.73,-3.76,1.24,-1.34,48.30
17738,785.19,774.53,776.33,769.83,776.47,58.11,-897.46,501.95,-10.03,1.75,-2.18,23.82
17772,784.13,773.96,774.21,769.51,775.45,93.26,-823.24,563.48,-5.85,-0.85,-0.66,-16.29
17807,783.24,773.63,772.03,769.23,774.53,96.19,-843.26,550.29,-3.19,0.37,-2.53,-60.59
17841,782.00,773.51,769.77,769.22,773.62,86.43,-854.49,557.62,-0.21,2.08,1.44,-111.56
17875,779.75,773.16,768.44,769.12,772.62,100.59,-865.23,554.69,3.57,-0.15,-0.24,-132.74
17909,777.06,772.96,768.27,768.67,771.74,99.61,-851.56,565.92,2.62,1.73,1.73,-119.44
17943,774.11,772.51,768.79,768.02,770.86,94.24,-846.68,546.39,1.39,-0.60,0.79,-83.16
17977,770.94,771.91,769.10,767.09,769.76,88.38,-851.07,545.90,-4.11,-1.69,-0.24,-46.15
18011,767.87,771.13,769.14,766.35,768.62,89.36,-851.56,545.90,-8.44,-3.21,-0.43,-17.47
18045,765.70,770.26,769.07,765.54,767.64,79.59,-845.21,551.27,-7.88,-2.40,-3.25,6.93
18080,763.91,769.54,768.83,764.79,766.77,102.54,-859.86,530.27,-7.70,-2.04,-1.61,24.01
18114,762.68,768.97,768.75,764.32,766.18,101.07,-885.74,540.04,-5.59,0.85,-0.01,37.95
18148,761.89,768.51,768.87,764.01,765.82,86.91,-836.91,543.95,0.21,3.69,1.35,51.84
18182,761.51,768.31,768.75,763.60,765.54,100.59,-826.17,553.22,-2.13,-0.53,0.53,57.75
18216,761.56,768.27,768.76,763.47,765.52,97.17,-845.70,542.48,-5.98,-3.26,-5.28,60.07
18250,762.22,768.62,768.95,763.58,765.84,101.56,-874.51,562.50,-3.16,-1.33,-6.55,57.95
18284,765.29,769.19,769.21,763.88,766.89,90.33,-874.02,517.09,8.24,2.33,1.63,44.98
18318,773.67,770.13,770.05,764.43,769.57,101.56,-874.02,514.16,10.76,0.58,0.15,21.44
18353,787.09,771.40,771.39,765.80,773.92,94.73,-860.84,540.04,16.40,1.02,2.91,-21.48
18387,800.57,772.26,772.68,767.31,778.21,123.05,-833.50,578.61,16.76,-1.56,-1.98,-64.51
18421,808.76,772.82,773.30,768.34,780.80,77.15,-850.59,603.52,9.95,3.37,-0.92,-96.91
18455,811.06,772.98,773.42,768.71,781.54,98.14,-842.77,575.68,3.18,1.77,-0.53,-108.60
18489,811.19,772.89,773.19,768.70,781.49,107.42,-844.24,577.15,-0.75,-0.58,0.75,-113.96
18523,811.06,772.72,773.02,768.52,781.33,104.00,-845.21,551.76,0.47,-0.31,3.14,-113.59
18557,809.90,772.44,772.71,768.26,780.83,113.77,-849.61,554.20,0.32,0.85,-2.89,-111.31
18591,807.79,772.07,772.40,768.05,780.08,94.73,-843.26,569.34,-3.65,4.17,-1.31,-105.85
18626,805.18,771.76,771.98,767.79,779.18,93.75,-848.14,565.92,-0.22,1.46,-1.18,-100.82
18661,802.87,771.30,771.48,767.48,778.28,92.29,-829.10,580.57,-2.82,0.51,0.39,-97.14
18695,801.49,770.84,770.79,766.98,777.52,91.80,-826.17,566.41,-4.54,1.09,-1.67,-98.59
18730,800.42,770.55,770.25,766.68,776.97,110.35,-859.37,562.50,-4.75,0.31,1.71,-101.57
18764,799.14,770.31,769.96,766.55,776.49,111.82,-850.59,548.83,0.42,1.60,0.69,-100.82
18798,797.78,770.03,769.70,766.55,776.01,112.30,-836.91,560.55,1.75,1.06,1.34,-100.34
18832,796.31,769.82,769.43,766.38,775.49,102.05,-838.87,559.08,-0.76,0.00,0.54,-97.77
18866,795.00,769.63,769.08,766.27,774.99,110.84,-850.59,562.50,-1.29,0.62,1.99,-98.83
18900,793.94,769.55,768.95,766.09,774.63,105.96,-852.05,559.08,-2.16,2.87,-1.89,-95.29
18934,792.75,769.34,768.93,765.88,774.22,102.54,-847.17,564.94,0.38,0.16,-0.25,-86.73
18967,791.41,769.17,769.05,765.77,773.85,97.66,-833.98,549.80,2.25,0.32,1.69,-76.08
19001,790.13,769.11,769.16,765.60,773.50,92.77,-840.82,546.87,-0.07,-2.40,-1.47,-65.99
19034,789.30,768.95,769.35,765.40,773.25,106.45,-852.05,557.62,1.48,0.98,0.27,-54.09
19068,788.72,768.88,769.39,765.34,773.08,107.42,-849.61,561.52,-0.56,2.87,-0.03,-49.90
19102,788.45,768.91,769.41,765.29,773.01,93.26,-846.19,561.04,-1.05,0.95,-0.90,-47.80
19136,787.99,768.87,769.34,765.28,772.87,111.33,-842.77,542.48,1.75,0.25,2.69,-47.66
19170,787.52,768.79,769.41,765.12,772.71,100.59,-855.47,564.45,0.88,1.17,1.91,-41.20
19203,786.94,768.76,769.41,765.02,772.53,113.28,-854.98,547.85,-2.32,-1.02,2.65,-37.50
19237,786.60,768.73,769.42,765.01,772.44,107.42,-855.47,548.34,0.23,-0.67,-1.24,-35.72
19271,786.01,768.73,769.50,764.90,772.29,111.82,-843.26,541.99,1.03,-0.44,2.15,-30.07
19305,785.64,768.66,769.52,765.03,772.21,98.14,-851.07,553.71,0.08,-0.17,1.54,-29.70
19339,785.19,768.78,769.58,764.99,772.13,96.68,-851.07,558.59,1.42,1.79,1.31,-27.10
19373,785.19,768.71,769.54,764.92,772.09,96.19,-850.59,546.39,1.85,1.05,-0.71,-26.62
19407,785.31,768.65,769.55,764.97,772.12,102.05,-858.40,547.85,1.43,0.68,0.84,-26.83
19441,785.56,768.59,769.52,764.97,772.16,111.33,-848.63,540.04,0.12,1.94,0.19,-28.11
19475,785.85,768.60,769.46,764.87,772.19,114.26,-833.98,555.66,2.24,0.90,-0.95,-29.00
19509,785.92,768.58,769.47,764.95,772.23,109.37,-845.70,546.87,-0.52,2.37,-0.90,-30.10
19543,785.92,768.58,769.49,764.88,772.22,105.96,-850.59,544.43,0.56,2.73,0.34,-28.51
19578,786.04,768.57,769.41,764.89,772.23,113.77,-849.12,542.97,-1.11,2.14,1.36,-31.07
19613,786.53,768.50,769.40,764.68,772.28,114.26,-834.47,558.11,-0.28,2.89,-0.60,-29.44
19647,786.99,768.54,769.35,764.74,772.40,104.98,-849.12,553.22,0.87,2.22,2.49,-33.23
19681,787.28,768.53,769.31,764.63,772.44,105.47,-862.79,546.39,0.94,-1.02,1.18,-33.74
19716,787.58,768.54,769.34,764.67,772.53,102.54,-838.38,557.62,3.05,1.32,1.04,-34.62
19750,787.78,768.54,769.33,764.61,772.57,108.89,-852.05,544.92,1.17,0.42,-0.31,-34.69
19784,787.96,768.56,769.25,764.46,772.56,110.35,-850.59,554.69,-1.24,0.66,0.06,-35.06
19818,788.25,768.53,769.26,764.44,772.62,110.35,-842.29,549.32,-0.36,2.73,1.85,-35.34
19852,788.56,768.52,769.25,764.38,772.68,106.93,-858.40,553.22,1.31,-0.91,-0.73,-35.74
19886,788.84,768.45,769.21,764.38,772.72,111.82,-843.26,552.25,2.21,3.85,0.49,-37.16
19920,789.02,768.50,769.18,764.43,772.78,105.96,-848.14,553.71,0.04,1.34,1.75,-39.72
19954,789.05,768.54,769.23,764.52,772.84,110.84,-857.42,535.64,-0.09,-0.21,-0.43,-40.24
19989,789.11,768.54,769.26,764.48,772.84,96.19,-860.84,550.29,-0.90,0.46,-0.17,-39.04
20023,789.18,768.52,769.21,764.53,772.86,107.42,-849.12,552.73,2.64,1.85,-1.82,-41.06
20057,789.15,768.55,769.16,764.51,772.84,105.47,-842.77,556.64,-1.02,2.76,2.27,-42.12
20091,789.24,768.57,769.21,764.62,772.91,105.96,-834.96,542.97,0.00,-0.74,2.27,-42.95
20125,789.30,768.60,769.15,764.61,772.91,107.91,-849.61,555.18,-1.92,2.11,-3.02,-44.91
20159,789.34,768.69,769.11,764.62,772.94,103.03,-854.98,549.80,0.39,-0.95,1.51,-46.80
20193,789.41,768.72,769.03,764.67,772.96,98.63,-851.56,542.48,1.75,-0.08,0.04,-49.98
20227,789.57,768.61,769.09,764.68,772.99,105.47,-841.31,566.89,1.30,5.31,-0.23,-48.38
20262,789.57,768.63,769.03,764.77,773.00,105.96,-848.14,546.39,-1.34,-0.30,1.08,-51.33
20296,789.71,768.69,769.11,764.82,773.08,108.40,-844.24,545.41,0.47,-1.31,1.07,-50.96
20330,789.74,768.71,769.14,764.82,773.10,115.72,-849.61,552.25,1.33,0.17,1.66,-50.58
20364,789.78,768.67,769.13,764.82,773.10,96.68,-837.40,557.13,1.36,1.20,-2.15,-50.67
20398,789.82,768.69,769.20,764.83,773.14,104.49,-834.96,557.62,1.31,3.80,-0.29,-49.32
20432,789.90,768.64,769.24,764.78,773.14,118.16,-848.14,544.43,0.81,0.46,2.60,-47.48
20466,790.05,768.65,769.23,764.72,773.16,96.68,-854.49,558.59,-0.15,2.14,-0.62,-47.44
20500,790.09,768.54,769.22,764.75,773.15,118.65,-851.07,546.39,1.66,-0.15,0.51,-47.45
20534,790.31,768.60,769.27,764.72,773.23,105.47,-837.89,546.87,3.09,0.37,-0.52,-46.82
20569,790.43,768.70,769.28,764.74,773.29,106.45,-849.61,554.69,-0.38,0.20,1.16,-48.21
20603,790.46,768.61,769.23,764.76,773.27,102.54,-837.89,542.97,1.53,-1.14,0.82,-49.01
20636,790.50,768.68,769.20,764.68,773.27,115.72,-845.70,558.11,2.38,-0.44,-0.60,-49.60
20670,790.49,768.62,769.25,764.78,773.28,100.10,-836.91,564.45,-0.26,1.42,1.61,-49.04
20704,790.44,768.66,769.27,764.73,773.27,109.86,-858.89,556.64,0.08,-0.85,1.01,-47.91
20738,790.44,768.63,769.25,764.69,773.25,111.33,-839.84,560.06,0.07,-1.52,0.98,-47.66
20772,790.47,768.63,769.22,764.76,773.27,117.19,-847.17,563.48,0.22,-0.34,-0.19,-49.57
20805,790.37,768.60,769.18,764.77,773.23,106.93,-846.68,550.29,2.61,3.48,0.70,-50.02
20839,790.27,768.61,769.29,764.76,773.23,104.00,-854.98,559.08,0.10,2.41,0.18,-47.02
20873,790.17,768.57,769.24,764.75,773.18,109.37,-851.07,545.90,1.40,0.63,1.19,-47.49
20907,790.11,768.57,769.22,764.67,773.14,101.56,-848.63,549.80,-0.62,-1.80,-0.65,-46.42
20941,790.04,768.64,769.25,764.75,773.17,114.75,-838.87,554.69,1.18,0.90,0.79,-47.21
20975,790.00,768.57,769.19,764.78,773.13,110.84,-855.47,543.95,1.60,0.58,-0.23,-48.36
21009,789.90,768.56,769.28,764.85,773.15,116.70,-857.42,558.59,-0.14,1.02,0.05,-46.81
21043,789.73,768.52,769.27,764.72,773.06,112.79,-856.45,550.78,0.17,0.69,-1.31,-44.41
21077,789.70,768.55,769.31,764.80,773.09,110.35,-836.43,548.83,0.60,0.45,2.08,-44.52
21111,789.53,768.65,769.29,764.74,773.05,98.14,-843.75,554.69,-0.48,0.02,0.27,-44.29
21145,789.37,768.58,769.32,764.93,773.05,97.17,-854.49,555.66,0.66,0.70,0.82,-45.35
21180,789.29,768.62,769.36,764.98,773.06,114.75,-844.24,561.04,0.25,0.74,1.65,-45.10
21214,789.28,768.64,769.49,764.96,773.09,88.87,-860.35,560.06,0.93,0.86,-0.98,-41.78
21248,789.15,768.76,769.39,764.91,773.06,102.54,-849.61,548.83,0.36,1.81,-0.16,-44.00
21282,789.04,768.74,769.40,765.03,773.05,97.17,-844.73,548.83,2.08,-0.33,0.06,-44.98
21316,788.93,768.67,769.44,765.09,773.03,110.35,-857.91,551.27,1.08,0.73,1.44,-44.05
21350,788.90,768.66,769.39,765.08,773.01,97.17,-837.89,551.76,0.44,1.72,0.30,-44.80
21384,788.83,768.71,769.41,765.08,773.01,106.45,-845.21,541.99,1.21,3.85,-1.28,-44.55
21418,788.83,768.70,769.47,765.13,773.03,104.49,-856.93,555.66,0.14,-0.84,-0.72,-43.78
21453,788.88,768.79,769.46,765.16,773.07,102.05,-852.54,553.22,-1.37,0.82,0.74,-45.28
21487,788.75,768.74,769.49,765.17,773.04,108.40,-851.07,550.29,0.40,3.50,-1.50,-43.85
21522,788.71,768.81,769.43,765.17,773.03,113.28,-852.54,558.11,1.10,0.64,0.89,-45.60
21556,788.73,768.80,769.45,765.18,773.04,113.28,-847.66,551.27,1.53,1.84,-1.18,-45.57
21591,788.65,768.81,769.47,765.15,773.02,99.61,-853.52,558.59,1.08,1.32,-0.44,-44.31
21625,788.58,768.81,769.38,765.15,772.98,115.23,-836.91,555.66,2.99,2.03,1.96,-46.33
21659,788.71,768.81,769.46,765.20,773.05,108.89,-844.24,549.32,1.31,-0.59,2.01,-45.39
21693,788.75,768.74,769.43,765.18,773.02,103.03,-856.93,547.36,-0.39,0.92,-1.40,-45.49
21727,788.85,768.73,769.45,765.17,773.05,106.93,-850.10,552.73,0.11,-1.02,0.36,-45.04
21761,788.91,768.82,769.44,765.18,773.09,110.35,-837.40,558.59,0.99,1.00,-0.05,-46.36
21795,788.80,768.71,769.47,765.25,773.06,106.45,-839.36,552.73,0.85,2.13,1.21,-45.41
21829,788.82,768.76,769.46,765.23,773.07,105.96,-854.00,548.34,-0.60,1.81,1.73,-45.88
21864,788.76,768.81,769.44,765.15,773.04,112.30,-860.84,551.27,0.94,1.60,0.57,-45.45
21898,788.67,768.80,769.52,765.24,773.06,99.61,-845.21,557.62,1.64,0.72,2.59,-44.42
21932,788.61,768.78,769.49,765.38,773.07,90.82,-841.80,551.76,-0.49,0.53,-0.50,-46.69
21966,788.40,768.89,769.58,765.33,773.05,94.73,-852.05,557.13,0.86,2.22,-0.59,-43.99
22000,788.24,768.84,769.54,765.47,773.02,105.96,-837.40,558.59,0.44,1.47,-0.19,-46.17
22034,788.10,768.82,769.61,765.49,773.00,95.21,-856.93,546.39,0.49,0.71,3.35,-44.05
22068,787.98,768.96,769.62,765.47,773.01,115.23,-843.26,557.62,1.62,1.02,2.18,-44.08
22102,787.77,768.93,769.63,765.54,772.97,109.86,-844.24,559.08,0.91,1.83,1.53,-43.89
22136,787.54,769.12,769.68,765.73,773.02,120.12,-845.70,551.76,0.66,3.24,0.95,-46.37
22170,787.31,769.11,769.77,765.75,772.98,114.26,-837.89,562.99,1.67,1.25,0.72,-43.47
22204,787.19,769.16,769.83,765.93,773.03,101.07,-842.29,555.18,0.83,2.20,-2.70,-44.61
22237,787.11,769.03,769.78,765.87,772.95,106.93,-847.66,570.80,2.21,0.17,-0.49,-43.53
22271,787.20,769.05,769.85,765.90,773.00,108.40,-842.29,565.92,0.00,0.66,-0.08,-42.86
22304,787.31,769.01,769.84,765.81,772.99,102.54,-846.68,541.50,-0.11,0.77,-2.44,-41.85
22339,787.34,769.03,769.79,765.85,773.00,103.52,-848.14,554.69,1.05,2.11,-0.57,-43.92
22372,787.50,769.01,769.74,765.75,773.00,105.47,-840.33,552.73,-0.75,3.79,0.08,-44.18
22406,787.64,769.01,769.74,765.77,773.04,113.28,-853.52,549.80,0.18,-0.66,-1.63,-44.77
22440,787.74,768.99,769.80,765.76,773.07,109.86,-840.82,557.62,-1.02,-0.89,2.60,-43.34
22475,787.93,768.97,769.76,765.75,773.10,104.00,-842.77,550.78,0.62,2.07,2.05,-44.49
22509,787.83,768.99,769.81,765.75,773.09,110.35,-849.61,556.64,0.76,1.23,0.43,-43.30
22543,787.86,768.97,769.77,765.82,773.10,95.21,-838.87,553.22,0.10,1.12,1.92,-45.28
22577,787.91,768.95,769.69,765.74,773.08,107.91,-851.07,555.66,0.99,2.57,0.80,-46.11
22611,787.95,768.93,769.78,765.71,773.09,104.98,-848.14,556.15,-0.14,2.57,1.50,-43.50
22645,787.94,768.96,769.69,765.66,773.06,103.03,-843.26,563.48,1.58,2.13,1.82,-45.10
22679,787.90,768.98,769.76,765.74,773.10,108.89,-854.00,551.27,-1.69,2.47,0.91,-44.42
22713,787.82,769.01,769.73,765.78,773.08,105.96,-843.26,546.39,1.34,0.74,0.32,-45.71
22748,787.77,769.03,769.78,765.66,773.06,97.17,-835.45,558.11,0.41,0.35,-1.81,-42.97
22782,787.67,769.04,769.77,765.69,773.04,109.86,-847.17,559.57,-1.04,1.77,1.67,-43.26
22816,787.64,769.03,769.79,765.69,773.04,114.26,-845.70,552.25,1.61,1.71,2.05,-42.45
22850,787.56,769.01,769.75,765.81,773.03,96.19,-836.91,548.34,0.26,0.41,0.36,-44.89
22884,787.55,768.90,769.79,765.70,772.99,108.40,-847.17,551.76,-0.65,-0.44,-1.47,-41.28
22918,787.52,768.93,769.79,765.73,772.99,117.19,-847.66,559.08,0.63,0.88,-0.21,-41.93
22952,787.33,768.95,769.73,765.78,772.95,116.21,-837.40,555.66,0.73,0.11,-0.37,-43.88
22986,787.33,769.01,769.81,765.79,772.98,107.42,-842.77,545.90,1.76,0.42,0.77,-42.13
23021,787.17,768.95,769.81,765.77,772.93,100.59,-850.10,559.08,-1.23,1.27,-1.87,-41.09
23055,787.14,769.02,769.81,765.77,772.93,101.56,-853.03,553.71,-0.05,0.66,0.75,-41.46
23089,787.08,769.07,769.79,765.85,772.94,110.35,-849.61,554.69,0.19,2.68,1.76,-43.35
23123,786.92,769.09,769.86,765.88,772.94,102.05,-841.31,559.57,-0.07,-0.37,0.18,-41.67
23157,786.72,769.09,769.91,765.96,772.92,103.03,-847.17,555.66,0.47,2.31,3.02,-40.92
23191,786.70,769.16,769.91,766.07,772.96,105.96,-835.94,558.59,1.56,0.55,2.65,-43.14
23225,786.64,769.05,769.94,766.07,772.92,109.37,-837.40,553.22,1.23,1.03,-0.17,-41.14
23259,786.55,769.10,769.97,766.10,772.93,105.96,-856.93,553.71,0.70,-0.61,0.59,-40.96
23294,786.60,769.13,769.94,766.14,772.95,104.00,-846.68,562.99,0.40,0.69,-0.47,-42.61
23328,786.55,769.19,769.93,766.09,772.94,107.91,-856.93,558.11,-2.73,3.63,-0.82,-42.50
23362,786.55,769.12,769.92,766.04,772.91,100.59,-854.00,561.52,-0.91,4.23,-2.84,-41.46
23396,786.59,769.10,769.97,766.09,772.94,97.66,-832.03,566.41,0.19,0.98,-1.55,-40.89
23432,786.51,769.09,769.90,766.08,772.90,105.96,-841.80,549.32,0.74,1.63,-0.66,-42.09
23466,786.53,769.17,770.02,765.99,772.93,97.17,-844.73,559.57,-0.44,2.66,-1.46,-38.56
23500,786.51,769.09,770.10,766.09,772.95,104.49,-850.59,557.13,0.21,1.52,-0.76,-37.39
23534,786.41,769.19,770.06,766.15,772.95,101.56,-838.87,561.52,0.32,-0.56,0.84,-39.72
23568,786.32,769.19,770.12,766.07,772.93,108.89,-840.33,554.69,1.73,3.73,0.71,-36.79
23602,786.37,769.18,770.03,766.14,772.93,125.00,-845.70,549.80,2.44,0.23,2.81,-39.98
23637,786.19,769.18,770.11,766.15,772.91,103.03,-838.38,558.11,0.76,2.21,0.60,-37.67
23671,786.27,769.14,770.08,766.15,772.91,105.47,-851.07,560.06,-0.47,1.48,-0.53,-38.34
23705,786.22,769.18,770.08,766.26,772.93,97.17,-844.24,563.96,1.26,2.24,-0.10,-40.04
23739,786.23,769.23,770.14,766.21,772.95,99.61,-836.91,552.25,1.04,1.00,-0.48,-38.18
23772,786.14,769.17,770.16,766.31,772.95,110.84,-841.80,564.45,2.05,-0.26,-1.03,-38.45
23806,786.10,769.14,770.17,766.23,772.91,106.93,-844.73,552.25,0.11,-0.49,0.27,-36.77
23840,786.12,769.18,770.09,766.27,772.91,104.49,-836.91,550.29,-1.01,1.10,0.57,-39.65
23873,786.01,769.21,770.17,766.33,772.93,97.66,-849.12,555.18,0.48,1.12,0.40,-38.38
23907,785.98,769.25,770.17,766.33,772.93,90.33,-833.98,560.06,0.38,2.47,2.09,-38.59
23940,785.93,769.25,770.17,766.42,772.94,92.77,-842.29,562.01,-0.49,1.50,1.37,-39.56
23975,785.90,769.29,770.17,766.37,772.93,107.91,-839.84,554.69,0.47,2.23,2.01,-39.09
24008,786.00,769.28,770.20,766.47,772.99,106.45,-834.96,559.08,1.37,2.90,-0.11,-40.23
24042,786.00,769.23,770.18,766.41,772.96,101.07,-844.73,554.20,-0.67,1.72,2.34,-39.33
24076,786.09,769.24,770.17,766.34,772.96,100.59,-854.00,564.94,-0.56,3.82,1.06,-39.00
24110,786.16,769.21,770.13,766.36,772.96,105.47,-844.24,555.66,0.21,-0.44,0.76,-40.18
24144,786.32,769.25,770.07,766.23,772.97,109.86,-843.26,566.89,0.03,0.77,-0.29,-40.78
24177,786.33,769.18,770.13,766.20,772.96,104.49,-832.52,566.41,-2.40,3.42,0.08,-38.43
24212,786.48,769.21,770.07,766.13,772.97,101.56,-838.87,553.22,-1.56,2.20,-1.10,-39.59
24246,786.55,769.11,769.96,766.22,772.96,101.56,-839.36,563.48,-0.79,2.49,1.65,-43.01
24280,786.64,769.04,770.00,766.07,772.94,100.10,-842.77,562.50,-2.44,0.16,-0.92,-39.55
24314,786.78,768.98,770.04,766.05,772.96,103.52,-842.77,568.36,-0.76,1.67,-0.56,-38.19
24348,786.92,769.00,769.95,765.96,772.96,111.33,-856.93,553.22,0.60,-3.19,-1.27,-39.89
24384,786.99,769.00,769.92,765.87,772.95,97.66,-837.89,559.57,-0.88,0.08,-0.30,-39.40
24418,787.16,768.97,769.83,765.80,772.94,95.21,-831.05,556.15,0.76,1.95,0.34,-40.92
24452,787.19,768.92,769.87,765.80,772.94,115.23,-853.52,558.11,-0.27,1.39,-1.26,-39.83
24486,787.24,768.97,769.80,765.78,772.94,113.28,-849.61,549.80,0.63,0.64,1.45,-41.82
24520,787.34,768.96,769.82,765.71,772.96,98.14,-841.80,562.50,1.53,-1.53,2.29,-40.52
24554,787.42,768.84,769.78,765.72,772.94,104.00,-826.66,550.29,-0.38,1.59,1.02,-40.90
24588,787.51,768.91,769.77,765.57,772.94,102.54,-852.54,548.34,1.67,0.82,-1.58,-39.98
24623,787.57,768.91,769.76,765.55,772.95,95.21,-841.80,552.73,-0.70,1.17,0.05,-39.90
24657,787.55,768.81,769.75,765.57,772.92,106.45,-835.94,548.34,1.57,0.97,-0.34,-39.82
24691,787.53,768.86,769.74,765.52,772.91,106.45,-838.87,558.59,-0.80,-0.28,0.11,-39.72
24725,787.52,768.88,769.69,765.53,772.90,107.42,-844.24,551.27,0.08,3.00,0.93,-41.16
24759,787.56,768.87,769.70,765.57,772.92,106.45,-846.68,559.57,2.66,-0.08,-0.40,-41.49
24793,787.63,768.84,769.71,765.59,772.94,104.00,-838.87,551.27,1.36,1.62,-1.61,-41.57
24827,787.64,768.85,769.75,765.50,772.94,96.19,-843.26,557.13,1.46,0.72,-1.56,-39.31
24861,787.67,768.85,769.71,765.55,772.95,114.75,-846.19,557.62,1.25,0.27,-0.18,-41.26
24896,787.69,768.85,769.75,765.50,772.95,103.03,-845.21,569.34,1.95,1.60,-0.11,-39.41
24930,787.81,768.88,769.68,765.52,772.97,96.68,-849.61,554.69,-1.91,-0.24,3.31,-42.24
24964,787.79,768.90,769.75,765.44,772.97,100.59,-847.66,551.27,-0.22,-0.08,0.05,-39.32
24998,787.85,768.87,769.74,765.48,772.98,115.23,-856.93,553.71,-0.08,2.41,-1.01,-40.08
25032,787.91,768.95,769.76,765.51,773.03,115.72,-849.61,561.04,0.47,2.73,-0.44,-40.79
25066,787.96,768.96,769.74,765.52,773.05,100.10,-846.68,561.52,0.47,2.82,2.21,-41.96
25100,787.92,768.98,769.74,765.53,773.04,108.89,-853.52,556.15,-1.27,-0.38,3.46,-41.83
25134,787.96,768.97,769.72,765.62,773.07,102.54,-840.33,558.59,0.21,-0.23,-4.50,-43.77
25169,787.81,769.00,769.76,765.61,773.04,112.30,-840.82,555.66,1.07,3.53,1.96,-42.50
25203,787.82,768.94,769.70,765.57,773.01,102.05,-854.98,563.96,-0.05,-0.50,1.04,-42.88
25237,787.83,768.97,769.84,765.62,773.06,98.14,-847.17,555.66,1.66,1.80,-1.56,-40.49
25271,787.79,769.05,769.77,765.62,773.06,84.96,-848.14,562.99,1.75,1.18,2.67,-42.82
25305,787.81,769.10,769.83,765.67,773.11,107.42,-844.73,556.64,0.25,0.81,1.59,-42.44
25341,787.83,769.00,769.82,765.65,773.07,112.30,-854.98,555.18,1.19,-0.43,-1.05,-41.63
25374,787.78,769.06,769.84,765.61,773.07,96.68,-848.63,562.50,-0.64,2.02,0.07,-40.85
25408,787.68,769.02,769.82,765.64,773.04,92.77,-839.84,557.62,-0.72,0.68,-0.89,-41.24
25442,787.66,768.97,769.78,765.68,773.02,114.75,-838.38,557.13,0.31,2.83,0.98,-42.31
25475,787.68,769.01,769.75,765.76,773.05,104.00,-850.59,569.34,0.08,-0.76,2.24,-44.54
25509,787.69,768.97,769.76,765.69,773.03,107.91,-838.87,560.55,-1.97,2.81,-1.98,-42.85
25542,787.73,769.01,769.81,765.70,773.06,107.42,-839.36,559.08,2.23,-0.30,0.27,-42.27
25576,787.59,768.91,769.82,765.63,772.99,104.49,-844.73,544.43,1.56,1.30,1.31,-39.78
25610,787.58,769.09,769.83,765.67,773.04,116.21,-842.29,559.57,-0.68,2.75,-3.32,-41.54
25644,787.49,769.00,769.79,765.76,773.01,110.35,-850.59,548.34,1.04,1.49,-0.14,-42.89
25678,787.42,769.02,769.87,765.75,773.02,98.14,-833.01,562.50,2.85,0.56,0.32,-40.57
25712,787.42,769.00,769.85,765.68,772.99,108.40,-847.17,549.32,2.14,1.59,-0.01,-39.98
25746,787.34,769.02,769.79,765.79,772.99,99.61,-845.21,550.29,-0.98,2.66,0.60,-43.04
25779,787.33,769.04,769.83,765.78,773.00,94.73,-850.59,572.27,1.35,-0.21,0.78,-41.73
25814,787.28,769.10,769.85,765.82,773.01,103.03,-845.21,562.50,1.73,2.77,-1.73,-42.26
25848,787.20,769.09,769.82,765.84,772.99,113.28,-843.26,559.57,2.43,2.36,2.14,-42.94
25882,787.19,769.12,769.88,765.81,773.00,108.40,-842.29,565.43,2.33,3.11,1.30,-41.28
25916,787.07,769.12,769.88,765.83,772.98,104.49,-854.00,559.08,-0.90,3.38,-0.08,-41.16
25950,787.00,769.03,769.95,765.80,772.95,106.45,-845.21,564.94,2.42,3.77,-3.09,-38.07
25984,787.05,769.06,769.89,765.90,772.98,94.73,-848.14,552.25,0.30,0.54,-0.96,-41.27
26018,787.04,769.01,769.91,765.86,772.96,125.49,-847.66,554.69,0.53,1.66,0.70,-39.86
26053,787.07,769.13,769.85,765.79,772.96,102.54,-840.82,556.64,0.69,3.44,1.19,-41.43
26087,787.16,769.09,769.95,765.74,772.98,106.45,-850.59,545.90,0.21,1.14,0.02,-38.14
26121,787.16,769.06,769.87,765.75,772.96,107.91,-844.24,560.55,-0.19,0.57,2.60,-39.86
26155,787.16,769.03,769.90,765.74,772.96,105.96,-852.54,564.45,2.92,1.10,-2.07,-38.91
26189,787.28,769.07,769.80,765.82,772.99,110.35,-842.77,557.62,0.26,1.49,0.58,-43.26
26223,787.36,769.06,769.82,765.75,773.00,101.07,-848.63,549.80,-0.82,-0.28,0.56,-42.04
26257,787.46,768.98,769.73,765.73,772.97,113.28,-841.31,568.85,-0.63,2.93,0.37,-43.42
26293,787.51,769.03,769.63,765.69,772.96,104.49,-845.70,561.04,-0.99,1.02,1.30,-46.11
26327,787.41,768.93,769.72,765.71,772.94,104.00,-852.05,561.04,-0.15,2.18,1.62,-42.92
26361,787.53,768.99,769.72,765.72,772.99,103.03,-845.70,552.73,1.15,1.21,-1.07,-44.07
26395,787.53,768.91,769.69,765.67,772.95,109.86,-846.68,559.08,-2.23,1.24,0.80,-43.50
26429,787.59,768.99,769.76,765.69,773.01,113.77,-838.38,553.22,2.13,0.80,-5.37,-42.93
26464,787.62,769.06,769.74,765.63,773.01,97.66,-848.14,555.18,0.89,0.11,0.37,-43.18
26498,787.60,768.98,769.69,765.63,772.98,107.42,-842.77,550.29,-0.28,1.30,0.76,-43.71
26532,787.64,768.91,769.76,765.67,773.00,98.63,-849.12,553.22,1.94,0.80,-0.66,-41.90
26566,787.74,768.93,769.75,765.61,773.01,113.28,-840.82,561.04,-0.63,1.27,-0.25,-41.85
26600,787.79,769.01,769.63,765.57,773.00,105.47,-835.94,567.87,0.74,0.03,-2.54,-45.13
26634,787.77,768.87,769.69,765.56,772.97,107.42,-852.05,540.53,1.95,0.63,-1.44,-42.24
26668,787.89,768.90,769.68,765.54,773.00,108.89,-852.54,549.32,1.62,0.43,0.85,-42.86
26702,787.88,768.90,769.63,765.52,772.98,102.05,-844.73,564.45,1.65,0.38,1.38,-43.77
26737,787.95,768.84,769.67,765.49,772.99,101.56,-849.61,553.22,-2.57,2.90,-0.95,-42.05
26771,788.12,768.77,769.67,765.46,773.01,115.72,-841.31,556.15,-0.18,2.04,-0.55,-41.80
26805,788.14,768.82,769.63,765.44,773.01,104.98,-851.56,544.43,0.15,1.05,-1.77,-42.95
26839,788.18,768.80,769.56,765.40,772.98,96.68,-846.68,552.25,0.98,2.72,1.03,-43.94
26873,788.17,768.82,769.58,765.34,772.98,110.84,-842.77,557.13,0.88,1.30,-0.94,-42.73
26907,788.32,768.70,769.56,765.25,772.96,111.82,-835.94,565.92,1.10,1.96,1.98,-41.37
26941,788.32,768.74,769.51,765.24,772.95,114.75,-845.21,557.62,0.14,0.66,1.48,-42.82
26975,788.31,768.67,769.52,765.19,772.92,114.26,-841.31,559.57,3.10,2.50,-1.47,-41.40
27008,788.45,768.71,769.55,765.14,772.96,120.12,-833.50,562.50,-0.56,2.15,1.83,-40.65
27042,788.57,768.73,769.47,765.14,772.98,97.17,-836.91,562.99,1.35,1.82,-1.44,-43.30
27076,788.62,768.69,769.53,765.19,773.01,113.77,-837.40,549.32,1.08,0.97,0.60,-42.19
27109,788.71,768.68,769.56,765.23,773.05,102.05,-841.80,555.18,-0.08,3.27,4.45,-42.33
27143,788.73,768.60,769.50,765.15,773.00,107.42,-844.24,552.25,0.08,-1.45,-0.33,-42.11
27177,788.75,768.71,769.50,765.09,773.01,97.66,-855.96,554.69,2.11,0.52,-0.31,-42.14
27212,788.64,768.64,769.48,765.17,772.98,107.42,-850.59,545.90,0.20,2.69,1.46,-42.80
27246,788.67,768.55,769.53,765.15,772.98,110.84,-839.36,568.85,1.52,2.81,1.66,-40.76
27280,788.72,768.64,769.49,765.08,772.98,100.10,-844.24,555.18,1.26,0.03,0.75,-41.54
27314,788.75,768.64,769.46,765.04,772.97,122.56,-841.80,555.66,-1.54,0.95,1.93,-42.07
27348,788.87,768.56,769.45,765.04,772.98,111.33,-850.59,544.43,-0.16,0.32,0.40,-41.89
27382,788.88,768.56,769.40,765.00,772.96,94.73,-844.73,550.78,-0.63,0.37,2.20,-42.44
27416,788.97,768.52,769.39,765.01,772.97,114.26,-831.05,563.48,-0.79,2.60,0.41,-43.07
27450,789.06,768.56,769.31,764.99,772.98,118.16,-852.54,548.83,0.69,0.32,-0.89,-45.39
27484,789.09,768.50,769.34,764.94,772.97,102.05,-850.10,545.90,-1.38,3.38,-0.36,-43.47
27518,789.27,768.52,769.33,764.90,773.00,104.49,-836.91,552.25,-0.87,1.02,2.41,-44.05
27552,789.32,768.47,769.27,764.66,772.93,122.07,-849.61,565.43,0.47,0.66,1.56,-41.71
27586,789.50,768.39,769.29,764.67,772.96,123.05,-833.50,554.20,-0.06,0.02,-0.42,-41.28
27620,789.58,768.45,769.24,764.64,772.98,97.17,-844.73,557.62,-0.35,1.89,-0.71,-42.82
27655,789.71,768.43,769.19,764.54,772.97,96.19,-852.05,556.64,0.19,1.02,0.56,-42.98
27689,789.79,768.45,769.18,764.51,772.98,101.56,-856.45,564.45,0.27,0.30,-1.00,-43.09
27723,789.89,768.41,769.17,764.44,772.98,100.59,-855.47,546.39,-1.62,1.10,1.39,-42.31
27757,790.02,768.43,769.10,764.50,773.01,108.40,-835.45,557.62,0.00,2.02,-0.16,-45.64
27791,790.13,768.38,769.09,764.39,773.00,103.03,-847.66,542.97,0.24,0.40,-1.21,-44.06
27825,790.32,768.18,769.06,764.33,772.97,114.26,-848.14,559.08,-0.47,1.16,1.64,-43.23
27859,790.57,768.19,769.01,764.22,773.00,108.40,-843.75,555.66,2.17,1.67,1.08,-43.73
27893,790.83,768.06,768.92,764.22,773.01,106.45,-854.00,547.36,-0.97,1.44,0.11,-45.65
27928,790.93,768.03,768.85,763.99,772.95,104.00,-843.26,549.32,-1.03,1.17,-0.66,-44.15
27962,790.96,767.96,768.80,763.87,772.90,107.42,-855.96,551.76,-0.34,1.97,0.31,-43.34
27996,790.93,767.98,768.70,763.86,772.87,111.82,-848.63,548.83,-2.01,-0.88,-1.33,-45.62
28030,790.85,767.94,768.75,763.90,772.86,109.86,-848.63,540.53,0.53,1.24,1.43,-44.47
28064,790.75,767.93,768.81,763.83,772.83,111.82,-850.59,552.25,-0.39,2.03,1.50,-41.28
28098,790.73,767.93,768.78,763.84,772.82,114.26,-843.26,557.62,0.31,1.09,-1.22,-42.32
28134,790.50,767.98,768.80,763.89,772.79,106.45,-853.52,566.89,1.51,3.11,-0.66,-42.15
28168,790.34,768.04,768.84,763.96,772.79,110.84,-832.03,551.27,2.31,1.81,-0.56,-42.13
28202,790.11,768.07,768.85,764.02,772.76,112.79,-849.12,559.08,0.96,1.22,2.98,-42.14
28236,789.90,768.02,768.91,764.17,772.75,107.91,-838.38,563.96,0.56,3.66,-1.51,-41.71
28270,789.59,768.17,768.92,764.22,772.73,110.84,-854.49,566.41,3.11,2.39,-1.09,-42.26
28304,789.12,768.20,769.10,764.32,772.69,95.21,-837.89,558.59,1.73,1.24,-0.60,-38.06
28339,788.94,768.29,769.16,764.41,772.70,93.26,-838.87,561.04,2.53,2.70,-0.82,-37.95
28373,789.09,768.30,769.09,764.48,772.74,100.59,-829.59,562.50,-0.47,3.81,0.48,-41.41
28407,789.15,768.36,769.17,764.61,772.82,100.10,-842.77,562.01,-1.01,2.25,1.10,-41.79
28441,789.07,768.36,769.21,764.63,772.82,107.42,-845.70,553.22,-0.73,1.02,0.27,-41.01
28475,788.90,768.44,769.19,764.64,772.79,103.52,-842.77,555.66,1.18,4.67,0.47,-41.68
28509,788.95,768.45,769.22,764.69,772.83,103.03,-852.54,550.29,-0.18,1.53,0.11,-41.99
28543,788.88,768.42,769.24,764.82,772.84,118.65,-847.17,557.13,1.04,3.11,-0.87,-42.81
28577,788.84,768.58,769.27,764.94,772.91,107.42,-856.93,542.48,-1.21,3.73,1.56,-44.90
28610,788.88,768.51,769.33,764.93,772.91,100.10,-854.98,562.01,2.42,-0.40,1.10,-42.96
28644,788.80,768.62,769.41,764.98,772.95,104.00,-852.05,554.20,1.53,-0.13,-2.70,-42.10
28678,788.55,768.70,769.42,765.10,772.94,99.61,-855.47,560.06,-0.73,0.61,-0.48,-43.49
28711,788.30,768.69,769.45,765.16,772.90,109.86,-841.31,557.62,2.76,1.58,0.89,-42.78
28745,788.26,768.79,769.50,765.28,772.96,109.86,-844.73,557.13,-0.06,0.08,-1.18,-44.08
28779,788.11,768.82,769.54,765.32,772.95,112.79,-846.19,559.08,1.05,0.49,0.05,-43.37
28813,788.01,768.85,769.63,765.41,772.97,104.98,-852.05,550.78,0.91,1.70,0.84,-42.29
28847,787.86,768.94,769.62,765.50,772.98,102.05,-836.91,552.73,1.55,1.15,-0.53,-44.07
28880,787.95,768.91,769.62,765.51,773.00,94.73,-845.70,561.52,1.15,1.63,-2.05,-44.25
28914,787.97,769.01,769.65,765.60,773.06,102.54,-854.00,548.83,-0.30,0.76,-0.37,-45.83
28948,787.92,768.95,769.76,765.59,773.06,104.49,-841.31,560.06,0.05,-1.38,0.05,-42.00
28982,787.89,768.96,769.65,765.68,773.04,104.98,-835.45,556.64,0.34,0.95,4.50,-46.27
29018,787.91,769.00,769.66,765.69,773.07,105.47,-849.61,554.69,-0.32,0.97,0.87,-46.59
29052,787.96,768.95,769.68,765.75,773.08,110.84,-846.68,557.62,0.21,-1.58,0.23,-46.67
29086,787.89,768.90,769.69,765.70,773.04,113.77,-845.21,551.27,0.98,1.28,-1.18,-45.00
29120,787.76,768.98,769.65,765.71,773.03,101.56,-847.17,546.87,0.78,1.21,0.12,-46.25
29154,787.60,769.00,769.76,765.79,773.04,122.56,-844.24,556.15,1.26,0.48,1.56,-44.37
29188,787.48,769.05,769.76,765.82,773.03,117.68,-841.80,547.85,1.86,0.92,1.32,-44.82
29222,787.43,769.00,769.78,765.88,773.02,119.63,-849.61,556.64,0.01,3.10,-0.73,-44.61
29256,787.37,769.04,769.80,765.99,773.05,109.37,-843.75,546.87,-1.67,1.23,-0.92,-45.86
29291,787.30,769.06,769.88,765.95,773.05,113.28,-846.19,568.36,0.30,3.70,-2.92,-43.21
29325,787.28,769.04,769.92,765.94,773.05,114.26,-848.63,554.69,0.66,1.74,0.40,-41.78
29359,787.27,769.09,769.87,765.96,773.05,107.91,-841.80,556.15,0.34,0.30,-0.05,-43.75
29393,787.14,769.02,769.85,765.97,772.99,104.98,-840.33,550.78,-0.54,1.27,2.01,-43.40
29427,787.15,769.05,769.91,765.97,773.02,104.49,-853.52,555.66,1.13,0.98,-1.37,-42.18
29461,787.09,769.05,769.88,766.00,773.01,127.44,-847.17,560.06,1.09,1.82,0.44,-43.13
29495,787.09,769.11,769.84,766.02,773.02,102.54,-844.24,562.99,0.48,3.09,-0.75,-44.86
29529,787.05,769.18,769.98,766.04,773.06,100.59,-841.31,557.62,0.50,1.21,-0.25,-42.12
29564,786.98,769.12,769.87,766.11,773.02,102.05,-845.70,557.62,1.47,-1.21,0.12,-45.19
29598,786.87,769.14,769.92,766.05,773.00,86.43,-839.36,565.43,0.19,1.31,1.36,-42.91
29632,786.90,769.07,769.91,766.04,772.98,116.21,-854.00,560.06,-2.11,2.60,-0.53,-42.52
29666,786.89,769.14,769.86,766.03,772.98,105.96,-844.73,564.94,-1.08,1.89,2.41,-44.23
29700,786.87,769.17,769.95,766.02,773.00,101.07,-852.54,552.73,-1.81,1.36,0.56,-41.80
29734,786.80,769.15,769.89,766.07,772.98,102.54,-855.47,558.11,-0.16,1.63,-1.34,-43.68
29768,786.85,769.09,769.92,766.05,772.98,103.52,-850.59,551.27,0.58,1.56,-0.41,-42.40
29802,786.92,769.11,769.94,766.01,773.00,118.65,-838.87,555.66,-0.72,2.55,2.26,-41.72
29837,786.87,769.11,769.93,766.03,772.99,103.03,-845.21,558.59,0.55,2.17,-0.82,-42.15
29871,786.92,769.02,769.87,766.00,772.95,100.10,-854.98,561.04,-0.05,2.87,-0.62,-42.52
29905,786.90,769.10,769.90,766.00,772.97,109.86,-851.07,565.92,1.15,3.98,0.01,-42.45
29939,786.81,769.05,769.96,765.97,772.95,111.82,-862.79,550.78,1.72,-0.60,1.32,-39.82
29975,786.93,769.06,769.92,766.02,772.98,111.33,-842.77,549.80,2.04,-0.32,-2.49,-41.89
30009,786.87,769.07,769.91,766.05,772.98,100.59,-843.75,559.57,2.11,2.14,-0.89,-42.41
30043,786.88,769.09,769.86,766.05,772.97,109.86,-844.73,567.87,-0.40,1.98,1.37,-44.08
30077,786.84,769.04,769.86,765.99,772.93,112.79,-845.70,554.20,-0.24,-0.85,-0.75,-42.54
30111,786.89,768.95,769.86,765.96,772.92,119.63,-841.31,552.25,-0.86,0.62,0.05,-41.62
30145,786.88,769.09,769.84,765.92,772.93,104.98,-848.14,545.41,2.10,0.76,-2.49,-42.54
30179,786.86,769.01,769.86,765.93,772.91,116.21,-849.12,552.25,0.34,1.87,1.06,-41.37
30212,786.88,769.09,769.81,765.99,772.94,113.77,-843.26,560.55,-0.76,2.89,1.35,-44.29
30246,786.76,768.99,769.87,766.01,772.91,101.07,-850.10,563.96,1.06,0.96,-1.26,-42.03
30280,786.76,769.05,769.89,766.02,772.93,103.03,-838.38,552.73,-0.34,2.69,-0.40,-41.94
30313,786.73,769.09,769.86,766.07,772.94,111.33,-847.66,548.34,0.82,-1.37,-1.27,-43.79
30347,786.79,769.07,769.83,765.98,772.92,101.07,-841.80,554.69,0.96,-0.24,-1.69,-43.19
30381,786.76,769.11,769.87,765.93,772.92,110.84,-844.24,555.66,0.95,4.44,1.34,-41.59
30415,786.73,769.10,769.87,766.03,772.93,103.03,-836.43,562.50,0.34,2.73,0.44,-42.96
30449,786.65,769.11,769.94,765.99,772.92,107.91,-854.49,566.41,1.44,1.02,1.08,-40.52
30482,786.60,769.10,769.89,765.97,772.89,104.00,-841.80,559.08,0.45,2.02,2.56,-41.12
30516,786.65,769.05,769.92,765.96,772.89,93.75,-846.19,562.50,1.01,3.79,0.41,-40.14
30550,786.65,769.07,769.89,766.01,772.90,106.45,-844.24,556.15,1.23,-0.17,-2.04,-41.75
30584,786.64,769.06,769.91,766.02,772.91,106.45,-854.98,550.78,0.95,2.42,1.30,-41.32
30618,786.67,769.09,769.96,766.06,772.94,97.17,-852.05,553.22,0.09,2.07,0.80,-41.02
30652,786.71,769.09,769.91,765.90,772.90,106.45,-838.87,557.13,1.24,1.69,-1.79,-39.96
30686,786.68,769.12,769.91,765.93,772.91,100.10,-853.52,558.59,-1.31,1.34,-0.24,-40.33
30720,786.71,769.15,769.92,765.99,772.94,107.42,-838.87,558.11,0.79,-0.21,-0.33,-41.43
30754,786.79,769.16,769.95,766.00,772.97,108.89,-849.61,563.48,-0.89,1.92,0.57,-41.23
30788,786.81,769.10,769.82,765.97,772.92,108.40,-854.98,554.69,-0.34,1.31,-0.23,-43.43
30823,786.76,769.06,769.87,765.99,772.92,107.91,-854.98,559.57,-1.17,-0.82,2.76,-42.22
30857,786.87,769.08,769.89,765.94,772.95,104.49,-852.05,554.20,-1.49,0.94,0.02,-41.54
30891,786.89,769.02,769.92,765.95,772.94,114.75,-854.00,542.97,0.18,0.15,-1.06,-40.55
30927,786.91,769.09,769.83,765.93,772.94,103.03,-838.38,549.80,1.01,2.56,0.61,-43.15
30961,786.95,769.10,769.87,765.84,772.94,99.61,-837.40,549.32,1.46,1.96,-2.84,-41.02
30995,786.99,769.01,769.83,765.86,772.92,106.45,-837.89,558.11,0.68,1.16,0.51,-41.68
31029,787.07,769.01,769.86,765.89,772.96,97.17,-842.29,559.57,0.91,-0.92,-0.97,-41.71
31063,786.98,769.01,769.89,765.86,772.94,99.61,-837.40,548.34,0.00,-2.37,0.97,-40.15
31097,786.96,769.05,769.90,765.91,772.96,94.24,-850.10,561.04,0.76,-1.96,-2.10,-40.88
31131,787.00,769.00,769.86,765.95,772.95,117.68,-836.43,557.13,-0.65,1.89,-1.07,-42.31
31165,786.99,769.00,769.88,765.86,772.93,109.86,-851.07,553.22,0.95,5.34,0.84,-40.31
31199,787.02,769.08,769.90,765.90,772.97,102.54,-851.56,553.71,-0.21,1.02,-0.30,-41.01
31234,787.13,769.08,769.84,765.92,772.99,95.70,-850.59,551.27,-0.11,-1.73,0.46,-43.26
31268,787.16,769.02,769.82,765.92,772.98,109.86,-865.23,546.87,-0.97,3.29,1.97,-43.51
31302,787.13,769.00,769.85,765.89,772.97,111.33,-843.75,545.41,-0.34,2.87,0.02,-42.06
31336,787.11,769.05,769.84,765.83,772.96,106.93,-834.96,567.87,1.73,1.10,3.42,-41.79
31370,787.06,768.97,769.85,765.85,772.93,91.31,-850.10,552.25,1.71,-0.39,-0.77,-40.82
31404,787.00,769.03,769.82,765.89,772.93,100.10,-858.40,561.52,-1.16,1.72,-1.92,-42.50
31438,787.03,768.98,769.84,765.82,772.92,102.05,-842.29,562.99,2.27,2.91,0.10,-40.88
31472,787.07,768.99,769.79,765.79,772.91,100.10,-857.91,542.48,0.95,-0.01,-1.69,-41.73
31507,786.99,768.95,769.85,765.89,772.92,103.52,-849.12,554.69,1.23,3.03,-1.15,-41.06
31541,787.00,769.00,769.79,765.92,772.93,101.07,-848.63,554.20,0.87,-0.79,-1.31,-43.39
31575,787.01,768.95,769.83,765.79,772.89,110.35,-846.19,544.43,1.19,1.54,0.29,-40.20
31609,787.02,768.91,769.81,765.76,772.88,99.12,-846.19,564.45,0.32,2.44,0.98,-39.86
31643,787.01,768.98,769.83,765.78,772.90,113.28,-841.80,550.78,-0.69,0.92,1.15,-40.13
31677,787.04,768.91,769.80,765.76,772.88,117.68,-857.42,555.66,-0.57,-0.24,-2.89,-40.45
31711,787.01,768.89,769.74,765.79,772.86,90.33,-846.19,557.13,0.42,0.44,-2.59,-42.09
31745,786.99,768.96,769.73,765.74,772.85,104.49,-851.07,562.50,-0.64,4.27,1.85,-41.97
31780,787.06,768.95,769.73,765.73,772.87,104.98,-847.66,556.15,1.78,1.06,-0.11,-42.12
31813,787.00,768.91,769.79,765.69,772.85,125.49,-838.87,571.78,0.98,3.22,0.86,-39.37
31847,787.05,768.93,769.80,765.74,772.88,108.89,-858.40,564.94,-0.09,2.57,0.15,-40.22
31882,787.04,768.87,769.73,765.80,772.86,108.40,-850.59,557.13,0.39,1.47,0.45,-42.41
31915,787.12,768.86,769.78,765.66,772.85,94.24,-844.24,565.92,1.50,1.44,1.01,-39.02
31949,787.18,768.88,769.72,765.57,772.84,96.19,-837.40,553.22,1.31,2.53,1.97,-39.76
31983,787.17,768.88,769.67,765.62,772.84,106.93,-847.66,557.62,1.56,1.75,-0.87,-41.64
32017,787.13,768.83,769.69,765.59,772.81,99.61,-855.47,551.27,2.05,0.31,0.73,-40.12
32051,787.14,768.92,769.77,765.67,772.88,100.59,-844.73,560.55,0.98,2.63,0.68,-40.12
32084,787.15,768.81,769.75,765.60,772.83,94.24,-841.31,550.78,1.98,0.46,-0.44,-38.67
32118,787.13,768.85,769.74,765.65,772.84,103.52,-848.63,568.36,-0.34,-0.08,-0.45,-40.15
32152,787.18,768.86,769.74,765.66,772.86,93.26,-845.70,558.11,0.87,0.04,1.69,-40.49
32186,787.14,768.89,769.82,765.72,772.89,103.52,-836.91,543.95,0.15,0.18,-1.06,-39.35
32220,787.18,768.83,769.77,765.64,772.85,104.49,-844.24,557.62,1.57,2.90,-0.21,-39.19
32254,787.16,768.91,769.75,765.73,772.89,90.33,-844.73,566.41,1.72,0.83,-0.09,-41.40
32288,787.29,768.80,769.74,765.59,772.85,110.35,-854.49,551.27,3.73,1.11,0.93,-39.10
32322,787.25,768.77,769.75,765.59,772.84,110.35,-846.19,543.95,-1.05,2.69,0.18,-38.70
32356,787.29,768.80,769.66,765.47,772.80,112.79,-852.05,558.11,0.73,-1.16,-0.86,-39.39
32390,787.29,768.80,769.69,765.54,772.83,100.59,-856.45,556.64,0.63,1.81,0.07,-39.80
32424,787.37,768.79,769.66,765.54,772.84,107.91,-852.54,566.89,-1.34,1.34,-0.05,-40.74
32459,787.37,768.74,769.67,765.48,772.81,112.30,-857.91,565.43,-1.13,1.71,-0.13,-39.27
32493,787.46,768.70,769.66,765.49,772.82,117.19,-847.17,552.25,0.40,0.37,-0.50,-39.49
32527,787.49,768.72,769.65,765.46,772.83,113.77,-836.91,554.69,0.47,1.68,-0.63,-39.65
32561,787.56,768.71,769.54,765.40,772.80,90.33,-834.96,546.87,0.60,2.09,-1.36,-41.55
32595,787.60,768.66,769.62,765.34,772.80,108.40,-845.70,571.29,2.17,2.56,-0.61,-38.48
32629,787.63,768.72,769.58,765.43,772.84,100.10,-844.24,563.96,1.05,0.28,2.86,-41.45
32663,787.69,768.67,769.55,765.31,772.80,105.96,-843.26,565.92,0.72,3.68,-1.19,-40.34
32697,787.77,768.66,769.51,765.28,772.80,100.10,-847.17,545.90,-0.05,0.23,1.68,-41.07
32732,787.84,768.63,769.59,765.31,772.84,111.82,-850.59,561.04,1.34,0.24,1.48,-39.44
32766,787.99,768.65,769.62,765.33,772.90,115.72,-836.43,594.73,-2.20,1.69,0.86,-39.71
32800,788.05,768.64,769.50,765.30,772.87,122.07,-834.47,553.71,-0.20,1.53,0.80,-42.37
32835,788.04,768.62,769.49,765.28,772.86,104.49,-871.58,568.36,-0.05,1.78,-1.17,-42.12
32870,788.11,768.61,769.45,765.30,772.87,99.61,-854.49,533.20,-1.50,1.15,1.07,-43.51
32904,788.18,768.65,769.53,765.21,772.89,110.84,-845.21,546.87,1.63,3.18,1.99,-40.73
32938,788.22,768.62,769.46,765.19,772.87,101.07,-848.63,550.29,-1.24,3.12,0.29,-42.29
32972,788.17,768.60,769.47,765.20,772.86,108.89,-852.54,555.18,0.89,3.66,1.58,-41.61
33006,788.15,768.69,769.52,765.21,772.89,105.96,-850.59,562.99,-0.69,2.67,-3.06,-41.30
33040,788.10,768.62,769.50,765.18,772.85,108.89,-855.47,561.04,1.53,-0.04,3.01,-40.56
33074,788.12,768.64,769.52,765.20,772.87,107.91,-837.40,565.43,0.24,0.35,-0.42,-40.41
33108,788.07,768.63,769.51,765.26,772.87,109.37,-854.00,553.71,0.04,2.13,-0.15,-41.41
33143,788.01,768.68,769.48,765.22,772.85,99.12,-843.26,560.55,0.27,2.72,-0.69,-41.80
33177,787.99,768.68,769.50,765.27,772.86,120.12,-859.86,562.01,1.44,2.52,-0.27,-42.01
33211,787.91,768.63,769.53,765.25,772.83,99.61,-832.52,558.59,0.82,0.74,-0.13,-40.36
33245,787.97,768.62,769.46,765.20,772.81,108.40,-844.73,556.15,-0.15,1.22,-0.66,-41.29
33279,787.95,768.59,769.53,765.22,772.82,98.63,-838.38,565.43,-1.65,1.52,-0.56,-39.68
33313,787.98,768.60,769.56,765.18,772.83,95.70,-851.07,548.83,-1.18,1.67,0.01,-38.50
33347,788.00,768.67,769.51,765.19,772.84,120.12,-851.56,568.36,0.08,0.44,2.43,-40.52
33381,787.88,768.67,769.49,765.24,772.82,98.14,-854.00,562.50,0.02,2.84,1.83,-41.25
33415,787.92,768.61,769.53,765.21,772.82,108.89,-848.14,562.01,1.05,-1.22,2.31,-39.56
33448,787.99,768.62,769.55,765.19,772.84,114.75,-832.03,551.76,0.66,0.53,-0.05,-39.10
33482,787.95,768.61,769.48,765.25,772.82,111.82,-861.33,556.64,-0.58,0.96,-2.92,-41.32
33516,787.97,768.57,769.52,765.24,772.82,126.95,-851.07,546.39,0.92,3.24,-1.05,-40.17
33549,787.95,768.58,769.50,765.22,772.81,109.86,-854.00,561.04,0.85,-0.51,0.31,-40.23
33583,788.05,768.69,769.47,765.27,772.87,113.77,-852.54,566.41,3.08,0.65,0.26,-42.94
33617,788.07,768.62,769.50,765.18,772.84,102.05,-842.77,551.76,0.60,0.89,0.76,-40.32
33651,788.05,768.69,769.52,765.18,772.86,109.86,-856.93,558.11,0.81,-1.91,1.43,-40.36
33685,788.15,768.67,769.49,765.24,772.89,110.84,-849.61,559.57,0.44,2.29,-1.63,-42.19
33718,788.10,768.62,769.45,765.25,772.86,107.42,-853.52,548.34,1.24,1.30,2.15,-42.96
33752,788.06,768.56,769.41,765.21,772.81,114.26,-848.14,551.27,-0.34,3.42,-0.73,-42.73
33788,788.10,768.62,769.50,765.17,772.85,120.12,-846.19,555.18,-0.14,1.27,-0.44,-40.39
33821,788.13,768.57,769.43,765.15,772.82,114.26,-854.49,546.39,0.92,0.58,-2.29,-41.45
33856,788.10,768.61,769.45,765.15,772.83,102.05,-852.05,553.22,1.63,1.15,0.48,-41.24
33890,788.11,768.66,769.44,765.14,772.84,107.91,-865.23,564.94,-0.76,0.85,-0.90,-41.68
33924,788.00,768.66,769.46,765.14,772.81,106.93,-852.05,560.06,1.24,2.05,1.36,-41.00
33958,788.02,768.65,769.47,765.20,772.83,117.19,-858.89,559.57,0.33,0.11,0.04,-41.55
33992,788.07,768.71,769.52,765.28,772.90,109.86,-831.54,563.48,0.49,1.21,1.72,-42.06
34026,788.00,768.76,769.47,765.26,772.87,98.14,-835.45,550.29,0.08,2.49,1.28,-43.29
34060,787.92,768.68,769.48,765.22,772.82,111.82,-842.29,560.55,-0.34,0.64,1.86,-41.67
34094,788.05,768.64,769.52,765.25,772.86,104.49,-831.05,549.80,0.81,0.75,0.82,-40.99
34129,788.05,768.71,769.48,765.27,772.88,107.42,-834.96,549.32,-0.90,-1.17,-0.09,-42.87
34163,788.09,768.64,769.48,765.32,772.88,114.26,-842.29,554.20,0.18,1.79,-0.79,-43.43
34197,788.03,768.72,769.48,765.31,772.88,110.35,-846.19,548.83,-0.43,1.37,1.92,-43.57
34231,787.98,768.75,769.47,765.20,772.85,97.66,-851.07,553.71,0.37,2.33,0.56,-42.26
34265,787.96,768.75,769.56,765.28,772.89,115.72,-837.40,566.89,0.51,1.67,-1.37,-40.96
34299,787.96,768.72,769.51,765.32,772.88,101.07,-845.70,556.64,-0.31,4.71,1.92,-42.74
34333,787.87,768.77,769.51,765.37,772.88,108.89,-849.12,543.46,0.76,0.66,0.83,-43.61
34367,787.87,768.68,769.48,765.28,772.83,102.05,-857.91,552.73,0.31,2.70,0.15,-42.21
34401,787.82,768.74,769.56,765.35,772.87,113.28,-844.24,549.32,0.31,1.59,2.99,-41.68
34436,787.80,768.78,769.62,765.37,772.89,100.10,-846.19,545.90,1.76,2.60,1.63,-40.60
34470,787.68,768.82,769.61,765.47,772.90,104.00,-840.82,557.13,1.76,0.69,1.02,-42.25
34504,787.54,768.85,769.59,765.55,772.88,101.56,-855.47,558.59,1.51,0.11,0.71,-43.56
34538,787.50,768.84,769.65,765.53,772.88,106.93,-846.68,559.08,0.60,1.18,0.64,-41.80
34572,787.53,768.88,769.63,765.58,772.91,103.03,-850.10,551.27,1.02,1.94,1.48,-43.27
34606,787.48,768.90,769.65,765.54,772.89,109.86,-848.63,552.25,1.79,-0.11,0.84,-42.30
34640,787.44,768.86,769.61,765.56,772.87,116.70,-849.61,559.08,-0.43,-0.30,1.02,-43.04
34674,787.46,768.78,769.62,765.51,772.84,95.21,-836.91,548.34,-1.34,-1.24,1.52,-41.45
34709,787.43,768.78,769.61,765.49,772.83,105.47,-847.17,547.85,0.08,2.95,0.79,-41.38
34744,787.48,768.76,769.57,765.51,772.83,108.40,-854.00,556.64,0.95,2.44,1.25,-42.67
34778,787.53,768.84,769.61,765.48,772.87,99.12,-850.10,557.13,0.97,2.40,-1.14,-41.92
34813,787.49,768.83,769.60,765.53,772.86,106.93,-854.49,546.39,-0.53,1.95,-0.41,-42.72
34847,787.42,768.79,769.61,765.45,772.82,110.35,-843.75,560.55,-1.01,0.02,-0.44,-40.98
34881,787.37,768.79,769.65,765.44,772.81,113.77,-854.00,556.64,0.90,1.44,-0.34,-39.36
34915,787.29,768.87,769.63,765.52,772.83,109.37,-850.10,545.90,-1.26,1.77,2.90,-41.59
34949,787.28,768.85,769.67,765.54,772.83,107.91,-858.40,566.41,1.91,-0.40,0.55,-40.69
34983,787.28,768.83,769.60,765.49,772.80,108.40,-841.80,564.45,0.12,2.98,-1.13,-41.36
35017,787.27,768.86,769.62,765.45,772.80,103.52,-858.89,559.08,-0.44,0.89,-0.35,-40.51
35050,787.26,768.85,769.64,765.53,772.82,103.03,-837.40,554.20,-0.92,2.99,-1.73,-41.10
35084,787.33,768.87,769.60,765.47,772.82,108.40,-846.19,557.13,0.43,0.95,1.44,-41.69
35117,787.40,768.84,769.62,765.50,772.84,106.93,-846.19,543.46,0.20,2.41,0.22,-41.57
35151,787.43,768.78,769.61,765.47,772.83,121.09,-847.66,559.08,-0.70,0.17,-0.88,-41.00
35185,787.48,768.79,769.59,765.47,772.83,103.52,-854.00,555.18,1.21,2.37,0.13,-41.71
35219,787.54,768.84,769.53,765.42,772.83,113.28,-840.82,559.57,1.51,1.09,0.06,-43.28
35253,787.57,768.73,769.52,765.38,772.80,114.26,-841.80,554.69,1.83,0.33,-0.75,-42.07
35286,787.51,768.78,769.56,765.38,772.81,104.98,-856.45,553.71,-3.08,0.34,1.26,-41.10
35320,787.57,768.76,769.54,765.29,772.79,112.79,-841.80,554.20,-0.52,2.61,-0.85,-40.60
35354,787.56,768.76,769.54,765.35,772.80,120.61,-846.68,541.02,0.53,0.27,-1.27,-41.30
35388,787.48,768.80,769.52,765.36,772.79,105.96,-850.59,560.06,0.65,0.47,-1.03,-41.90
35422,787.44,768.77,769.54,765.30,772.76,110.35,-843.75,545.90,0.22,2.08,1.10,-40.35
35456,787.40,768.76,769.54,765.27,772.74,100.10,-841.31,565.43,2.67,1.28,1.46,-39.73
35490,787.47,768.66,769.56,765.33,772.76,103.03,-844.24,553.71,0.56,2.82,1.08,-39.43
35524,787.47,768.75,769.61,765.24,772.77,97.66,-844.24,562.99,0.87,1.68,0.86,-37.64
35558,787.51,768.74,769.52,765.33,772.78,104.49,-848.14,556.15,0.79,1.77,2.02,-41.10
35592,787.52,768.74,769.50,765.27,772.76,106.93,-837.89,552.73,1.72,0.08,-2.31,-40.83
35626,787.60,768.67,769.53,765.20,772.75,96.19,-852.05,562.01,-0.72,1.80,0.86,-38.75
35661,787.60,768.61,769.49,765.25,772.74,110.84,-844.73,550.29,0.07,-0.61,-2.66,-39.98
35696,787.65,768.71,769.47,765.21,772.76,117.19,-840.82,560.55,-0.09,1.16,-1.35,-40.95
35730,787.73,768.63,769.51,765.27,772.78,102.05,-857.91,544.92,1.21,2.34,1.27,-40.31
35764,787.68,768.63,769.51,765.28,772.78,109.86,-849.12,558.59,2.67,1.78,1.73,-40.54
35799,787.74,768.70,769.48,765.27,772.80,99.61,-836.91,553.22,1.39,2.65,1.52,-41.89
35833,787.81,768.61,769.47,765.26,772.79,114.26,-842.77,562.01,0.63,2.26,0.69,-41.48
35867,787.75,768.65,769.44,765.20,772.76,105.47,-844.24,543.95,1.12,3.20,0.84,-41.33
35901,787.82,768.65,769.50,765.25,772.80,109.37,-840.33,551.27,2.72,0.50,1.67,-40.85
35935,787.81,768.69,769.57,765.27,772.83,110.35,-849.12,556.15,3.29,0.29,-1.29,-39.61
35969,787.93,768.62,769.52,765.15,772.80,119.63,-853.03,573.73,-1.30,0.08,0.47,-38.93
36003,787.94,768.64,769.49,765.17,772.81,106.93,-853.52,562.99,2.41,2.67,1.50,-40.37
36086,787.91,768.60,769.58,765.19,772.82,104.98,-854.98,555.18,-0.33,1.69,-0.62,-37.89
36122,787.88,768.68,769.46,765.20,772.81,116.70,-844.24,560.55,0.75,0.94,3.37,-41.63
36180,787.90,768.70,769.48,765.25,772.83,111.82,-836.91,552.73,1.69,2.41,0.80,-42.01
36236,787.80,768.67,769.51,765.24,772.81,100.59,-842.29,567.38,1.84,0.57,-1.08,-40.65
36279,787.82,768.72,769.53,765.28,772.84,105.96,-843.75,562.01,1.65,1.22,0.11,-41.07
36313,787.78,768.68,769.50,765.14,772.78,106.93,-831.54,543.95,1.25,-0.06,0.95,-39.41
36347,787.84,768.65,769.50,765.17,772.79,104.49,-846.19,545.41,0.66,0.08,3.30,-39.67
36381,787.86,768.66,769.46,765.24,772.80,105.96,-840.33,542.97,-0.73,2.42,2.15,-41.92
36415,787.88,768.69,769.49,765.23,772.82,107.42,-843.26,559.57,1.16,1.96,-2.24,-41.44
36449,787.82,768.73,769.50,765.24,772.82,120.61,-836.91,562.50,0.35,2.73,2.81,-41.14
36484,787.83,768.69,769.52,765.19,772.81,109.86,-843.26,558.11,0.53,1.21,-0.09,-39.72
36518,787.87,768.68,769.50,765.20,772.81,104.98,-832.52,563.48,0.07,3.20,-0.05,-40.52
36552,787.84,768.66,769.45,765.14,772.77,103.52,-854.49,548.83,0.19,0.80,0.55,-40.63
36586,787.91,768.72,769.48,765.20,772.83,114.75,-836.43,556.64,-0.66,3.65,3.50,-41.52
36620,787.89,768.70,769.51,765.23,772.83,116.21,-852.54,563.48,-0.37,1.11,0.72,-41.04
36654,787.91,768.73,769.48,765.28,772.85,94.73,-849.12,556.15,0.07,1.39,-2.54,-42.91
36688,787.91,768.62,769.54,765.24,772.83,113.77,-858.40,548.83,0.50,2.09,1.67,-39.89
36722,787.92,768.70,769.48,765.13,772.81,98.63,-833.98,566.89,-1.66,0.63,0.63,-40.52
36756,787.90,768.67,769.44,765.12,772.78,108.89,-838.38,540.04,-0.31,2.11,-0.44,-40.90
36789,788.03,768.76,769.48,765.10,772.84,107.42,-852.54,553.71,3.04,1.74,-0.63,-40.68
36823,788.04,768.67,769.45,765.17,772.83,109.86,-848.63,548.34,1.89,-0.26,1.95,-41.96
36856,788.02,768.70,769.47,765.11,772.82,103.03,-849.12,562.01,0.19,-1.69,-0.06,-40.67
36890,788.00,768.65,769.44,765.14,772.81,109.86,-846.19,546.39,0.80,0.30,-2.34,-41.21
36924,788.10,768.64,769.49,765.12,772.84,113.77,-827.64,560.06,0.99,2.50,-1.60,-40.14
36958,788.09,768.58,769.43,765.13,772.81,92.29,-837.89,550.78,0.46,2.72,-2.11,-41.34
36992,788.04,768.64,769.48,765.11,772.82,106.45,-848.14,559.57,0.51,2.76,1.53,-39.86
37028,788.12,768.59,769.44,765.17,772.83,106.93,-839.36,562.50,0.03,1.18,-3.25,-41.76
37062,788.16,768.58,769.49,765.13,772.84,111.82,-841.80,555.18,-0.92,1.64,0.59,-39.95
37096,788.12,768.63,769.40,765.14,772.82,115.23,-843.75,553.71,-0.18,0.70,1.40,-42.66
37130,788.21,768.68,769.42,765.15,772.87,97.66,-846.68,569.34,0.34,2.56,1.74,-42.87
37164,788.22,768.65,769.44,765.10,772.85,104.00,-845.21,557.62,-0.63,-0.43,1.79,-41.64
37198,788.19,768.63,769.43,765.08,772.83,116.21,-836.91,563.48,0.59,2.35,-1.90,-41.30
37232,788.17,768.68,769.48,765.11,772.86,118.16,-848.63,552.25,-0.66,1.64,1.85,-40.71
37266,788.15,768.67,769.45,765.11,772.85,106.93,-845.21,549.32,1.49,-1.05,-0.20,-41.28
37301,788.18,768.66,769.53,765.20,772.89,111.82,-841.80,557.13,-2.54,0.31,1.48,-40.62
37335,788.19,768.59,769.42,765.25,772.86,120.61,-848.14,542.97,0.76,1.65,-2.92,-43.82
37369,788.16,768.65,769.53,765.17,772.88,101.56,-857.91,556.64,0.50,1.10,1.29,-40.21
37403,788.20,768.69,769.45,765.15,772.87,114.26,-844.24,558.59,-1.31,2.13,1.96,-42.28
37437,788.20,768.69,769.44,765.20,772.88,110.84,-846.19,553.22,2.63,1.85,-1.72,-43.36
37471,788.14,768.63,769.44,765.21,772.86,97.17,-843.26,549.80,0.53,2.62,-0.57,-42.84
37505,788.13,768.70,769.50,765.17,772.87,103.03,-855.47,563.96,1.40,1.47,1.03,-41.21
37540,788.11,768.67,769.47,765.18,772.86,111.33,-849.61,563.48,1.56,0.36,0.73,-41.61
37574,788.14,768.77,769.45,765.19,772.89,122.56,-853.52,540.53,0.68,2.50,1.17,-43.28
37608,788.22,768.74,769.48,765.26,772.92,94.73,-854.49,554.20,2.33,2.18,-0.56,-43.45
37642,788.29,768.74,769.47,765.16,772.92,115.72,-852.54,552.73,-0.35,1.93,3.34,-42.62
37676,788.37,768.68,769.51,765.14,772.92,121.58,-837.89,561.52,-0.95,4.63,0.31,-41.15
37710,788.44,768.60,769.52,765.13,772.92,106.45,-828.61,569.34,-0.21,1.98,-0.84,-40.38
37745,788.51,768.66,769.43,765.16,772.94,106.45,-848.14,565.92,0.92,1.92,-2.14,-43.78
37779,788.68,768.62,769.39,765.14,772.96,121.09,-849.12,558.11,-0.04,0.40,1.79,-44.75
37813,788.70,768.63,769.45,765.05,772.96,111.82,-852.05,560.55,1.36,0.24,0.50,-41.98
37847,788.68,768.76,769.50,765.06,773.00,112.30,-861.82,555.66,0.50,3.14,1.14,-41.94
37881,788.69,768.76,769.50,765.17,773.03,104.49,-842.29,552.73,1.57,2.33,1.49,-43.40
37915,788.81,768.75,769.46,765.19,773.05,112.79,-853.52,554.20,0.70,2.73,3.50,-45.11
37951,788.97,768.72,769.45,765.09,773.06,96.68,-846.68,557.62,0.81,0.47,3.02,-44.25
37986,788.98,768.76,769.43,765.11,773.07,103.03,-838.87,553.22,0.27,1.55,-0.11,-45.54
38020,789.01,768.74,769.39,765.12,773.07,101.56,-851.56,567.87,0.46,0.40,-0.18,-46.51
38054,789.06,768.67,769.41,765.07,773.05,93.75,-827.64,560.55,0.62,2.63,0.94,-44.84
38088,788.98,768.72,769.39,765.08,773.05,107.42,-840.33,562.01,-0.81,2.43,0.11,-45.60
38122,788.79,768.78,769.46,765.11,773.04,115.23,-838.38,553.22,-0.50,3.00,0.51,-44.22
38156,788.60,768.75,769.44,765.14,772.98,96.19,-855.96,550.29,0.07,-0.89,-1.00,-44.05
38191,788.28,768.72,769.42,765.17,772.90,113.28,-837.89,555.66,1.17,-0.60,-2.11,-43.84
38225,788.12,768.77,769.50,765.17,772.89,97.17,-848.63,552.73,1.74,1.31,-1.21,-41.77
38259,788.12,768.83,769.43,765.15,772.88,100.10,-836.91,560.55,-0.21,1.08,0.26,-43.62
38293,788.24,768.85,769.50,765.18,772.94,98.14,-844.73,556.15,2.82,2.74,0.81,-42.95
38327,788.27,768.83,769.53,765.20,772.96,104.49,-845.21,564.45,0.69,3.10,0.76,-42.30
38361,788.02,768.84,769.49,765.25,772.90,108.89,-840.82,555.18,-0.29,0.85,-0.02,-43.45
38394,787.54,768.84,769.50,765.21,772.77,105.47,-854.49,548.34,0.91,-0.11,2.69,-40.71
38428,787.33,768.81,769.49,765.15,772.69,112.79,-843.26,558.11,-0.92,1.03,-0.12,-39.27
38462,787.20,768.73,769.55,765.13,772.65,113.77,-847.66,560.06,-1.44,1.55,-0.79,-36.32
38495,787.31,768.73,769.52,765.19,772.69,102.54,-837.89,564.45,2.63,0.72,-1.40,-38.31
38529,787.46,768.85,769.53,765.27,772.78,100.10,-841.80,550.78,1.04,1.07,1.49,-40.78
38563,787.47,768.77,769.52,765.32,772.77,114.75,-840.33,557.62,-0.06,3.23,2.49,-41.23
38597,787.26,768.85,769.54,765.30,772.74,99.61,-854.49,545.90,-0.66,1.97,0.56,-40.36
38631,787.04,768.82,769.60,765.31,772.69,117.19,-847.66,563.48,0.91,0.22,0.69,-37.92
38665,787.00,768.90,769.62,765.34,772.72,120.61,-848.14,552.25,1.49,1.82,0.45,-38.42
38699,786.94,768.94,769.58,765.44,772.73,110.35,-851.07,549.80,1.01,-0.60,1.46,-41.01
38732,786.68,768.90,769.63,765.50,772.68,123.54,-848.14,538.09,0.49,2.11,2.24,-39.36
38766,786.38,768.98,769.68,765.64,772.67,110.35,-854.49,555.18,2.38,2.74,0.60,-39.72
38800,786.15,769.01,769.74,765.75,772.66,104.49,-851.07,548.34,-0.43,3.15,2.28,-39.43
38836,786.22,769.11,769.79,765.80,772.73,108.89,-838.87,567.87,1.98,2.48,0.13,-39.86
38870,786.25,769.04,769.85,765.94,772.77,100.59,-851.07,567.38,-1.56,0.71,-0.86,-40.13
38904,786.26,769.05,769.89,766.00,772.80,110.35,-841.31,554.20,-1.31,0.05,2.90,-40.20
38939,786.25,769.06,769.90,765.99,772.80,113.28,-837.89,566.89,2.40,0.47,-0.24,-39.65
38973,786.18,769.01,769.87,765.90,772.74,102.05,-841.31,559.08,0.88,2.89,0.80,-38.42
39007,786.18,769.08,769.89,765.92,772.77,110.35,-838.87,570.80,0.10,2.18,-0.46,-38.87
39041,786.09,769.19,769.95,765.96,772.80,106.45,-844.24,552.25,0.57,1.42,-1.39,-38.59
39075,785.90,769.20,770.00,765.96,772.76,110.35,-851.07,552.73,-2.69,1.50,-1.90,-36.74
39109,785.84,769.21,769.89,765.97,772.73,106.93,-845.70,560.06,1.06,2.68,-0.36,-39.52
39143,785.83,769.21,770.01,766.04,772.78,95.21,-850.10,551.27,0.61,0.10,1.56,-37.41
39177,785.84,769.15,770.01,766.04,772.76,110.84,-844.24,551.27,1.38,0.13,1.85,-36.89
39212,785.95,769.13,770.00,766.02,772.78,95.21,-833.01,548.83,-0.47,0.11,-1.95,-37.17
39246,786.07,769.19,769.98,766.02,772.82,122.07,-832.52,555.18,0.96,3.74,0.94,-38.58
39280,786.29,769.18,769.93,766.07,772.87,111.82,-847.17,558.59,0.78,-0.01,-1.50,-41.24
39314,786.34,769.15,769.96,765.99,772.86,110.84,-845.70,554.69,-1.24,1.47,2.22,-39.17
39348,786.53,769.11,769.87,765.91,772.86,105.47,-845.70,562.01,2.28,1.99,1.68,-40.51
39382,786.56,769.07,769.89,765.88,772.85,100.10,-843.26,557.13,0.71,1.57,2.81,-39.46
39416,786.50,769.09,769.87,765.82,772.82,95.21,-845.70,550.29,0.72,3.18,2.43,-38.96
39450,786.45,769.03,769.82,765.85,772.79,108.40,-831.54,558.11,-0.06,0.45,-3.85,-39.98
39485,786.30,769.12,769.85,765.83,772.78,126.46,-836.43,556.15,-0.23,1.11,-1.21,-39.19
39519,786.29,769.15,769.90,765.93,772.82,114.26,-832.52,571.29,0.32,-0.26,-1.66,-39.62
39553,786.33,769.10,769.91,766.00,772.83,104.98,-845.21,556.15,0.57,2.63,-0.91,-40.17
39587,786.25,769.10,769.96,766.11,772.86,118.65,-851.56,558.11,-2.22,2.86,1.80,-40.25
39621,786.38,769.20,769.96,766.01,772.89,102.05,-845.70,559.57,-0.90,2.35,0.27,-39.90
39655,786.30,769.14,769.97,766.11,772.88,109.86,-857.42,555.66,2.58,1.68,-0.90,-40.60
39689,786.32,769.17,769.97,766.09,772.89,106.93,-847.66,560.06,0.06,-1.70,-0.63,-40.48
39723,786.32,769.22,770.00,766.09,772.91,103.52,-851.07,569.82,-0.05,2.03,2.31,-40.11
39759,786.23,769.17,770.00,766.20,772.90,120.12,-847.17,553.22,1.07,-0.06,0.98,-41.05
39793,786.01,769.23,770.04,766.16,772.86,108.89,-838.38,547.85,-2.05,0.53,1.13,-39.31
39828,785.85,769.23,770.01,766.18,772.82,101.56,-850.10,560.06,1.70,1.89,0.27,-39.65
39862,785.75,769.28,770.03,766.19,772.81,108.40,-850.10,554.69,1.40,2.29,-0.69,-39.48
39896,785.69,769.26,770.08,766.15,772.80,112.79,-846.68,546.39,2.25,0.00,-2.29,-37.28
39930,785.64,769.29,770.03,766.16,772.78,107.42,-845.70,550.78,-0.74,-0.07,2.21,-38.64
39964,785.72,769.24,770.07,766.19,772.81,106.45,-854.00,566.89,0.05,2.50,0.49,-37.91
39997,785.78,769.20,770.04,766.28,772.83,91.80,-834.47,559.57,0.38,1.63,0.11,-39.98
40031,785.94,769.30,770.05,766.28,772.90,100.10,-854.00,559.57,0.37,1.72,-1.21,-41.15
40064,786.14,769.29,770.05,766.19,772.92,109.37,-847.66,556.64,1.34,1.97,-0.46,-40.39
40098,786.11,769.24,770.02,766.23,772.90,109.86,-841.31,553.22,-1.21,2.80,-0.52,-41.34
40132,785.96,769.17,769.98,766.18,772.83,94.24,-830.57,557.62,-1.44,1.28,3.11,-40.48
40166,785.96,769.24,769.96,766.11,772.82,122.07,-860.84,559.08,0.11,0.56,-0.79,-40.24
40200,785.92,769.19,769.96,766.14,772.80,103.03,-836.91,552.73,0.54,0.85,-2.04,-40.17
40234,785.69,769.22,769.99,766.13,772.76,105.47,-858.89,562.50,0.46,2.03,1.18,-38.93
40267,785.73,769.15,769.97,766.11,772.74,111.33,-846.68,572.75,-0.47,0.17,0.70,-38.57
40301,785.56,769.25,770.09,766.23,772.78,100.10,-860.84,564.94,0.02,1.39,2.27,-37.69
40335,785.32,769.34,770.06,766.25,772.74,114.26,-843.26,557.13,0.62,1.19,2.18,-38.75
40369,785.28,769.26,770.14,766.29,772.74,96.19,-844.24,547.85,0.70,0.26,-2.47,-36.50
40403,785.24,769.24,770.10,766.24,772.70,104.98,-854.00,566.41,1.02,1.64,2.08,-36.40
40437,785.36,769.27,770.06,766.28,772.74,98.63,-843.75,569.34,0.31,0.25,-1.00,-38.60
40471,785.41,769.14,770.10,766.35,772.75,106.93,-841.31,568.85,2.21,1.97,-2.12,-37.80
40506,785.43,769.16,770.05,766.26,772.72,106.93,-848.14,570.80,1.18,3.72,-1.13,-37.76
40540,785.42,769.20,770.06,766.19,772.72,110.84,-836.91,555.18,0.94,1.89,-0.18,-36.89
40574,785.50,769.14,770.09,766.16,772.73,108.40,-846.19,563.96,-0.40,-0.35,-1.24,-35.57
40608,785.45,769.07,770.00,766.09,772.65,101.56,-856.45,562.50,-0.07,-0.32,0.08,-35.97
40642,785.61,769.20,769.99,766.08,772.72,116.21,-857.91,551.27,1.42,1.63,-0.04,-37.55
40676,785.46,769.19,769.97,766.02,772.66,103.03,-853.52,545.90,-0.58,0.25,1.22,-36.88
40712,785.45,769.19,769.97,766.09,772.68,106.93,-849.61,559.57,0.47,2.34,1.09,-37.83
40746,785.27,769.19,770.11,766.15,772.68,101.56,-857.42,548.83,0.91,2.92,1.58,-34.68
40780,785.14,769.21,770.13,766.20,772.67,114.26,-854.00,557.62,-0.50,0.16,0.68,-34.47
40814,784.96,769.26,770.10,766.22,772.64,113.77,-847.17,560.55,-0.88,1.66,0.50,-35.36
40849,785.10,769.32,770.14,766.28,772.71,108.40,-836.91,552.25,-0.44,0.96,0.62,-36.17
40883,785.15,769.32,770.22,766.31,772.75,106.93,-859.37,557.62,0.67,-0.08,-1.63,-34.74
40917,785.07,769.36,770.16,766.34,772.73,111.33,-842.77,552.25,0.53,1.69,-1.20,-36.66
40951,785.04,769.25,770.06,766.34,772.67,102.05,-835.94,554.69,1.18,2.50,-1.05,-38.22
40985,785.01,769.27,770.13,766.32,772.68,115.72,-849.12,561.52,1.25,2.79,3.34,-36.25
41019,785.07,769.28,770.04,766.32,772.68,107.91,-847.66,559.57,0.87,0.47,0.95,-38.84
41053,785.20,769.23,770.10,766.20,772.68,101.07,-864.26,555.18,1.18,-1.83,-1.90,-35.40
41088,785.16,769.17,769.98,766.20,772.63,93.75,-839.84,555.66,1.17,2.30,-0.93,-37.98
41122,785.17,769.19,770.09,766.20,772.66,97.17,-838.38,563.48,1.29,-1.84,2.32,-35.52
41156,785.13,769.23,770.11,766.21,772.67,111.82,-842.77,561.04,-0.31,1.25,-1.17,-35.17
41190,785.07,769.18,770.12,766.24,772.65,108.40,-849.61,563.96,-0.47,-1.08,0.31,-34.84
41224,785.02,769.32,770.16,766.30,772.70,114.75,-843.75,549.80,0.21,0.96,-0.56,-35.69
41258,784.91,769.30,770.12,766.30,772.66,107.91,-853.03,556.15,-2.54,2.37,0.56,-36.11
41293,785.02,769.28,770.13,766.31,772.69,113.28,-855.96,552.73,-0.94,1.66,-0.19,-36.28
41327,785.12,769.24,770.09,766.35,772.70,115.72,-853.03,559.57,-0.18,0.33,2.53,-37.96
41361,785.06,769.26,770.14,766.34,772.70,104.00,-846.68,572.27,1.44,1.53,1.47,-36.49
41395,785.05,769.27,770.13,766.31,772.69,103.52,-859.37,554.20,0.82,0.23,-0.65,-36.15
41429,785.08,769.28,770.06,766.25,772.67,95.70,-842.29,559.08,-0.50,1.39,1.45,-37.28
41463,785.00,769.24,770.13,766.24,772.65,107.42,-844.73,557.13,0.46,-0.43,-0.12,-34.77
41497,784.98,769.26,770.11,766.26,772.65,96.68,-845.70,562.01,0.66,-0.76,1.66,-35.58
41532,784.79,769.24,770.09,766.27,772.60,103.52,-850.10,561.52,-0.79,2.29,-0.54,-35.61
41565,784.70,769.24,770.11,766.33,772.60,106.45,-835.94,549.80,2.58,2.76,-1.37,-35.60
41599,784.68,769.23,770.20,766.27,772.59,112.79,-829.10,569.34,-0.08,0.82,0.56,-32.37
41632,784.76,769.20,770.16,766.29,772.60,99.61,-843.75,565.43,-0.21,0.34,1.03,-33.66
41668,784.78,769.35,770.14,766.30,772.64,107.91,-838.87,553.22,0.17,2.46,1.21,-35.61
41701,784.84,769.29,770.15,766.34,772.65,105.47,-842.29,562.50,-0.92,0.43,-1.12,-35.69
41735,784.82,769.39,770.24,766.41,772.72,104.98,-836.91,545.41,-0.31,0.36,0.02,-35.15
41769,784.74,769.34,770.17,766.38,772.66,106.45,-849.61,547.36,0.33,1.11,-1.05,-35.81
41803,784.73,769.44,770.16,766.43,772.69,110.84,-842.77,568.85,0.49,0.90,0.24,-37.45
41837,784.63,769.34,770.20,766.50,772.67,105.96,-846.19,547.36,-1.26,2.10,0.68,-36.52
41871,784.65,769.38,770.19,766.47,772.67,111.82,-850.59,543.95,1.31,2.38,1.59,-36.74
41904,784.64,769.31,770.21,766.46,772.66,116.21,-852.54,564.94,-1.24,-0.05,-0.49,-35.44
41938,784.66,769.37,770.17,766.54,772.69,97.17,-849.12,556.64,0.72,3.08,0.76,-38.04
41972,784.55,769.33,770.20,766.53,772.65,107.91,-842.29,566.89,-0.67,-0.46,1.15,-36.61
42006,784.52,769.31,770.20,766.51,772.64,103.52,-842.77,550.29,0.94,-0.39,-0.03,-36.06
42040,784.56,769.36,770.24,766.46,772.65,99.12,-833.98,550.78,0.33,-2.01,2.67,-34.73
42074,784.64,769.37,770.24,766.48,772.68,107.42,-842.29,547.85,0.53,2.19,-0.28,-35.35
42108,784.74,769.34,770.23,766.47,772.70,111.82,-840.82,560.55,-0.15,0.86,0.32,-35.56
42143,784.79,769.33,770.22,766.43,772.69,107.42,-840.33,559.57,0.89,-3.10,1.56,-35.42
42177,784.79,769.26,770.22,766.38,772.66,105.96,-832.03,551.76,0.63,0.62,1.99,-34.24
42211,784.83,769.26,770.11,766.45,772.66,116.21,-845.70,555.66,0.20,3.66,-0.92,-38.15
42245,784.88,769.29,770.15,766.38,772.68,102.54,-842.29,552.25,-1.07,1.14,-2.02,-36.18
42279,784.92,769.30,770.19,766.33,772.69,107.91,-845.70,550.78,1.47,1.42,0.27,-34.78
42313,784.87,769.29,770.17,766.31,772.66,105.47,-850.10,558.59,0.44,-0.10,2.92,-34.70
42347,784.88,769.33,770.15,766.29,772.66,98.63,-846.19,559.08,2.23,-0.32,1.61,-35.39
42381,784.86,769.28,770.16,766.31,772.65,108.89,-847.66,571.78,0.16,0.39,1.83,-34.86
42416,784.84,769.36,770.13,766.25,772.64,104.98,-840.33,550.78,0.73,1.63,-0.44,-35.30
42450,784.88,769.27,770.15,766.31,772.65,104.00,-851.07,564.94,-0.48,1.64,-1.01,-35.21
42484,785.02,769.26,770.18,766.37,772.71,117.68,-849.12,561.04,1.11,0.36,-0.25,-35.67
42518,785.05,769.32,770.14,766.38,772.72,109.86,-837.40,576.66,1.50,4.22,-0.05,-37.35
42552,785.11,769.28,770.13,766.29,772.70,101.07,-851.56,555.18,-2.27,1.06,0.78,-36.18
42586,785.20,769.23,770.13,766.31,772.72,112.79,-844.73,561.04,-1.79,0.50,0.12,-36.32
42622,785.11,769.29,770.15,766.26,772.70,112.79,-844.24,552.25,1.43,-0.42,1.27,-35.24
42656,785.16,769.24,770.11,766.26,772.69,93.75,-839.84,556.15,-0.62,2.68,-0.38,-36.26
42690,784.92,769.23,770.07,766.19,772.60,121.58,-845.70,548.83,1.04,0.77,-1.26,-35.27
42724,784.91,769.24,770.18,766.20,772.63,96.19,-845.21,553.22,-0.34,0.81,1.45,-32.79
42758,784.80,769.29,770.13,766.27,772.62,103.03,-845.70,556.64,-0.47,-0.13,0.08,-35.01
42792,784.71,769.23,770.08,766.21,772.56,108.89,-845.21,558.59,0.82,2.36,-0.63,-34.50
42827,784.61,769.31,770.16,766.26,772.59,101.07,-856.45,553.71,0.10,0.09,1.54,-33.47
42861,784.60,769.27,770.11,766.25,772.56,103.52,-846.19,551.27,-1.19,3.06,-2.50,-34.18
42895,784.62,769.22,770.00,766.33,772.54,101.56,-848.63,558.59,2.18,1.56,-0.66,-37.69
42929,784.64,769.26,770.14,766.32,772.59,105.96,-839.84,566.41,-1.07,-0.33,-1.00,-34.64
42963,784.68,769.28,770.06,766.28,772.57,107.91,-845.21,547.85,-1.10,-0.32,-2.92,-36.34
42997,784.84,769.26,770.00,766.27,772.59,106.45,-848.63,556.15,0.43,1.09,0.95,-38.07
43031,784.97,769.23,769.92,766.26,772.59,98.63,-846.19,558.59,0.56,0.45,-0.42,-40.25
43065,785.13,769.21,770.00,766.18,772.63,110.84,-841.80,556.15,0.87,1.79,0.33,-37.47
43100,785.41,769.15,769.93,766.14,772.66,117.19,-834.47,551.76,-0.28,2.17,-0.12,-38.93
43134,785.47,769.17,769.95,766.08,772.67,102.54,-835.94,547.85,0.25,1.96,-1.17,-37.91
43167,785.48,769.19,769.95,766.11,772.68,104.00,-839.36,537.60,1.98,-2.05,0.85,-38.64
43201,785.37,769.14,770.01,766.11,772.66,88.38,-852.05,556.15,0.98,0.52,1.77,-36.35
43234,785.37,769.13,770.05,766.11,772.67,114.26,-858.40,563.48,0.25,1.11,-0.34,-35.23
43268,785.47,769.23,770.03,766.14,772.72,99.61,-830.08,545.90,3.41,4.63,-2.26,-37.32
43302,785.61,769.26,770.09,766.22,772.79,105.47,-840.82,555.66,0.15,0.37,0.06,-37.74
43335,785.66,769.30,770.09,766.21,772.81,113.28,-839.84,562.01,0.98,1.12,-0.79,-38.10
43369,785.74,769.30,770.12,766.25,772.85,102.54,-843.75,567.38,0.58,0.61,3.32,-38.17
43403,785.90,769.34,770.14,766.23,772.90,100.59,-846.19,565.92,-0.78,2.56,-1.60,-38.24
43437,786.01,769.23,770.11,766.06,772.85,103.52,-851.07,553.22,0.36,0.31,0.66,-36.05
43471,786.10,769.29,770.08,766.12,772.90,107.42,-837.40,545.41,-0.69,-1.45,1.22,-38.50
43505,786.26,769.20,769.94,766.05,772.86,93.26,-835.45,540.04,1.31,0.29,-1.05,-40.59
43538,786.53,769.15,769.93,765.98,772.90,109.37,-847.66,570.80,0.15,1.45,0.12,-40.44
43574,786.77,769.08,769.87,765.91,772.91,103.03,-851.07,559.08,-1.35,0.81,2.77,-41.20
43608,787.14,769.07,769.83,765.80,772.96,114.75,-845.21,560.06,3.10,3.60,2.04,-41.67
43642,787.30,769.14,769.79,765.63,772.97,97.66,-856.45,548.34,-1.59,0.32,1.21,-41.32
43676,787.51,769.00,769.74,765.52,772.94,113.28,-833.50,550.78,1.24,0.59,-3.65,-40.58
43710,787.63,768.98,769.72,765.46,772.95,98.14,-840.82,555.18,1.75,3.08,-0.21,-40.56
43744,787.96,768.92,769.73,765.41,773.01,111.33,-854.00,553.71,0.22,-1.02,0.93,-40.08
43778,788.06,768.95,769.59,765.34,772.99,106.93,-837.40,559.08,-1.27,2.37,0.91,-43.20
43813,788.42,768.93,769.59,765.28,773.06,102.54,-852.05,573.73,-0.78,1.63,-1.06,-43.33
43847,788.56,768.97,769.50,765.25,773.07,109.37,-860.84,556.15,0.59,0.07,0.08,-45.95
43881,788.73,768.84,769.43,765.28,773.07,108.40,-843.75,567.87,2.35,1.59,-1.18,-47.62
43915,788.75,768.80,769.49,765.31,773.09,105.96,-835.45,558.59,1.85,-0.28,1.92,-46.30
43949,788.81,768.76,769.48,765.19,773.06,106.93,-841.31,555.66,0.59,2.79,1.56,-44.67
43983,789.03,768.78,769.47,765.18,773.12,95.21,-838.38,551.76,0.79,0.76,0.19,-45.61
44017,789.11,768.74,769.48,765.05,773.10,110.35,-853.52,557.62,3.99,1.31,-0.11,-43.46
44051,789.29,768.71,769.54,765.11,773.16,105.96,-853.03,548.34,0.02,1.48,0.34,-43.30
44086,789.40,768.69,769.44,765.14,773.17,101.07,-847.66,552.25,-0.03,0.35,2.39,-46.55
44120,789.46,768.67,769.46,764.96,773.14,103.52,-841.80,562.50,-0.42,1.01,1.92,-43.49
44154,789.58,768.71,769.37,764.93,773.15,108.40,-848.63,558.59,0.26,2.82,-0.17,-46.01
44188,789.75,768.74,769.41,764.95,773.21,111.82,-842.29,563.96,0.65,-0.57,1.63,-45.99
44222,789.80,768.66,769.34,764.96,773.19,108.89,-846.68,560.06,-0.46,4.40,2.03,-47.56
44256,789.83,768.63,769.42,764.93,773.20,121.09,-849.61,553.22,1.71,-0.38,-1.79,-44.89
44290,789.89,768.63,769.36,764.93,773.20,103.03,-840.33,560.55,0.81,-0.18,2.60,-46.60
44324,789.83,768.66,769.42,765.02,773.23,104.49,-840.82,560.55,0.03,3.02,2.85,-46.27
44359,789.70,768.70,769.43,765.02,773.21,106.45,-852.05,552.73,0.04,3.11,0.56,-46.03
44393,789.64,768.64,769.46,765.06,773.20,113.28,-855.47,562.50,1.08,1.73,-1.64,-45.13
44427,789.58,768.72,769.44,765.09,773.21,107.42,-844.73,565.43,0.77,0.77,0.50,-46.66
44461,789.47,768.76,769.44,765.04,773.18,103.52,-851.56,548.83,-0.56,-0.11,1.20,-45.95
44495,789.43,768.80,769.48,765.17,773.22,122.56,-848.63,559.08,-0.08,2.22,1.65,-46.84
44531,789.45,768.75,769.47,765.25,773.23,108.89,-846.68,544.92,1.19,4.73,2.56,-48.20
44565,789.42,768.80,769.56,765.25,773.26,113.77,-835.45,568.36,0.74,0.64,0.10,-46.07
44599,789.44,768.79,769.53,765.23,773.25,107.42,-849.12,547.36,-1.85,1.53,0.31,-46.59
44633,789.46,768.80,769.52,765.23,773.25,110.84,-851.07,548.34,-1.00,0.39,1.66,-46.88
44667,789.40,768.82,769.59,765.28,773.27,113.28,-850.59,564.45,0.01,3.37,-0.61,-45.97
44701,789.40,768.71,769.51,765.27,773.22,118.16,-832.03,563.48,1.04,1.21,-0.73,-46.91
44736,789.42,768.81,769.52,765.21,773.24,117.19,-854.00,547.85,0.27,0.62,2.55,-46.59
44769,789.25,768.75,769.54,765.27,773.20,103.03,-851.56,563.96,-0.56,4.23,-1.33,-45.96
44803,789.33,768.79,769.51,765.23,773.21,103.52,-851.56,555.18,-0.32,0.27,0.09,-46.65
44836,789.25,768.70,769.49,765.21,773.16,100.10,-841.80,566.89,-0.86,2.44,0.36,-45.96
44870,789.26,768.77,769.46,765.13,773.15,102.54,-837.40,559.57,0.28,0.24,-0.11,-46.08
44903,789.27,768.76,769.45,765.17,773.16,107.42,-840.33,556.15,-1.76,-0.99,1.51,-46.72
44937,789.32,768.76,769.49,765.21,773.19,102.54,-850.59,548.83,-0.42,0.55,0.44,-46.56
44971,789.37,768.69,769.46,765.17,773.17,108.40,-841.31,560.55,-0.84,-1.21,0.11,-46.40
45005,789.46,768.68,769.42,765.13,773.17,108.40,-842.29,559.57,-0.60,0.85,-0.37,-46.88
45039,789.48,768.67,769.45,765.14,773.19,97.66,-841.80,549.80,1.70,2.31,1.46,-46.31
45073,789.55,768.63,769.48,765.12,773.20,102.05,-848.63,562.99,0.95,2.49,0.68,-45.23
45106,789.51,768.62,769.51,765.02,773.17,113.77,-858.89,539.06,-0.75,1.58,1.66,-42.79
45140,789.50,768.67,769.54,765.10,773.20,104.49,-843.75,559.57,0.95,-0.79,1.65,-43.65
45174,789.51,768.72,769.44,765.10,773.19,108.89,-845.70,554.20,1.70,2.79,-2.02,-46.52
45208,789.50,768.74,769.49,765.13,773.21,101.56,-849.61,549.80,-0.85,2.89,0.98,-45.81
45242,789.42,768.63,769.49,765.13,773.17,110.35,-852.54,551.76,1.58,-2.25,-2.34,-44.80
45276,789.39,768.71,769.49,765.10,773.17,106.93,-844.24,558.59,3.05,2.58,-1.89,-44.85
45311,789.37,768.76,769.53,765.18,773.21,110.84,-852.54,547.85,-1.37,2.32,0.19,-45.31
45345,789.34,768.71,769.51,765.17,773.18,113.28,-852.05,556.15,0.38,3.14,0.24,-45.10
45379,789.37,768.71,769.51,765.24,773.21,104.98,-853.52,555.66,-1.31,2.81,1.37,-46.27
45413,789.45,768.73,769.48,765.28,773.23,105.47,-835.94,560.06,-0.17,-0.16,0.69,-48.11
45447,789.51,768.75,769.47,765.18,773.23,106.93,-835.94,553.22,-3.16,-0.73,-0.26,-47.06
45483,789.54,768.78,769.44,765.19,773.24,113.28,-846.68,548.83,-0.17,-0.08,2.33,-48.46
45517,789.49,768.67,769.48,765.12,773.19,120.61,-846.68,556.15,-0.04,-0.08,1.98,-45.33
45551,789.49,768.72,769.52,765.10,773.21,101.56,-845.21,558.11,0.86,1.82,3.13,-44.41
45585,789.50,768.79,769.49,765.12,773.22,104.98,-843.75,549.32,1.08,2.89,-0.20,-45.90
45619,789.54,768.66,769.50,765.07,773.19,101.07,-855.96,557.13,0.74,2.00,0.33,-44.26
45653,789.49,768.74,769.48,765.09,773.20,111.82,-833.01,565.43,-0.11,1.40,0.94,-45.43
45688,789.60,768.74,769.42,765.14,773.23,116.70,-836.43,556.15,1.23,0.17,4.68,-47.95
45722,789.62,768.66,769.50,765.06,773.21,108.40,-850.10,560.55,-1.42,2.18,0.92,-44.29
45756,789.63,768.70,769.47,765.11,773.22,109.86,-845.70,567.87,-0.50,-0.31,3.00,-46.06
45790,789.61,768.69,769.47,765.09,773.22,112.30,-845.70,550.29,-0.09,0.42,-0.47,-45.89
45824,789.56,768.78,769.52,765.02,773.22,95.70,-849.61,550.78,0.63,1.44,-0.34,-44.18
45858,789.58,768.73,769.47,765.13,773.23,104.49,-853.03,547.36,-0.74,2.00,1.15,-46.54
45892,789.57,768.71,769.47,765.13,773.22,100.10,-842.77,563.96,-1.18,1.93,0.13,-46.33
45926,789.59,768.71,769.52,765.14,773.24,110.35,-851.56,561.04,1.26,0.55,-1.77,-45.35
45960,789.59,768.72,769.49,765.15,773.23,108.40,-854.98,550.29,2.20,0.77,-0.46,-46.32
45995,789.60,768.68,769.50,765.12,773.22,114.75,-853.03,570.31,0.35,0.00,0.16,-45.36
46029,789.67,768.64,769.50,765.12,773.23,104.49,-845.21,562.99,-0.30,4.21,1.12,-45.31
46063,789.75,768.67,769.49,765.04,773.24,108.89,-851.56,552.73,1.04,2.21,0.98,-44.68
46097,789.75,768.71,769.54,765.07,773.27,117.19,-848.63,552.73,0.27,1.76,3.05,-44.34
46131,789.79,768.62,769.47,765.04,773.23,112.30,-847.66,557.62,1.08,2.27,-0.17,-45.02
46165,789.80,768.68,769.47,765.09,773.26,104.49,-844.24,563.48,0.05,1.23,0.95,-46.21
46199,789.83,768.61,769.43,765.05,773.23,122.07,-840.82,551.27,-0.53,0.76,2.35,-46.19
46233,789.83,768.62,769.40,765.08,773.23,90.33,-838.87,541.50,-0.56,2.05,-0.52,-47.43
46268,789.84,768.60,769.42,764.97,773.21,111.82,-841.80,561.52,3.18,1.76,0.86,-45.46
46302,789.91,768.65,769.40,764.98,773.23,97.17,-856.93,559.57,1.27,1.44,1.89,-46.51
46336,790.04,768.62,769.48,765.08,773.31,112.79,-852.54,548.34,1.76,2.55,1.89,-46.10
46370,789.98,768.62,769.41,765.05,773.27,108.40,-847.17,551.76,1.61,-0.32,0.36,-47.44
46404,790.03,768.53,769.47,765.06,773.27,92.29,-845.21,557.13,0.40,0.05,-0.71,-45.42
46439,789.91,768.66,769.43,765.03,773.26,104.00,-837.89,547.85,-1.47,-0.93,-0.89,-46.59
46472,789.94,768.58,769.39,765.06,773.24,101.07,-849.12,557.62,-1.31,0.31,1.60,-47.45
46506,789.88,768.68,769.37,764.97,773.23,109.86,-847.66,550.78,1.32,4.73,0.45,-47.29
46540,789.91,768.66,769.40,765.09,773.26,104.98,-845.70,556.64,-1.05,-1.15,1.60,-48.25
46574,789.84,768.55,769.45,765.00,773.21,104.49,-853.03,546.87,-0.72,2.85,-0.31,-44.65
46608,789.89,768.68,769.37,765.03,773.24,95.21,-843.75,547.36,0.25,4.69,0.19,-48.28
46641,789.90,768.64,769.32,765.01,773.22,98.63,-849.61,554.69,-3.00,1.22,4.05,-48.89
46675,789.87,768.64,769.38,765.00,773.22,106.45,-845.21,559.57,1.57,3.89,-0.38,-47.23
46709,789.97,768.68,769.34,764.98,773.24,108.40,-843.75,556.64,1.18,0.18,-0.19,-48.59
46743,789.96,768.67,769.34,764.93,773.22,107.42,-845.70,544.43,0.98,1.46,2.09,-47.70
46777,789.86,768.61,769.32,765.01,773.20,107.42,-849.61,556.64,2.29,0.89,-0.79,-48.72
46811,789.95,768.60,769.37,764.98,773.23,99.12,-838.38,559.57,0.56,1.62,3.20,-47.05
46845,789.99,768.68,769.33,764.91,773.23,111.33,-851.07,563.96,-0.53,0.93,0.97,-47.76
46879,789.94,768.66,769.39,765.04,773.26,92.77,-851.07,559.57,0.70,5.52,2.64,-47.84
46913,789.98,768.63,769.32,764.91,773.21,110.84,-844.73,558.59,-2.65,-0.39,-0.16,-47.57
46947,789.88,768.65,769.33,764.91,773.19,108.40,-845.70,550.78,1.94,0.55,0.73,-47.25
46981,789.95,768.61,769.34,764.89,773.20,112.30,-853.03,558.11,-0.82,1.79,-0.62,-46.54
47016,789.90,768.57,769.35,764.91,773.18,99.61,-858.40,560.06,0.60,0.56,-0.70,-46.04
47050,790.00,768.54,769.31,764.84,773.17,110.35,-848.14,561.04,0.29,0.38,-1.11,-46.06
47084,790.01,768.56,769.41,764.86,773.21,100.59,-836.91,552.73,0.17,1.71,-0.04,-44.17
47118,790.07,768.50,769.25,764.79,773.15,103.03,-846.19,546.39,-0.08,1.87,0.60,-46.86
47152,790.05,768.46,769.26,764.83,773.15,106.45,-842.29,559.08,-1.41,1.31,-0.34,-46.76
47186,790.06,768.50,769.29,764.79,773.16,116.21,-850.10,561.04,0.02,0.92,-2.29,-45.95
47220,790.10,768.39,769.29,764.70,773.12,106.93,-857.91,552.25,0.95,0.88,-0.32,-43.75
47254,790.17,768.46,769.29,764.65,773.14,109.86,-856.93,560.55,-0.15,-0.95,-0.97,-43.68
47288,790.29,768.46,769.23,764.68,773.17,116.21,-839.36,546.39,0.61,1.88,0.15,-46.32
47323,790.32,768.40,769.24,764.70,773.16,114.26,-851.07,561.52,1.46,0.05,0.45,-45.76
47357,790.23,768.36,769.19,764.58,773.09,117.19,-851.07,562.99,-0.02,0.49,-0.83,-44.67
47392,790.27,768.45,769.23,764.61,773.14,109.86,-851.07,553.71,0.75,1.92,0.36,-45.15
47427,790.33,768.46,769.15,764.68,773.15,103.52,-847.66,548.83,0.84,2.27,0.40,-48.30
47461,790.31,768.44,769.22,764.65,773.15,109.37,-851.56,553.71,-0.08,2.14,0.85,-45.83
47495,790.34,768.46,769.17,764.64,773.15,116.21,-846.68,568.36,-1.05,1.73,-1.09,-47.20
47529,790.47,768.39,769.16,764.66,773.17,92.29,-848.14,550.29,-0.87,0.73,2.45,-47.67
47563,790.49,768.40,769.12,764.63,773.16,117.68,-852.05,544.92,-1.30,3.34,-0.16,-48.40
