currTime,s1,s2,s3,s4,s,AccX,AccY,AccZ,GyroX,GyroY,GyroZ,GRF
26,793.24,763.09,756.09,753.19,766.40,-17.58,-862.79,547.36,-2.14,1.89,-0.47,-171.57
60,793.25,763.08,756.10,753.24,766.42,-24.90,-861.33,542.97,-1.11,-0.63,1.15,-172.08
94,793.37,763.03,756.06,753.19,766.41,-16.60,-863.28,556.64,-0.38,1.03,2.63,-172.34
128,793.20,762.95,756.08,753.26,766.38,-26.86,-855.47,564.94,-1.24,0.47,-3.13,-171.64
161,792.91,762.88,756.07,753.07,766.23,-20.02,-872.07,541.02,-0.95,-1.04,-0.61,-167.49
195,792.86,762.92,756.08,753.04,766.22,-16.60,-861.82,545.90,0.11,-0.50,2.05,-166.74
235,792.93,762.78,756.05,753.00,766.19,-19.04,-868.16,542.48,0.55,-0.52,-0.27,-166.25
270,793.16,762.79,756.10,752.95,766.25,-19.04,-865.72,546.39,-1.07,0.59,0.45,-164.80
305,793.35,762.69,756.05,753.03,766.28,-13.67,-868.65,551.76,0.18,0.34,-2.66,-167.12
339,793.40,762.65,756.19,753.00,766.31,-30.27,-864.26,550.78,-0.94,1.43,0.22,-163.19
374,793.41,762.71,756.11,753.01,766.31,-26.37,-858.89,564.45,-1.17,-0.29,-1.74,-165.92
409,793.45,762.62,756.09,753.01,766.29,-26.37,-863.77,553.71,0.53,2.79,0.11,-165.88
447,793.46,762.64,756.13,753.04,766.32,-25.39,-864.75,543.95,-0.51,1.89,0.28,-165.36
482,793.32,762.59,756.13,753.05,766.27,-42.97,-854.49,552.25,0.67,-0.24,0.47,-164.59
517,792.98,762.48,756.06,752.98,766.12,-32.71,-864.26,549.80,-2.87,-1.98,0.48,-163.35
552,792.64,762.45,756.10,753.00,766.05,-13.67,-865.72,549.32,-0.18,0.49,-0.72,-161.34
587,792.42,762.46,756.03,752.93,765.96,-22.46,-856.45,550.78,-1.24,-0.11,-1.37,-161.34
622,792.26,762.50,756.00,752.96,765.93,-33.20,-866.21,551.76,-0.53,0.12,-1.04,-162.18
660,792.08,762.51,755.99,752.91,765.87,-18.07,-850.59,556.15,1.97,1.58,-1.11,-161.27
695,792.04,762.47,756.01,752.96,765.87,-27.83,-868.16,559.08,1.81,1.27,-1.89,-160.94
730,792.09,762.44,756.08,752.99,765.90,-23.93,-854.98,539.06,-2.27,0.59,2.73,-159.51
765,791.98,762.41,756.06,753.09,765.88,-27.34,-870.61,560.06,-1.44,-1.09,-0.20,-160.85
800,791.94,762.36,756.03,753.06,765.85,-18.07,-870.12,543.46,-2.37,1.54,-2.32,-160.87
838,791.81,762.30,756.05,753.05,765.81,-22.95,-869.14,557.13,-0.14,-0.43,0.05,-159.31
873,791.71,762.25,756.02,753.09,765.77,-28.32,-858.89,557.62,-0.63,0.34,2.86,-159.78
908,791.69,762.25,756.08,753.10,765.78,-35.16,-867.19,544.92,-0.17,-1.20,-0.73,-158.46
942,791.67,762.23,756.06,753.23,765.80,-15.14,-862.30,547.85,-2.16,-0.73,0.12,-160.68
977,791.58,762.37,755.98,753.25,765.80,-27.83,-865.72,542.97,0.51,-0.99,-0.28,-163.51
1012,791.43,762.37,756.02,753.35,765.79,-12.70,-871.09,551.76,1.40,1.85,-0.33,-163.62
1050,791.30,762.44,756.11,753.41,765.82,-27.83,-860.84,550.29,0.74,-2.85,-1.95,-162.23
1085,791.22,762.48,756.06,753.44,765.80,-34.18,-865.23,557.62,-0.09,2.60,-1.26,-164.09
1120,791.10,762.53,756.13,753.43,765.80,-39.55,-866.70,561.04,-0.37,1.76,0.75,-162.18
1154,791.00,762.53,756.09,753.36,765.74,-28.32,-881.35,536.13,-1.79,0.34,-1.36,-161.70
1189,791.02,762.51,756.11,753.39,765.76,-27.83,-868.16,548.34,-0.78,0.03,-1.80,-161.67
1224,791.06,762.53,756.04,753.28,765.73,-19.04,-860.84,553.71,-0.60,1.85,0.43,-162.26
1261,791.06,762.57,756.12,753.27,765.76,-23.44,-862.30,550.29,1.32,5.34,-1.47,-160.12
1296,791.11,762.49,756.10,753.18,765.72,-24.90,-863.28,536.62,0.21,1.60,-2.56,-158.87
1331,791.20,762.52,756.06,753.09,765.72,-23.93,-859.37,540.53,-1.30,-1.89,-1.69,-159.04
1367,791.23,762.49,756.08,753.17,765.74,-36.13,-861.33,555.18,1.53,-1.48,-2.84,-159.67
1401,791.62,762.62,756.09,753.04,765.84,-32.71,-861.33,559.57,0.08,1.21,-1.81,-159.82
1437,791.88,762.55,756.11,752.95,765.87,-16.60,-868.16,549.80,-0.01,3.82,0.57,-158.36
1474,792.01,762.55,756.03,752.86,765.86,-26.37,-869.63,549.32,-2.62,1.60,-0.75,-159.65
1509,792.15,762.48,756.00,752.84,765.87,-25.88,-860.35,536.13,-2.54,0.83,0.30,-159.99
1544,792.26,762.43,755.95,752.90,765.88,-14.16,-866.21,560.06,-0.13,0.79,-2.82,-162.09
1579,792.45,762.36,755.98,752.89,765.92,-18.55,-871.09,541.02,-0.08,-0.40,-0.20,-161.37
1614,792.50,762.29,756.00,752.93,765.93,-22.46,-857.42,555.66,-0.70,-2.15,1.20,-160.95
1649,792.41,762.21,755.95,752.94,765.88,-19.53,-870.61,544.92,-0.43,-0.55,-2.56,-161.28
1687,792.17,762.10,755.94,752.93,765.79,-35.16,-860.84,546.39,-1.18,1.26,-1.53,-159.73
1722,792.26,762.02,755.96,753.01,765.81,-16.60,-858.89,557.13,0.36,0.35,-0.97,-160.22
1758,792.21,761.97,756.01,753.11,765.82,-24.41,-863.77,554.20,-0.76,0.53,-2.24,-159.74
1793,792.07,761.91,756.00,753.20,765.80,-33.69,-860.84,540.04,-1.69,2.12,-0.81,-160.36
1828,791.78,761.90,756.09,753.19,765.74,-31.74,-864.75,549.32,-0.65,-0.03,0.12,-157.05
1863,791.55,761.88,755.99,753.24,765.67,-24.41,-872.07,557.62,1.59,-1.13,-2.11,-159.32
1901,791.10,761.84,756.07,753.30,765.58,-25.39,-866.21,556.64,-1.47,-1.42,2.14,-156.26
1936,790.76,761.87,756.04,753.33,765.50,-42.97,-860.35,534.67,0.05,2.87,-0.02,-156.53
1971,790.54,761.95,756.02,753.22,765.43,-21.97,-873.05,555.18,0.71,-1.40,-0.04,-155.33
2006,790.51,761.89,756.08,753.20,765.42,-22.46,-860.84,533.20,1.37,1.34,-0.37,-152.96
2041,790.53,761.90,755.97,753.22,765.40,-16.60,-872.07,549.32,-1.45,3.14,-1.11,-156.17
2076,790.62,761.89,756.06,753.35,765.48,-23.44,-868.16,550.29,0.37,0.53,0.75,-156.02
2113,790.85,761.87,756.06,753.33,765.53,-22.95,-865.72,542.97,-0.14,-0.08,-1.74,-156.33
2148,790.88,761.78,756.06,753.24,765.49,-3.42,-861.33,550.78,-2.14,0.70,-2.29,-154.28
2183,790.88,761.78,756.05,753.18,765.47,-29.30,-865.72,538.57,-1.74,2.18,1.04,-153.53
2218,790.90,761.73,756.02,753.12,765.44,-28.32,-867.68,550.78,-1.97,1.00,0.25,-153.27
2253,790.92,761.56,756.07,753.02,765.39,-18.55,-860.84,549.32,0.37,0.31,-0.83,-149.14
2291,790.87,761.41,755.89,752.91,765.27,-34.67,-877.44,553.22,-3.16,-0.03,1.37,-150.59
2326,790.53,761.35,755.98,752.78,765.16,-17.58,-864.75,551.76,-1.24,-0.77,-0.73,-144.87
2361,790.19,761.41,755.95,752.84,765.10,-21.00,-876.46,551.76,-4.20,-1.60,0.24,-145.93
2426,789.71,761.21,755.95,752.86,764.93,-29.30,-870.12,542.48,-1.87,0.84,-2.68,-142.75
2461,789.60,761.15,755.89,752.84,764.87,-21.48,-868.65,529.79,-2.18,0.12,-0.63,-143.15
2495,789.42,761.13,755.95,752.81,764.83,-15.63,-876.95,537.11,-1.97,2.21,1.08,-140.58
2533,789.12,760.91,755.95,752.90,764.72,-26.37,-866.21,532.23,-0.66,0.62,1.50,-139.08
2567,788.95,760.92,755.93,752.91,764.68,-21.48,-862.30,554.69,-1.18,-1.32,1.23,-139.37
2602,788.75,760.85,755.97,752.90,764.62,-20.02,-858.89,545.41,0.96,-0.24,-0.23,-136.84
2636,788.60,760.79,755.88,753.02,764.57,-11.72,-859.37,551.27,-0.36,1.70,-1.69,-139.74
2670,788.48,760.72,755.91,752.91,764.50,-21.97,-875.49,552.73,-1.43,-1.26,-2.11,-136.57
2705,788.31,760.74,755.92,752.99,764.49,-24.41,-873.54,546.87,-0.66,-0.39,-0.60,-137.00
2742,788.23,760.67,755.91,752.98,764.45,-22.95,-873.54,540.53,-0.20,-0.39,0.83,-136.21
2777,788.24,760.70,755.91,753.03,764.47,-24.41,-859.37,536.13,-0.72,0.37,-0.87,-137.17
2811,788.15,760.63,755.90,753.02,764.43,-20.51,-873.05,542.97,-0.25,-0.27,0.12,-136.35
2846,788.25,760.69,755.91,753.05,764.47,-23.44,-861.82,545.41,2.36,1.04,-1.78,-137.65
2880,788.22,760.68,755.91,753.16,764.49,-23.93,-859.86,542.97,0.43,-0.79,-3.08,-138.72
2915,788.18,760.71,755.95,753.18,764.51,-23.44,-859.86,550.78,-1.66,1.99,-0.75,-138.47
2952,788.13,760.61,755.86,753.17,764.44,-20.51,-861.33,547.36,0.20,-0.40,2.02,-139.59
2986,788.07,760.76,755.95,753.20,764.50,-22.46,-868.65,558.11,0.06,-0.50,-0.18,-138.71
3021,788.15,760.72,755.86,753.11,764.46,-34.18,-868.65,551.76,0.07,-0.18,-1.63,-139.61
3056,788.14,760.78,755.88,753.28,764.52,-21.97,-863.77,540.53,-1.44,1.54,0.53,-142.18
3091,788.16,760.79,755.97,753.23,764.54,-21.97,-871.58,561.04,0.76,0.37,0.08,-139.10
3125,788.26,760.95,755.99,753.25,764.61,-18.07,-860.35,549.32,-1.95,2.11,-0.29,-140.47
3163,788.30,760.99,755.92,753.22,764.61,-25.39,-863.77,546.87,-0.73,-0.39,-0.47,-142.49
3198,788.45,760.99,756.03,753.28,764.69,-33.69,-857.42,539.55,-1.55,2.19,-0.24,-141.21
3232,788.56,761.05,755.89,753.27,764.69,-18.55,-875.00,545.90,-0.47,-0.50,-1.50,-145.28
3267,788.70,761.14,755.92,753.27,764.76,-15.63,-866.21,540.04,-0.15,-0.47,0.42,-145.54
3302,788.82,761.19,755.99,753.22,764.81,-30.27,-862.79,544.43,0.78,0.44,0.60,-143.97
3337,789.06,761.18,755.95,753.21,764.85,-27.34,-864.75,535.16,-0.92,0.61,-1.27,-145.76
3374,789.28,761.18,755.99,753.20,764.91,-38.09,-873.54,547.85,0.54,0.08,1.62,-145.23
3409,789.50,761.21,755.90,753.23,764.96,-37.11,-859.86,539.55,-1.47,1.64,1.88,-148.96
3444,789.57,761.18,756.00,753.16,764.98,-23.44,-865.72,543.46,0.21,-1.06,0.61,-145.53
3478,789.77,761.19,756.02,753.18,765.04,-12.21,-861.33,535.64,0.14,0.69,-0.32,-145.92
3513,789.72,761.12,755.99,753.19,765.00,-22.95,-864.26,543.95,-2.33,1.66,-0.79,-146.07
3551,789.78,761.17,756.00,753.23,765.04,-33.69,-852.54,536.62,1.19,1.44,0.41,-147.08
3585,789.78,761.18,755.96,753.15,765.02,-24.90,-860.35,552.73,-0.28,3.05,-1.39,-147.05
3620,789.83,761.21,755.87,753.10,765.00,-30.76,-867.68,542.97,1.44,0.94,-1.13,-148.94
3655,789.84,761.25,755.99,753.27,765.09,-15.63,-863.77,541.99,-0.93,1.04,-0.73,-148.66
3690,789.87,761.26,755.94,753.24,765.08,-29.79,-860.84,542.97,-1.49,0.22,-2.42,-149.58
3724,789.87,761.29,755.94,753.25,765.09,-37.60,-859.86,546.87,-0.23,-0.41,-0.62,-150.22
3762,789.81,761.36,756.02,753.31,765.12,-36.62,-855.47,553.22,-0.84,-0.36,-1.12,-149.27
3796,789.69,761.39,755.97,753.38,765.11,-7.32,-863.77,546.87,0.02,1.91,-0.03,-151.49
3831,789.62,761.41,756.04,753.44,765.13,-27.34,-864.75,547.36,-0.69,-0.38,-3.37,-150.60
3866,789.55,761.41,756.00,753.45,765.10,-29.30,-852.54,548.34,-0.34,-2.21,0.60,-151.37
3901,789.53,761.46,756.03,753.45,765.12,-19.53,-859.86,542.97,-2.37,-2.18,-1.05,-150.96
3935,789.46,761.43,755.97,753.34,765.05,-19.04,-863.28,547.85,1.75,-0.05,-1.44,-150.51
3973,789.39,761.48,755.97,753.33,765.04,-25.39,-866.21,550.29,-1.00,-1.17,0.68,-150.32
4008,789.39,761.46,755.97,753.37,765.05,-21.97,-870.12,555.18,0.90,1.25,1.01,-150.86
4043,789.30,761.41,755.99,753.27,764.99,-24.41,-859.86,548.83,-0.63,1.90,-2.60,-148.20
4077,789.25,761.43,755.98,753.20,764.97,-26.86,-859.86,549.80,0.73,-2.69,-0.31,-147.39
4112,789.19,761.35,756.04,753.23,764.95,-28.81,-860.84,540.53,-1.76,0.89,-0.79,-145.52
4147,789.24,761.31,755.98,753.16,764.92,-35.16,-871.58,541.50,-0.94,2.95,-1.65,-145.70
4184,789.10,761.21,755.94,753.25,764.88,-18.07,-868.65,539.06,-0.47,-1.87,0.06,-146.77
4219,788.86,761.21,755.96,753.32,764.84,-28.81,-856.45,545.41,-0.61,-1.73,0.09,-146.62
4253,788.83,761.27,755.95,753.19,764.81,-19.04,-858.89,545.90,0.34,-0.39,0.00,-145.26
4289,788.82,761.21,756.01,753.18,764.81,-25.39,-864.75,564.45,0.04,0.79,-0.20,-143.04
4323,788.64,761.26,756.06,753.24,764.80,-21.97,-862.30,542.97,-0.48,1.50,-1.75,-142.42
4358,788.45,761.25,756.02,753.23,764.74,-25.88,-869.14,543.46,0.13,-0.98,-1.15,-142.71
4395,788.33,761.18,756.02,753.24,764.69,-10.74,-873.05,533.69,-1.99,1.19,0.73,-141.87
4430,788.22,761.22,756.03,753.22,764.67,-29.30,-858.89,544.92,-0.33,-0.79,0.29,-141.12
4465,788.22,761.16,755.99,753.23,764.65,-21.97,-872.56,562.50,-0.72,2.03,-0.34,-141.81
4499,788.17,761.21,756.01,753.25,764.66,-12.21,-872.07,550.29,-0.11,-0.11,0.79,-141.79
4534,788.09,761.11,756.04,753.25,764.62,-18.55,-859.37,545.90,-0.04,2.24,2.07,-140.07
4568,788.10,761.14,755.96,753.26,764.62,-35.64,-871.58,547.36,-1.35,0.50,-2.56,-142.46
4606,787.92,761.25,755.98,753.22,764.59,-33.69,-873.05,544.92,-1.98,1.21,1.26,-141.52
4640,787.91,761.21,755.96,753.30,764.60,-32.71,-863.28,542.97,0.48,1.19,-0.94,-142.87
4675,787.95,761.22,756.01,753.27,764.61,-21.48,-866.21,545.90,-1.11,1.51,1.08,-141.52
4710,787.81,761.32,756.04,753.21,764.60,-23.44,-860.35,542.48,0.24,0.71,1.08,-140.07
4745,787.75,761.23,755.97,753.19,764.53,-26.86,-870.12,549.32,0.10,-0.24,0.41,-140.80
4782,787.67,761.24,756.02,753.21,764.53,-18.07,-867.68,559.57,0.18,3.98,-0.25,-139.53
4817,787.70,761.26,756.05,753.20,764.55,-31.25,-864.75,544.43,-0.13,0.77,1.05,-138.76
4852,787.65,761.28,755.98,753.20,764.53,-16.11,-861.33,544.43,0.26,0.47,-0.92,-140.79
4887,787.68,761.24,755.98,753.20,764.52,-28.81,-856.93,551.76,0.45,-0.20,0.55,-140.56
4922,787.70,761.30,755.97,753.19,764.54,-32.23,-868.65,544.43,0.84,-0.50,-1.68,-141.24
4957,787.75,761.35,755.98,753.23,764.58,-28.81,-865.23,544.43,-1.51,-0.68,0.61,-141.85
4994,787.72,761.32,756.03,753.25,764.58,-21.97,-864.75,549.80,-1.70,-0.68,-1.56,-140.74
5029,787.74,761.38,755.99,753.25,764.59,-27.83,-860.35,546.39,-0.25,0.80,-0.33,-142.18
5064,787.78,761.39,755.97,753.26,764.60,-18.07,-870.12,546.87,1.40,-1.46,1.54,-142.93
5099,787.73,761.45,756.05,753.20,764.61,-32.23,-860.35,552.25,-0.75,-2.02,-1.69,-140.61
5133,787.90,761.30,756.05,753.15,764.60,-25.39,-869.14,547.36,-2.85,1.49,-1.75,-139.27
5168,787.93,761.36,756.05,753.26,764.65,-15.63,-863.77,549.32,0.16,0.63,0.46,-141.32
5206,787.99,761.47,756.02,753.28,764.69,-18.55,-876.46,541.02,-1.19,3.35,-2.33,-143.52
5241,787.92,761.39,755.99,753.19,764.62,-32.23,-867.19,553.22,2.51,-3.96,-0.80,-141.89
5276,788.02,761.43,756.00,753.17,764.65,-24.41,-855.47,538.09,-1.22,2.39,-1.52,-142.29
5311,788.01,761.50,756.03,753.29,764.71,-16.60,-866.21,546.87,-0.05,0.71,-0.28,-143.72
5346,788.02,761.44,756.03,753.25,764.68,-13.18,-865.23,541.99,-1.24,1.72,-0.61,-142.56
5380,787.98,761.48,756.01,753.19,764.66,-25.39,-862.79,544.43,-0.93,-0.04,3.34,-142.38
5418,787.90,761.45,756.04,753.24,764.66,-23.93,-860.35,546.87,-0.16,0.08,-3.15,-142.09
5453,787.81,761.57,756.03,753.33,764.68,-17.58,-856.93,547.85,-0.80,1.04,-0.87,-144.09
5488,787.84,761.58,756.05,753.37,764.71,-23.44,-869.63,538.57,0.33,0.10,2.10,-144.52
5523,787.83,761.53,755.99,753.36,764.68,-25.39,-862.30,547.85,1.44,-1.25,-1.83,-145.50
5558,787.75,761.65,756.05,753.38,764.71,-34.18,-852.05,554.69,-0.10,-0.26,-3.53,-144.97
5593,787.70,761.64,756.00,753.33,764.67,-26.37,-863.28,551.27,-0.79,3.11,-0.66,-145.03
5630,787.59,761.51,756.05,753.41,764.64,-22.46,-874.51,554.69,-0.67,1.86,-0.91,-143.57
5665,787.51,761.64,756.01,753.31,764.62,-13.67,-871.09,553.71,-1.16,1.66,0.33,-143.72
5700,787.47,761.62,756.04,753.34,764.62,-18.55,-859.37,545.41,1.92,0.29,0.12,-143.36
5735,787.54,761.59,755.98,753.25,764.59,-16.60,-854.49,549.32,-1.60,-0.35,-1.03,-143.49
5770,787.64,761.62,756.00,753.24,764.63,-18.55,-863.77,559.57,-0.15,0.88,0.18,-143.54
5805,787.70,761.60,756.02,753.15,764.61,-12.21,-855.47,549.80,1.45,-0.11,0.58,-141.69
5842,787.83,761.55,756.00,753.14,764.63,-25.88,-853.52,554.69,-1.37,-1.05,-1.15,-141.98
5876,787.93,761.53,756.05,753.14,764.66,-22.95,-875.00,541.50,-0.39,5.25,-1.19,-141.03
5911,788.00,761.58,756.04,753.13,764.69,-23.93,-857.42,534.18,-1.12,-1.73,-0.48,-141.76
5945,788.09,761.59,756.04,753.11,764.71,-29.30,-869.63,548.83,-0.21,0.79,0.85,-141.83
5980,788.19,761.52,756.00,752.99,764.68,-30.76,-863.28,536.13,0.05,0.27,-0.44,-140.88
6018,788.22,761.45,756.08,753.11,764.71,-31.74,-859.37,546.87,-0.27,1.02,0.40,-140.21
6052,788.24,761.51,755.96,753.13,764.71,-22.46,-860.84,554.69,-0.66,3.98,0.22,-144.07
6087,788.22,761.52,756.00,753.15,764.72,-27.34,-866.70,544.92,1.31,1.98,-0.37,-143.28
6122,788.22,761.49,756.01,753.12,764.71,-28.32,-862.79,549.32,-1.99,-1.34,-2.02,-142.35
6157,788.17,761.45,756.11,753.15,764.72,-19.04,-872.07,557.62,-1.21,-1.70,-1.58,-139.80
6191,788.14,761.51,755.90,753.25,764.70,-26.86,-867.68,543.46,2.19,0.90,-0.21,-146.92
6229,788.20,761.56,755.98,753.24,764.74,-28.81,-860.35,553.22,1.87,0.48,-1.25,-145.28
6264,788.18,761.61,756.02,753.29,764.77,-31.74,-876.46,541.99,1.21,-2.13,-1.47,-145.46
6299,788.16,761.56,756.05,753.36,764.78,-24.41,-861.82,533.20,-0.98,0.15,-0.45,-145.26
6333,788.04,761.58,756.02,753.28,764.73,-33.20,-865.23,544.92,0.31,0.64,-2.42,-144.53
6368,787.98,761.59,756.06,753.31,764.73,-19.04,-863.28,559.08,-0.77,1.91,1.02,-144.04
6403,788.03,761.61,755.98,753.31,764.73,-16.60,-866.70,550.29,-0.63,-0.05,1.30,-146.31
6441,788.05,761.62,756.07,753.24,764.74,-26.37,-856.93,541.50,-1.57,2.05,1.10,-143.09
6476,788.08,761.65,756.09,753.24,764.76,-28.81,-869.14,546.87,-0.59,0.69,-0.47,-142.95
6511,788.05,761.64,756.04,753.21,764.73,-27.83,-861.82,546.87,-1.12,0.31,0.35,-143.67
6545,788.10,761.66,756.03,753.24,764.76,-28.32,-864.26,544.92,-1.42,-2.61,-4.18,-144.48
6580,788.07,761.61,756.04,753.22,764.73,-24.41,-871.58,546.39,-0.10,-1.28,-2.67,-143.45
6615,788.04,761.73,756.09,753.17,764.76,-12.70,-863.77,547.36,-0.52,0.68,-2.31,-142.52
6653,788.12,761.67,756.05,753.31,764.79,-20.51,-866.70,541.50,0.26,-1.24,-0.63,-145.25
6687,788.16,761.61,756.04,753.19,764.75,-24.41,-871.58,545.90,-0.08,-0.40,-0.68,-143.43
6722,788.20,761.59,756.08,753.21,764.77,-29.30,-857.42,539.55,-0.55,0.79,-0.98,-142.69
6757,788.23,761.56,756.01,753.19,764.75,-30.76,-880.37,544.43,-0.95,-3.63,-1.36,-144.14
6792,788.23,761.53,756.02,753.16,764.74,-31.25,-872.07,547.85,0.08,-0.35,1.56,-143.00
6827,788.20,761.59,756.04,753.12,764.74,-15.14,-866.21,541.50,0.12,2.22,-0.82,-142.32
6865,788.24,761.69,755.96,753.23,764.78,-21.48,-877.44,530.76,-0.24,0.91,-0.05,-146.73
6899,788.32,761.66,755.98,753.14,764.78,-18.07,-869.63,547.85,-0.24,-1.03,-0.53,-145.16
6934,788.32,761.68,756.02,753.20,764.81,-23.44,-869.63,546.87,-0.27,-0.11,-0.18,-145.35
6969,788.37,761.61,756.03,753.18,764.80,-29.30,-859.86,547.36,-0.70,-0.47,0.03,-144.20
7004,788.36,761.64,755.93,753.20,764.78,-32.71,-862.79,543.95,0.34,0.89,-0.58,-147.12
7039,788.45,761.75,755.99,753.15,764.84,-25.88,-862.79,550.78,-1.01,2.49,0.15,-146.07
7077,788.61,761.66,755.98,753.19,764.86,-20.02,-870.12,548.34,1.40,0.42,-1.85,-146.86
7112,788.71,761.66,756.05,753.18,764.90,-28.81,-862.79,545.90,0.47,1.40,0.95,-145.25
7147,788.69,761.68,756.07,753.25,764.92,-15.14,-872.07,546.87,-1.61,-1.60,0.96,-145.95
7182,788.80,761.67,756.04,753.17,764.92,-21.97,-869.14,540.53,0.85,-0.33,-1.27,-145.83
7217,788.87,761.68,755.98,753.19,764.93,-20.02,-863.77,546.87,-1.39,2.32,-1.06,-147.98
7254,788.96,761.69,755.94,753.08,764.92,-28.81,-853.52,548.34,-1.04,0.45,-2.53,-147.57
7289,789.17,761.68,756.00,753.14,765.00,-28.81,-854.49,555.66,1.31,0.69,1.04,-147.68
7324,789.32,761.66,756.04,753.15,765.04,-24.41,-869.63,547.85,-0.60,1.05,-1.49,-147.25
7359,789.44,761.60,755.98,753.08,765.02,-21.00,-867.19,541.02,-1.21,-0.81,-1.21,-147.71
7394,789.68,761.58,756.04,753.08,765.09,-18.55,-865.23,540.53,1.67,0.14,2.05,-146.74
7429,789.68,761.59,756.02,753.01,765.07,-26.86,-874.02,545.90,-1.47,0.24,-2.33,-146.31
7466,789.96,761.53,756.05,752.97,765.13,-23.44,-864.75,557.62,2.18,-1.12,-0.32,-145.39
7501,790.16,761.55,756.00,753.00,765.18,-20.02,-861.82,556.64,0.63,0.95,0.98,-147.95
7536,790.34,761.51,756.00,753.00,765.21,-30.27,-867.19,553.71,0.02,1.27,-1.28,-148.32
7571,790.40,761.47,755.98,753.03,765.22,-32.71,-870.61,544.43,0.39,-1.44,0.46,-149.12
7605,790.49,761.50,755.98,752.98,765.24,-20.02,-874.02,549.80,-0.38,-2.58,0.40,-148.84
7640,790.71,761.44,755.93,753.05,765.28,-17.58,-869.14,552.25,1.53,1.21,-1.92,-151.58
7678,790.78,761.42,755.93,753.02,765.29,-33.69,-868.65,540.53,-0.08,-0.86,-1.69,-151.29
7713,790.89,761.38,755.96,753.17,765.35,-17.09,-862.30,544.92,0.47,-2.55,-1.34,-152.59
7747,790.81,761.38,755.93,753.15,765.32,-16.60,-858.40,538.09,1.21,-0.47,0.25,-152.79
7782,790.80,761.42,756.02,753.16,765.35,-16.11,-863.28,548.34,0.15,0.68,-0.39,-150.92
7817,790.95,761.31,755.94,753.15,765.34,-15.14,-857.42,542.48,1.15,-1.58,-2.72,-152.59
7851,791.01,761.28,755.91,753.11,765.33,-17.09,-856.93,539.55,0.46,-0.60,-0.86,-152.49
7889,791.08,761.24,755.92,753.11,765.34,-30.76,-867.68,551.27,0.47,0.14,0.27,-152.37
7924,791.12,761.25,755.93,753.14,765.36,-23.44,-868.16,545.90,0.65,0.35,-1.50,-152.71
7959,791.15,761.33,755.93,753.17,765.39,-28.32,-851.07,551.27,-1.59,0.20,0.86,-153.85
7994,791.19,761.29,755.93,753.15,765.39,-28.81,-858.40,541.50,0.11,0.52,2.64,-153.21
8029,791.19,761.33,755.95,753.12,765.40,-25.88,-864.26,532.71,-0.85,1.39,-2.80,-152.65
8064,791.14,761.32,755.94,753.10,765.37,-35.64,-874.02,549.32,-1.00,-0.45,-0.13,-152.49
8102,791.11,761.32,755.96,753.08,765.36,-20.02,-872.56,541.50,0.60,-1.24,1.21,-151.53
8137,791.16,761.38,755.92,753.20,765.41,-22.46,-860.84,552.25,-0.58,2.07,-0.66,-154.87
8172,791.10,761.34,755.92,753.27,765.41,-29.79,-865.72,545.90,-0.31,1.09,4.40,-155.40
8206,790.99,761.36,755.93,753.30,765.40,-35.64,-874.02,552.73,-0.35,-0.12,-1.06,-155.45
8241,790.93,761.42,755.90,753.23,765.37,-11.23,-865.72,546.87,-1.05,0.26,-1.35,-155.46
8276,790.79,761.42,755.95,753.24,765.35,-19.04,-868.16,542.48,-0.24,2.44,3.46,-153.85
8314,790.59,761.48,756.01,753.26,765.34,-29.30,-866.21,549.80,-0.71,-1.04,-1.34,-152.59
8348,790.44,761.49,755.99,753.31,765.31,-38.09,-871.58,546.39,1.75,-0.74,-0.83,-153.38
8383,790.22,761.54,755.98,753.31,765.26,-23.93,-867.68,551.27,-0.21,-1.65,-0.63,-153.29
8418,789.85,761.55,755.99,753.37,765.19,-18.07,-857.91,540.53,-1.35,-0.19,2.16,-152.70
8453,789.64,761.54,755.96,753.37,765.13,-33.20,-855.96,545.41,-1.79,-0.33,-2.37,-152.53
8488,789.25,761.64,756.00,753.44,765.08,-30.76,-863.77,547.36,-2.00,-1.10,-0.56,-152.15
8525,788.95,761.71,755.96,753.45,765.02,-26.86,-861.33,552.73,0.21,2.51,0.00,-152.79
8560,788.69,761.74,756.01,753.45,764.97,-26.86,-871.09,554.20,-1.46,0.45,-0.67,-150.90
8595,788.60,761.84,756.03,753.45,764.98,-35.64,-856.93,550.29,-0.78,0.45,1.67,-150.76
8630,788.44,761.92,755.99,753.39,764.93,-32.71,-872.07,554.69,-1.64,-2.39,-2.62,-151.14
8665,788.31,761.93,756.09,753.30,764.91,-10.25,-838.38,581.54,-1.29,3.21,-2.01,-146.99
8702,788.51,762.06,755.97,753.32,764.97,-39.06,-854.49,551.76,1.25,-0.50,0.32,-151.95
8737,788.80,762.21,756.03,753.26,765.08,-28.32,-864.75,541.50,1.15,0.37,-1.80,-151.72
8772,789.02,762.28,755.92,753.13,765.09,-6.35,-866.21,544.43,-1.97,2.40,-2.00,-153.94
8807,788.91,762.48,756.03,753.23,765.17,-21.00,-864.75,559.08,-2.19,1.84,-1.41,-153.83
8842,788.79,762.69,756.02,753.26,765.19,-30.76,-894.04,559.57,-1.94,1.76,-1.00,-155.89
8876,788.32,762.94,756.08,753.38,765.18,-27.34,-892.58,501.46,-0.47,2.11,-3.09,-156.29
8914,787.88,763.36,756.17,753.60,765.25,-35.16,-870.61,539.06,-2.19,0.92,-2.06,-159.33
8949,787.29,763.63,756.18,753.75,765.21,-21.97,-875.49,521.97,-0.55,-0.40,0.17,-161.28
8984,786.81,763.98,756.20,753.90,765.23,-29.79,-873.05,540.04,-2.21,1.81,0.02,-164.29
9019,786.42,764.39,756.22,754.03,765.26,-38.57,-872.56,558.59,2.08,2.40,-0.31,-167.49
9054,785.94,764.49,756.35,753.93,765.18,-28.32,-835.94,573.73,0.53,-5.17,-0.16,-162.08
9089,785.53,764.70,756.27,754.02,765.13,-7.32,-958.98,500.98,1.18,-0.85,-3.14,-165.72
9126,785.66,764.78,756.36,753.94,765.18,-23.93,-886.23,526.37,-1.96,1.99,2.47,-163.25
9160,785.46,764.81,756.35,754.01,765.16,-33.69,-892.58,524.41,2.24,4.18,-0.13,-164.30
9195,785.23,764.87,756.40,753.97,765.12,-20.02,-851.56,554.20,-0.47,-1.34,0.79,-161.98
9230,784.99,764.88,756.37,753.94,765.05,-17.58,-873.54,543.46,-1.85,-1.52,0.31,-161.60
9264,784.96,765.10,756.40,753.94,765.10,-17.58,-871.58,555.18,0.28,-1.33,0.85,-162.55
9299,784.70,765.26,756.42,753.90,765.07,-16.60,-864.26,542.48,-2.24,0.59,1.76,-161.85
9336,784.43,765.16,756.43,753.73,764.94,7.81,-877.44,525.39,0.14,0.67,-1.84,-157.25
9375,784.48,765.06,756.39,753.55,764.87,-20.51,-854.49,534.67,0.88,1.36,-1.29,-155.01
9409,784.64,764.96,756.34,753.42,764.84,38.57,-815.43,521.00,16.60,9.29,1.12,-154.14
9443,784.34,764.88,756.43,753.33,764.74,-18.55,-920.90,536.62,-0.59,0.30,0.89,-148.98
9478,784.41,764.76,756.40,753.25,764.70,-47.36,-857.42,560.55,0.42,1.53,-3.21,-147.71
9513,784.57,764.60,756.32,753.20,764.67,-24.41,-858.89,523.93,-2.48,-1.48,0.92,-148.18
9550,784.68,764.50,756.27,753.16,764.65,1.95,-847.17,547.85,-4.72,3.05,1.92,-148.45
9585,784.38,764.29,756.30,752.99,764.49,-34.67,-864.26,568.85,-3.82,-1.87,0.09,-142.48
9620,784.24,764.22,756.21,753.00,764.42,-13.18,-877.44,543.95,0.13,0.02,-1.51,-143.85
9655,784.23,764.10,756.22,752.97,764.38,-33.20,-866.21,537.60,2.85,1.03,-1.16,-142.18
9689,784.14,764.04,756.26,752.92,764.34,-17.09,-851.56,579.10,-2.12,0.82,-1.77,-139.72
9725,784.04,763.94,756.28,752.90,764.29,-14.65,-867.19,538.09,1.65,-0.08,-0.25,-137.81
9762,784.04,763.79,756.20,752.88,764.23,-29.30,-874.51,555.18,3.62,-0.35,-0.31,-138.29
9797,784.02,763.56,756.28,752.82,764.17,-29.30,-866.70,544.92,1.46,1.44,1.82,-133.44
9832,784.08,763.47,756.21,752.78,764.14,-18.55,-862.30,538.57,-0.21,-0.08,0.16,-133.98
9867,784.15,763.34,756.20,752.77,764.12,-29.79,-865.23,543.46,-0.26,1.02,-0.61,-133.24
9901,784.20,763.24,756.23,752.70,764.09,-18.55,-877.44,542.48,-0.41,-1.68,-1.28,-131.02
9936,784.15,763.22,756.16,752.81,764.08,-23.44,-866.70,535.16,0.72,-0.97,-0.21,-133.98
9974,784.15,763.18,756.20,752.96,764.12,-31.74,-867.19,536.13,-1.88,-0.58,-2.02,-134.77
10009,784.11,763.22,756.20,752.94,764.12,-13.67,-873.05,539.55,0.15,1.75,0.23,-134.70
10043,784.33,763.26,756.17,753.03,764.20,-31.25,-852.54,542.97,0.59,1.24,-0.93,-137.83
10078,784.79,763.26,756.23,753.03,764.33,-16.60,-868.16,543.46,-0.27,-0.59,-0.97,-138.01
10113,785.62,763.31,756.25,753.04,764.56,-16.11,-863.28,546.39,0.52,-1.17,-1.19,-140.93
10151,786.66,763.48,756.13,753.04,764.83,-23.93,-864.26,539.06,0.63,0.98,0.79,-148.94
10186,787.43,763.64,756.11,753.07,765.06,-29.79,-874.02,550.29,1.44,0.62,-1.01,-153.68
10221,788.24,763.67,756.20,753.19,765.33,-15.63,-878.42,539.06,-1.33,1.00,0.44,-156.20
10255,788.81,763.69,756.17,753.11,765.45,-27.83,-865.23,550.78,0.16,0.66,0.16,-157.91
10290,789.26,763.63,756.21,753.06,765.54,-21.48,-871.09,532.23,1.56,-2.32,-0.59,-157.16
10325,789.57,763.45,756.17,752.98,765.54,-19.53,-855.96,547.36,0.79,-1.26,1.21,-156.87
10363,789.48,763.14,756.09,752.93,765.41,-27.34,-870.61,534.67,0.72,-1.17,-0.43,-155.13
10398,789.02,762.89,756.08,752.80,765.20,-29.79,-862.30,550.78,-0.45,-0.26,1.79,-149.76
10433,788.40,762.48,756.08,752.59,764.89,-26.86,-863.77,550.29,-0.93,0.07,0.52,-141.32
10468,786.91,761.71,755.98,752.10,764.18,-27.34,-854.49,554.20,-4.15,-0.02,-1.26,-125.26
10503,784.52,760.51,755.82,751.29,763.04,-25.39,-867.19,543.46,-3.06,-2.13,4.02,-99.64
10537,781.20,759.22,755.60,750.49,761.63,-17.09,-883.79,541.99,-7.99,-0.54,1.90,-71.61
10575,774.17,757.40,755.41,749.58,759.14,-21.00,-887.21,520.02,-20.08,-1.55,3.30,-24.31
10610,765.52,755.99,755.21,749.31,756.51,-61.04,-890.62,485.84,-28.46,-2.89,7.15,15.82
10645,757.35,754.74,755.10,749.46,754.16,-124.02,-911.13,570.31,-24.97,-22.89,11.12,48.78
10680,751.38,753.89,754.93,749.56,752.44,-275.88,-806.15,666.02,-35.58,-100.35,54.31,70.66
10715,747.81,753.48,754.92,749.96,751.54,-247.07,-890.62,638.18,-28.18,-200.43,96.91,79.75
10750,746.39,753.41,754.94,750.31,751.26,-119.63,-920.41,645.51,12.04,-250.14,114.19,80.47
10787,745.93,753.44,754.89,750.73,751.25,-111.33,-848.63,500.00,-25.04,-250.14,117.40,74.50
10822,745.68,753.47,754.87,751.07,751.27,-35.64,-827.15,500.98,-20.22,-248.78,117.46,69.59
10857,745.51,753.65,754.88,751.61,751.41,-12.21,-825.20,489.26,-4.65,-220.76,105.68,61.14
10891,745.45,754.25,755.02,752.24,751.74,-13.18,-875.49,361.82,-8.50,-180.69,92.65,50.89
10926,745.35,756.47,755.21,753.63,752.67,-37.11,-945.31,220.70,-8.36,-132.89,79.18,17.34
10964,746.22,761.98,755.67,755.23,754.78,11.72,-1241.70,31.25,-2.19,-53.87,37.78,-41.69
10999,752.43,767.82,755.96,757.29,758.38,-81.54,-1398.44,-44.92,52.71,74.02,-17.50,-132.93
11033,765.89,771.22,756.50,759.09,763.17,56.64,-771.00,667.48,31.14,-2.43,2.76,-219.58
11068,780.09,774.45,756.80,760.67,768.00,-32.23,-908.20,446.78,27.66,-4.94,-5.25,-309.87
11102,791.62,776.91,757.19,762.15,771.97,-40.04,-934.57,488.28,2.46,-2.42,-1.66,-381.20
11137,800.11,778.06,757.63,764.27,775.02,-35.64,-896.00,507.32,-0.74,-4.95,-3.85,-439.89
11174,804.98,779.07,758.08,765.86,777.00,-21.48,-884.77,544.92,1.52,-4.74,-1.06,-476.85
11209,804.27,780.08,758.54,766.39,777.32,-14.65,-858.89,517.58,-4.58,-0.57,-2.85,-478.76
11244,802.23,780.63,758.80,765.98,776.91,-15.14,-872.56,543.46,-6.63,1.50,-0.48,-463.73
11280,800.13,780.38,758.92,765.23,776.16,-16.11,-913.57,486.33,-0.79,-1.66,0.60,-440.64
11314,799.48,779.49,758.80,763.92,775.42,-0.49,-863.28,525.88,-0.42,-3.12,4.70,-414.97
11349,799.22,778.37,758.82,762.56,774.74,-23.44,-892.58,500.98,2.94,-5.55,2.17,-384.45
11387,801.06,776.96,758.55,760.59,774.29,-22.46,-889.16,503.42,9.40,-1.54,8.75,-357.08
11422,803.70,775.47,758.28,758.44,773.97,-12.70,-877.44,531.25,9.73,-6.82,4.06,-329.34
11456,806.72,773.83,757.98,756.44,773.74,-23.93,-871.09,508.30,4.51,-2.50,5.18,-304.75
11491,810.59,771.84,757.51,754.34,773.57,-21.48,-884.77,543.46,8.94,-8.18,4.53,-282.59
11526,814.78,769.51,757.00,750.86,773.04,-17.09,-873.05,540.04,6.40,-10.85,7.11,-239.74
11564,819.42,766.06,756.28,746.53,772.07,-23.93,-871.09,515.14,0.21,-18.60,15.14,-182.44
11599,823.75,762.94,755.69,743.84,771.55,5.86,-846.19,550.29,-3.85,-26.02,24.17,-147.30
11634,827.21,760.99,755.31,742.42,771.48,-106.93,-936.52,456.54,-20.68,-42.81,26.50,-132.09
11669,829.27,760.12,755.07,741.76,771.56,-320.80,-1055.66,242.68,-29.41,-86.17,61.11,-128.48
11704,829.94,759.77,755.03,741.95,771.67,-136.72,-1092.77,196.29,-33.71,-221.52,131.24,-131.80
11739,834.61,759.92,754.99,743.29,773.20,105.47,-908.69,491.70,-10.61,-231.43,128.62,-169.79
11777,841.45,761.83,755.18,746.59,776.26,344.73,-597.17,1044.92,16.53,-83.75,35.43,-252.47
11811,840.12,766.32,755.50,751.16,778.27,-31.25,-730.47,672.85,18.43,14.85,-15.91,-343.06
11846,830.40,774.17,756.33,757.41,779.58,-72.75,-836.91,580.08,21.73,31.65,-25.87,-444.00
11881,818.72,782.31,757.41,762.88,780.33,-75.68,-896.00,486.82,5.24,17.02,-17.85,-522.75
11916,809.03,788.44,758.32,766.20,780.49,-24.41,-884.28,498.05,4.69,5.98,-8.04,-564.84
11951,803.07,791.29,758.86,767.32,780.14,-16.11,-883.30,500.49,-2.30,4.36,-5.24,-570.50
11989,800.49,792.06,759.04,766.66,779.56,-23.93,-876.46,555.66,3.34,-1.03,-2.89,-553.47
12023,799.18,791.34,759.03,764.90,778.61,-14.16,-915.53,501.95,2.27,2.64,-1.37,-517.42
12058,797.42,790.28,759.02,763.13,777.46,-8.79,-868.16,508.30,-2.03,-0.90,-0.89,-477.22
12093,795.90,789.31,758.99,762.04,776.56,-14.16,-867.19,535.64,-1.84,-0.18,0.00,-449.01
12128,794.72,788.83,759.05,761.28,775.97,-26.37,-878.91,521.97,13.35,-1.47,0.02,-428.44
12165,792.94,788.56,759.18,761.22,775.47,-16.11,-840.82,548.34,11.36,-2.43,-0.78,-415.97
12200,789.75,788.73,759.39,761.68,774.89,-27.83,-860.84,528.81,10.89,0.56,-0.88,-407.96
12235,784.67,789.88,759.77,763.38,774.43,-32.23,-880.37,520.02,1.66,1.78,-3.06,-415.42
12270,777.34,792.19,760.67,767.15,774.34,-23.44,-890.62,523.44,-1.33,-0.25,-2.45,-441.69
12305,767.44,796.02,762.24,771.92,774.40,-19.04,-884.28,565.92,-8.34,-2.76,-4.41,-469.63
12340,758.19,800.00,764.10,776.32,774.65,-36.62,-898.93,516.11,-16.81,2.85,-13.00,-488.09
12377,751.25,803.11,766.33,779.22,774.98,-38.57,-877.44,570.31,-21.32,-0.83,-13.15,-476.45
12412,747.13,803.85,768.26,780.28,774.88,2.44,-882.32,571.78,-15.02,-13.55,-16.29,-435.73
12446,745.33,802.54,770.32,778.97,774.29,-43.95,-958.50,568.36,-27.81,-33.11,-18.68,-348.31
12481,744.58,798.28,772.26,775.64,772.69,-14.65,-981.93,538.09,-20.88,-42.58,-27.80,-214.47
12515,743.98,791.37,773.98,769.66,769.75,-31.25,-963.38,644.04,-18.96,-50.41,-42.35,-26.00
12550,743.47,782.12,775.04,761.64,765.57,82.52,-1002.44,508.79,-23.08,-50.55,-58.65,194.26
12588,743.22,771.63,774.76,752.46,760.52,120.12,-1040.04,400.39,-10.34,-37.13,-76.70,407.42
12622,743.13,764.58,772.49,743.77,755.99,151.86,-1210.45,245.61,12.92,-31.30,-100.60,535.71
12656,743.04,759.61,767.73,733.79,751.04,238.28,-1261.72,346.19,47.43,-10.60,-123.66,604.16
12691,742.91,755.84,762.21,725.19,746.53,281.25,-1318.85,320.80,75.18,2.28,-167.69,623.85
12726,742.83,753.67,757.32,718.31,743.03,337.40,-1602.05,339.36,84.47,27.61,-187.08,620.84
12763,742.66,752.97,754.81,716.24,741.67,16.60,-1462.40,423.34,222.82,-2.45,-165.67,594.93
12798,742.64,752.35,754.83,717.51,741.83,-184.08,-836.91,-11.23,-37.00,-37.18,76.29,581.79
12833,742.53,752.13,754.78,718.73,742.04,-230.47,-1007.81,434.08,43.67,-81.84,63.97,565.00
12867,742.62,751.94,754.67,719.94,742.29,-220.70,-612.30,284.67,-3.73,-108.91,59.88,545.55
12902,742.55,751.88,754.70,721.31,742.61,-231.45,-615.72,299.32,-25.03,-116.25,98.08,526.95
12937,742.70,751.84,754.73,722.69,742.99,-141.11,-533.69,312.99,-35.15,-99.18,132.42,507.12
12974,742.64,751.76,754.71,724.30,743.35,-81.54,-509.77,350.10,-26.04,-47.96,164.85,483.85
13009,742.61,751.75,754.76,725.69,743.70,-168.46,-628.91,389.16,-30.99,-8.76,191.30,464.76
13044,742.59,751.72,754.67,727.03,744.00,-82.03,-656.74,448.73,-34.73,5.79,200.92,443.08
13079,742.56,751.68,754.67,728.38,744.32,-48.34,-925.78,633.79,-44.62,30.13,190.42,423.75
13113,742.53,751.76,754.70,729.69,744.67,12.21,-1113.77,759.28,-0.78,73.28,194.27,404.66
13151,742.46,751.71,754.71,731.13,745.00,-4.39,-1159.18,759.28,9.66,107.32,147.88,384.44
13186,742.38,751.65,754.68,732.19,745.22,125.49,-1285.64,843.26,-22.61,110.08,78.29,368.88
13221,742.34,751.63,754.74,733.35,745.51,442.38,-1544.92,929.20,-40.95,153.41,113.33,353.48
13255,742.33,751.73,754.68,734.50,745.81,867.19,-1228.52,999.02,-18.20,161.11,110.92,334.28
13290,742.25,751.60,754.68,735.46,746.00,1055.66,-1101.56,858.40,-14.92,137.79,42.60,321.48
13325,742.36,751.86,754.68,736.28,746.30,1351.07,-305.18,-43.95,59.63,100.64,-15.99,306.99
13362,744.62,752.10,754.61,737.57,747.23,1999.94,-1536.13,650.88,-107.11,7.71,-175.60,276.52
13397,767.18,752.84,754.75,738.20,753.24,-1585.45,-1151.37,-291.02,12.11,-119.45,-157.08,187.44
13431,804.82,753.85,754.81,738.63,763.03,870.61,-2000.00,343.75,98.27,-31.22,-135.35,45.28
13466,821.30,758.15,755.03,739.69,768.54,1111.33,-1769.53,647.95,126.65,-137.26,-69.16,-55.73
13501,834.93,764.43,755.87,745.90,775.28,-84.47,-935.06,512.70,47.99,-26.47,-18.72,-223.40
13538,842.43,767.39,756.56,750.32,779.18,-62.01,-1138.67,483.40,16.96,-7.27,-8.46,-320.71
13573,841.86,768.79,756.76,751.91,779.83,-20.02,-864.75,513.67,-10.56,12.93,-2.30,-348.49
13608,836.11,769.69,756.85,752.72,778.84,20.02,-792.97,497.07,-9.67,10.02,-4.17,-345.61
13643,828.70,769.77,757.08,754.57,777.53,-24.41,-908.20,477.05,4.68,7.66,0.80,-342.39
13678,819.42,770.08,757.39,756.75,775.91,-26.37,-877.93,489.75,0.89,7.05,-3.14,-337.26
13712,810.97,771.15,757.71,758.71,774.63,-37.11,-858.40,533.69,0.56,12.69,-3.16,-337.81
13750,802.33,773.65,758.29,761.54,773.95,-30.76,-898.93,503.42,3.13,7.27,-4.07,-355.29
13784,795.70,776.90,759.13,765.63,774.34,-36.62,-915.04,468.26,3.52,3.74,-6.70,-398.05
13819,789.51,779.74,759.98,769.74,774.74,-17.09,-880.86,524.41,9.27,0.38,-6.27,-439.06
13854,782.55,782.40,761.09,773.77,774.95,-43.46,-902.83,523.44,2.52,4.12,-6.51,-468.01
13889,775.06,784.87,762.34,777.08,774.84,-15.14,-901.37,522.46,-1.54,4.25,-9.44,-479.65
13923,768.44,787.90,763.59,780.86,775.20,-2.93,-868.16,521.48,1.15,9.41,-12.21,-505.83
13961,762.30,791.41,765.27,784.96,775.98,-2.44,-919.92,516.11,-2.60,9.08,-15.05,-531.43
13996,756.73,793.53,766.75,788.51,776.38,-19.04,-931.64,502.44,8.75,9.50,-18.53,-544.70
14030,750.56,794.30,768.13,789.84,775.71,48.34,-945.31,495.61,22.10,1.78,-23.12,-514.82
14066,745.65,791.74,769.38,784.42,772.80,-81.54,-896.48,689.45,-38.15,-8.38,-23.23,-366.64
14100,744.28,783.47,770.78,772.37,767.72,-188.48,-1027.83,657.23,-58.21,-74.56,-64.05,-83.29
14135,743.74,771.21,770.75,755.33,760.26,-141.11,-1571.29,705.57,-64.60,-58.45,-131.37,266.93
14172,743.31,761.87,765.79,739.91,752.72,-250.49,-1774.41,553.22,-23.36,-75.70,-250.14,446.81
14207,743.06,757.65,759.40,730.22,747.58,515.14,-1367.19,431.15,-146.65,-16.66,-250.14,464.94
14242,743.03,754.52,755.15,724.01,744.18,423.34,-1979.98,272.46,-169.01,89.18,-250.14,475.60
14276,742.78,752.72,754.72,724.61,743.71,-509.28,-689.45,-321.78,21.10,74.38,-232.31,471.33
14310,742.78,752.34,754.69,725.78,743.90,-562.01,-5.37,-6.35,13.12,197.73,-11.22,456.53
14348,742.63,752.09,754.72,727.00,744.11,-739.26,-128.91,125.00,-44.29,135.24,57.72,441.75
14383,742.62,751.99,754.63,728.21,744.36,-570.31,-169.43,236.82,-57.21,37.09,87.42,422.58
14417,742.60,751.98,754.68,729.40,744.66,-475.59,-603.52,364.75,-96.65,14.52,184.85,406.51
14452,742.55,751.90,754.64,730.65,744.94,-285.64,-964.36,604.00,-63.72,34.09,250.13,387.94
14487,742.46,751.97,754.67,731.82,745.23,-94.73,-1103.03,780.76,-23.39,80.08,250.13,370.95
14522,742.48,752.15,754.63,732.83,745.52,-46.39,-1440.43,798.34,-8.00,86.59,226.02,353.57
14559,742.39,752.39,754.69,733.73,745.80,78.61,-1769.04,616.21,-23.21,8.67,211.41,340.28
14594,742.28,752.41,754.67,734.69,746.01,552.25,-1611.82,748.54,-84.61,-31.79,173.31,326.12
14629,742.28,752.07,754.63,735.76,746.19,780.27,-1722.66,767.09,-50.47,-41.99,116.95,311.98
14664,742.27,752.10,754.70,736.85,746.48,1187.01,-948.24,222.66,15.46,-6.78,72.24,297.35
14699,742.36,751.76,754.62,737.96,746.68,1034.67,-771.48,531.25,-43.47,108.38,84.25,281.52
14736,742.24,751.60,754.58,739.02,746.86,589.84,-868.65,595.70,17.37,92.17,34.22,266.53
14771,742.27,751.46,754.66,739.74,747.03,577.15,-688.96,407.71,57.60,35.82,-7.78,259.03
14806,744.49,751.51,754.67,740.70,747.84,700.20,-58.11,-468.26,145.69,-148.59,-181.66,236.97
14841,762.87,752.61,754.63,741.32,752.86,15.63,-1323.73,1163.57,76.23,-72.60,-181.87,155.12
14876,811.28,754.52,754.72,741.41,765.48,876.46,-1777.83,698.24,250.13,11.00,-151.26,-25.46
14910,825.67,758.85,754.99,741.78,770.32,150.88,-1005.37,798.34,142.11,-25.86,36.26,-108.27
14948,829.45,764.91,755.51,745.16,773.76,-24.41,-950.20,517.58,31.35,-21.14,-11.24,-206.62
14983,835.24,769.08,756.02,749.37,777.43,4.88,-848.14,646.00,5.25,-6.51,-5.14,-309.18
15018,837.26,771.78,756.36,752.35,779.44,-66.89,-889.65,473.63,-3.08,1.98,-2.79,-373.16
15053,831.52,774.43,756.68,755.66,779.57,-60.06,-914.06,444.82,-3.90,4.73,-4.25,-415.30
15088,823.01,775.95,757.39,760.10,779.11,-60.55,-929.20,458.01,-1.24,2.63,-3.25,-446.02
15123,815.22,776.70,757.94,763.30,778.29,-24.41,-898.44,501.46,-2.27,0.27,-1.73,-458.68
15160,809.11,777.00,758.29,764.93,777.33,-21.97,-896.00,492.19,2.85,5.67,-0.66,-455.41
15195,806.03,777.58,758.47,765.60,776.92,-41.99,-902.34,495.12,1.79,9.02,-0.23,-455.03
15230,803.79,778.72,758.67,767.07,777.06,-37.60,-909.18,458.50,1.73,2.14,-0.61,-473.04
15265,802.58,779.83,758.83,768.12,777.34,-40.53,-898.93,488.77,5.95,3.30,-2.58,-489.21
15300,802.09,780.56,759.00,768.85,777.62,-38.09,-886.72,499.02,10.69,3.69,-2.63,-499.89
15342,799.33,781.92,759.43,770.57,777.81,-49.32,-900.39,486.82,8.74,4.96,-2.53,-516.12
15377,794.60,783.28,759.85,771.77,777.37,-66.41,-939.94,452.15,16.60,-4.21,-3.67,-517.86
15412,789.01,784.47,760.41,773.25,776.78,-46.39,-896.48,489.75,6.35,3.83,-3.05,-516.00
15447,782.64,785.50,761.00,774.95,776.02,-26.37,-872.07,517.58,2.45,5.92,-6.90,-512.82
15482,775.51,786.37,761.85,777.40,775.28,-54.20,-948.73,476.56,11.76,-1.05,-8.53,-510.29
15517,768.20,787.49,762.94,780.44,774.77,-25.88,-940.43,561.04,4.96,6.92,-11.09,-511.77
15556,760.67,788.47,764.44,783.50,774.27,0.49,-900.88,501.46,30.38,9.79,-18.11,-501.38
15591,755.47,789.22,765.68,785.52,773.97,-3.42,-865.23,541.02,27.52,7.52,-16.06,-488.41
15626,751.27,789.86,767.11,786.48,773.68,-5.37,-843.26,559.08,24.36,0.44,-17.66,-457.55
15660,747.78,789.87,768.26,785.97,772.97,11.72,-819.82,602.54,10.81,-4.12,-12.64,-409.51
15695,745.43,788.97,769.08,782.72,771.55,3.42,-848.63,637.21,-7.92,-13.29,-11.21,-325.89
15729,744.52,785.14,769.37,776.32,768.84,-31.25,-953.61,606.45,-38.98,-25.68,-15.47,-190.66
15767,743.95,776.57,769.21,764.39,763.53,-32.23,-1091.31,671.39,-29.70,-49.47,-36.67,51.53
15802,743.56,766.65,767.65,749.17,756.76,33.20,-1199.71,660.64,-10.89,-44.54,-79.24,317.57
15836,743.23,759.89,764.35,733.82,750.32,13.18,-1025.39,565.92,-17.34,-49.68,-115.31,516.52
15872,743.00,756.15,760.78,724.93,746.22,8.79,-1144.04,462.40,-22.72,-56.40,-158.56,589.15
15906,742.81,754.69,757.14,720.12,743.69,341.80,-1276.37,508.79,-73.98,-17.24,-187.56,581.82
15944,742.80,753.99,754.98,718.26,742.51,300.78,-933.59,448.24,-62.00,6.88,-172.11,560.99
15979,742.84,753.33,754.71,719.31,742.55,-32.23,-564.45,452.64,-21.07,84.98,-72.55,544.02
16013,742.70,752.92,754.55,720.52,742.67,-398.44,-517.58,352.05,17.63,127.48,12.74,526.05
16048,742.80,752.68,754.66,721.78,742.98,-325.68,-305.66,385.74,12.67,102.80,36.21,511.80
16083,742.71,752.61,754.60,722.90,743.20,-278.32,-543.95,500.49,-18.73,74.43,80.74,494.60
16118,742.68,752.52,754.58,724.11,743.47,-53.22,-656.25,715.33,-24.47,59.75,104.76,476.99
16156,742.60,752.54,754.60,725.42,743.79,126.46,-892.09,852.05,-9.82,43.24,121.85,458.51
16191,742.48,752.53,754.60,726.45,744.01,265.14,-1035.16,764.65,2.85,-0.92,129.69,443.85
16226,742.54,752.39,754.56,727.56,744.26,359.37,-1168.46,584.47,8.60,-61.85,119.64,427.44
16261,742.52,752.29,754.50,728.78,744.52,421.39,-1107.91,447.75,3.15,-85.88,106.24,408.69
16296,742.47,752.15,754.55,729.99,744.79,475.59,-1108.89,390.14,9.93,-77.29,80.38,393.45
16331,742.57,752.14,754.50,731.29,745.12,561.04,-856.45,348.14,0.31,-37.98,40.92,372.97
16369,742.48,752.06,754.57,732.65,745.44,451.66,-924.32,363.28,-19.34,6.68,14.91,355.60
16403,742.45,751.82,754.50,733.81,745.65,325.20,-864.75,336.43,-22.94,27.56,7.89,338.85
16438,742.42,751.80,754.44,734.90,745.89,193.36,-923.83,314.45,-19.92,26.98,5.47,321.64
16473,742.44,751.82,754.59,735.98,746.21,104.00,-831.05,311.04,-28.46,4.07,-0.21,309.12
16508,742.49,751.84,754.48,737.03,746.46,47.36,-805.18,334.96,-47.53,-17.56,3.01,290.65
16546,742.45,751.69,754.50,738.13,746.69,24.41,-891.11,446.29,-43.53,-47.92,-0.35,276.24
16581,742.45,751.82,754.54,739.04,746.96,-18.55,-888.67,430.66,-31.37,-65.05,16.11,263.00
16616,742.46,751.85,754.55,739.94,747.20,-6.84,-881.35,324.22,-19.64,-84.74,25.27,249.72
16650,742.48,753.64,754.69,741.99,748.20,1999.94,-2000.00,-448.24,-209.89,-250.14,73.21,208.59
16685,742.71,759.08,755.54,746.77,751.03,80.57,-966.31,935.55,-71.22,86.18,82.26,114.80
16720,745.76,771.43,756.60,752.58,756.59,-1916.02,-1758.79,1967.29,127.27,-67.37,-1.66,-53.82
16758,769.81,774.98,757.03,755.47,764.32,-201.17,-2000.00,1018.55,134.90,18.60,16.27,-196.56
16793,783.67,775.17,757.19,756.46,768.12,-282.23,-669.43,736.33,12.31,-4.40,0.45,-256.31
16828,795.02,776.27,757.25,756.63,771.29,-39.55,-877.44,550.78,-9.09,3.90,-0.28,-304.94
16863,801.99,776.61,757.24,756.58,773.10,-13.67,-867.68,555.66,-0.15,-2.20,-3.54,-331.14
16898,807.29,776.65,757.15,756.01,774.28,-18.55,-872.07,573.73,-1.31,0.38,-1.13,-343.59
16933,808.03,776.95,757.13,755.40,774.38,-22.95,-859.37,579.10,-3.55,0.37,-0.88,-339.95
16970,806.51,777.76,757.23,755.37,774.22,-26.86,-855.96,573.73,-4.24,5.48,-2.86,-338.36
17005,805.37,779.34,757.45,755.90,774.51,-13.67,-864.26,566.41,-6.08,2.35,-3.88,-349.28
17040,803.70,781.76,757.78,756.91,775.04,-14.16,-844.73,581.05,-4.35,1.96,-1.97,-369.77
17075,802.29,784.20,758.00,757.87,775.59,-23.93,-866.70,556.15,-0.79,0.02,-3.95,-393.23
17110,800.22,785.92,758.29,758.16,775.65,-18.55,-846.19,562.50,-5.01,0.46,-1.17,-396.99
17147,797.83,787.71,758.62,758.75,775.72,-28.32,-839.84,571.29,-4.08,4.18,-4.52,-403.53
17182,794.59,789.28,759.00,758.76,775.41,-24.90,-860.84,559.08,-2.45,2.63,-6.52,-395.59
17217,791.23,789.72,759.13,758.28,774.59,-18.55,-856.45,563.96,-1.02,3.74,-4.21,-377.37
17252,788.15,789.44,759.16,757.28,773.51,-18.55,-867.68,568.85,-0.92,5.40,-3.82,-349.23
17286,785.86,788.61,759.12,756.25,772.46,-12.70,-866.70,565.92,3.37,1.65,0.02,-320.34
17321,785.63,787.08,758.90,754.31,771.48,-18.07,-848.63,579.59,1.63,0.72,0.36,-284.29
17359,785.42,783.62,758.26,750.66,769.49,-31.25,-856.93,551.76,0.29,1.04,1.07,-217.98
17394,783.10,779.03,757.56,747.45,766.79,-14.16,-875.98,562.50,-12.00,2.74,1.84,-143.34
17428,778.54,774.50,756.88,744.35,763.57,-20.02,-858.89,593.75,-11.02,4.02,4.57,-62.72
17463,771.99,769.83,756.01,740.20,759.51,-16.60,-831.54,564.94,-19.15,6.50,2.33,36.46
17497,761.92,764.31,755.18,738.78,755.05,-23.93,-808.11,553.71,-68.66,10.66,12.02,115.64
17532,751.89,758.60,754.78,739.04,751.08,-67.38,-946.78,399.41,-62.02,6.79,18.20,182.23
17569,746.32,754.94,754.72,740.53,749.13,345.21,-814.94,667.97,-0.18,-18.80,-5.98,207.19
17604,744.84,755.71,754.92,742.98,749.61,-907.71,-705.08,196.29,-16.19,17.24,-27.95,174.99
17639,744.84,757.76,755.06,744.02,750.42,285.64,-673.34,426.76,-21.37,-2.54,-22.00,146.80
17674,744.54,758.11,755.03,744.61,750.57,124.02,-656.25,470.21,-11.77,17.47,48.05,135.41
17709,745.47,758.00,754.89,744.99,750.84,-79.59,-946.78,257.81,48.62,-15.10,6.45,123.97
17744,752.44,758.53,755.12,746.96,753.26,-86.43,-821.29,579.10,91.18,-11.28,0.92,72.75
17782,766.17,761.58,755.53,750.92,758.55,72.75,-765.14,689.45,66.03,-12.12,-7.24,-47.19
17817,771.24,763.74,755.98,754.17,761.28,-4.88,-835.94,576.66,9.15,0.45,-4.60,-118.36
17852,771.60,766.93,756.48,757.91,763.23,-12.21,-867.19,547.36,5.67,3.44,-9.33,-187.70
17887,769.76,769.81,757.05,761.27,764.47,-28.81,-875.49,518.55,3.27,0.57,-4.05,-239.75
17922,769.05,772.09,757.55,763.68,765.59,-22.46,-857.42,554.69,4.21,-0.15,-6.01,-278.68
17959,767.94,774.33,757.99,764.90,766.29,-26.37,-863.28,566.89,-0.87,1.93,-3.75,-299.97
17994,766.63,776.30,758.41,765.17,766.63,-20.02,-847.66,560.55,-3.24,4.16,-2.79,-304.67
18029,765.76,777.81,758.77,764.30,766.66,-14.65,-844.24,585.45,-1.70,0.06,-1.04,-292.04
18064,765.09,778.82,758.96,763.43,766.58,-28.81,-880.37,538.09,-2.74,2.84,-3.61,-280.26
18099,764.74,779.16,758.99,761.92,766.20,-30.27,-853.52,556.64,1.14,1.06,-0.69,-258.86
18134,765.69,778.47,758.82,759.27,765.56,-20.51,-865.72,554.20,2.17,-3.46,0.50,-221.65
18172,769.30,775.47,757.92,753.39,764.02,-0.49,-846.19,555.66,21.89,-7.05,6.85,-145.95
18207,778.39,770.74,756.55,745.29,762.74,10.74,-866.21,565.92,18.11,-10.21,7.72,-54.28
18242,792.28,764.48,755.39,739.21,762.84,20.51,-865.72,546.39,-6.93,-7.22,20.72,8.93
18276,807.36,759.18,754.93,738.03,764.87,-3.42,-874.51,654.79,-20.40,-0.44,38.93,5.68
18311,812.55,757.46,754.87,738.83,765.93,-125.98,-770.02,634.28,-29.53,-9.17,48.18,-11.56
18346,808.96,757.20,754.82,739.89,765.22,-150.39,-767.09,479.49,2.75,-19.73,-10.65,-14.21
18384,803.85,757.62,754.81,741.66,764.49,3.91,-914.06,573.24,41.99,-24.30,-43.50,-26.35
18419,798.16,760.05,755.15,745.53,764.72,-202.64,-926.27,454.10,-1.39,10.34,-19.28,-74.74
18454,788.36,764.42,755.88,751.24,764.97,-85.94,-891.11,538.57,-2.24,12.46,-20.77,-142.00
18489,778.53,768.67,756.62,755.79,764.90,-30.27,-844.24,568.85,-7.25,10.22,-9.63,-190.71
18524,771.01,771.88,757.31,758.37,764.64,-22.46,-857.42,568.85,-7.83,8.01,-8.76,-211.56
18558,766.07,774.49,757.98,760.27,764.70,-27.83,-868.65,566.41,-9.20,3.21,-5.31,-226.84
18596,763.25,776.53,758.46,761.31,764.89,-25.39,-863.28,538.09,-3.68,3.06,-5.76,-237.03
18631,761.38,777.87,758.96,761.52,764.93,-32.23,-867.68,549.80,-0.44,-0.36,-4.62,-231.96
18667,759.73,778.59,759.15,761.22,764.67,-26.37,-863.28,562.50,-4.02,4.60,-6.02,-222.82
18702,758.51,778.60,759.29,760.37,764.19,-23.44,-870.12,548.34,-0.66,1.69,-1.35,-202.66
18737,757.91,778.57,759.29,759.36,763.78,-21.48,-871.09,556.15,-1.47,-0.92,-0.93,-185.60
18774,757.81,778.48,759.14,758.34,763.45,-23.93,-863.28,547.85,-1.72,-0.46,1.66,-173.13
18809,758.00,778.13,759.08,757.14,763.09,-22.46,-863.28,543.46,1.31,2.55,-3.78,-154.98
18843,758.38,777.59,758.91,755.86,762.68,-23.44,-857.42,551.27,0.05,0.56,0.89,-137.24
18878,758.87,777.01,758.74,754.78,762.35,-12.70,-863.77,557.13,1.97,-0.79,1.92,-122.57
18913,759.44,776.51,758.54,753.76,762.06,-27.34,-862.79,554.69,1.94,1.51,-1.79,-110.39
18947,760.24,775.84,758.44,753.03,761.89,-32.71,-871.09,551.27,2.75,0.61,-0.08,-99.52
18985,761.21,775.20,758.31,752.50,761.80,-23.44,-854.98,539.55,2.10,1.07,0.35,-93.18
19020,761.95,774.33,758.16,752.10,761.64,-14.16,-868.65,552.25,0.45,-0.81,-0.79,-86.61
19054,762.48,773.09,758.01,751.70,761.32,-25.88,-835.94,559.57,3.76,0.67,0.19,-76.49
19089,763.34,771.78,757.87,751.23,761.06,-21.48,-842.29,571.29,0.95,3.08,1.82,-65.47
19124,764.29,770.75,757.74,750.82,760.90,-30.76,-870.12,556.15,1.86,0.66,-2.55,-57.74
19159,765.12,769.89,757.53,750.06,760.65,-22.46,-844.24,549.80,-0.89,0.39,-0.95,-47.46
19196,766.10,769.19,757.38,749.33,760.50,-36.13,-865.23,534.18,-1.02,1.82,0.98,-38.45
19231,767.11,768.58,757.17,748.68,760.39,-11.23,-841.80,577.64,-2.25,2.98,-2.72,-32.48
19266,768.32,768.07,756.94,748.21,760.39,-28.81,-868.16,558.11,-0.24,1.54,-0.31,-31.44
19301,769.52,767.80,756.82,748.33,760.62,-31.74,-849.12,542.48,0.25,1.98,0.15,-38.19
19336,770.20,767.72,756.79,748.73,760.86,-21.00,-867.68,550.29,0.61,2.00,0.02,-46.60
19371,770.81,767.48,756.73,748.92,760.99,-20.02,-850.10,578.12,-0.28,-3.22,0.01,-50.97
19409,772.59,766.97,756.49,747.90,760.99,-24.90,-855.47,558.59,4.89,-1.09,2.16,-44.02
19444,778.05,765.59,755.90,745.65,761.30,-28.81,-849.12,564.45,9.54,-3.49,3.11,-33.31
19479,786.21,763.26,755.31,743.79,762.14,13.67,-827.64,623.05,-1.32,-3.43,9.33,-29.64
19514,793.50,760.91,755.08,743.24,763.18,-64.94,-867.19,534.18,-14.66,2.59,10.14,-33.65
19549,798.62,759.61,754.99,743.82,764.26,-77.15,-847.17,572.27,-16.66,6.00,7.99,-51.57
19584,801.84,758.89,754.89,744.75,765.09,-3.91,-906.74,562.01,-29.53,2.81,18.76,-72.90
19622,803.93,758.43,754.95,745.72,765.76,-85.94,-830.57,526.37,-9.53,1.24,22.31,-89.22
19657,802.36,758.42,754.95,746.77,765.63,-129.88,-787.11,557.13,21.47,-6.84,-10.71,-99.19
19692,798.37,759.14,754.98,748.65,765.29,36.62,-1045.90,574.22,41.37,-9.98,-28.80,-118.06
19727,791.59,760.32,755.41,751.37,764.67,-22.46,-870.12,539.55,5.17,2.78,-18.41,-133.70
19762,785.64,761.26,755.65,753.37,763.98,-37.60,-865.23,568.85,-2.82,6.39,-9.06,-144.30
19797,781.82,761.59,755.80,754.30,763.38,-23.93,-846.19,556.64,-5.18,3.96,-3.30,-143.73
19835,779.28,761.90,755.88,754.70,762.94,-20.51,-848.63,564.94,-6.22,2.46,-3.47,-141.49
19870,778.04,761.90,755.94,754.49,762.59,-35.16,-863.77,546.39,-1.95,3.80,-2.27,-132.64
19905,777.40,761.72,755.96,754.21,762.32,-30.76,-871.09,550.78,-3.90,-1.58,0.31,-124.34
19940,777.08,761.69,755.89,753.86,762.13,-15.14,-858.40,559.08,-2.43,0.37,-1.75,-119.50
19975,777.03,761.80,755.92,753.98,762.18,-27.83,-862.79,564.45,-0.61,0.47,-0.60,-121.44
20013,776.58,762.14,755.96,754.06,762.18,-24.41,-848.63,553.71,-1.76,1.11,-2.22,-122.64
20048,776.43,762.55,756.07,754.28,762.33,-26.86,-872.56,559.57,2.50,1.47,-2.44,-125.99
20083,776.30,762.95,756.12,754.37,762.44,-22.95,-870.61,549.32,0.71,0.81,-0.08,-128.97
20118,776.24,763.44,756.11,754.49,762.57,-19.53,-875.00,554.20,-0.37,-0.30,-2.90,-134.56
20153,776.18,763.52,756.13,754.20,762.51,-32.71,-860.35,563.96,2.12,1.37,-0.63,-130.32
20188,775.95,763.70,756.15,753.87,762.41,-25.39,-857.42,547.36,-3.67,-0.44,-1.43,-125.59
20226,775.95,763.56,756.08,753.49,762.27,-23.44,-870.12,543.95,1.37,1.89,0.21,-120.40
20261,776.57,763.40,756.09,753.13,762.30,-37.11,-863.28,553.71,-2.14,1.96,-2.08,-115.91
20296,777.73,763.39,756.00,752.86,762.50,-29.79,-856.93,565.92,1.11,1.11,0.65,-118.10
20331,779.26,763.36,755.98,752.72,762.83,-35.64,-870.12,556.15,0.56,1.02,-0.60,-121.41
20366,780.19,763.36,755.98,752.64,763.04,-40.04,-846.68,557.13,0.50,-0.50,-1.95,-123.44
20401,780.46,763.31,755.97,752.39,763.03,-29.79,-862.79,559.57,-0.53,3.19,-0.62,-120.54
20439,780.44,763.33,755.93,752.35,763.01,-35.16,-850.59,560.06,-1.36,0.30,-0.03,-121.08
20473,780.45,763.30,755.94,752.40,763.02,-34.18,-860.84,552.25,-0.80,-1.86,0.50,-121.43
20508,780.60,763.24,755.92,752.38,763.03,-31.74,-859.37,549.80,-2.37,1.50,-1.86,-121.45
20544,781.20,763.24,755.87,752.37,763.17,-34.67,-864.26,561.04,-0.08,1.04,-0.82,-124.72
20579,781.43,763.29,755.90,752.66,763.32,-27.83,-863.28,544.92,-0.58,0.53,1.15,-129.38
20613,781.34,763.62,755.93,753.01,763.48,-34.67,-866.21,553.22,-0.18,-0.92,-2.33,-136.33
20651,780.65,763.85,755.99,753.22,763.43,-32.71,-849.12,550.29,0.20,2.09,-0.61,-137.23
20686,780.16,764.31,756.01,753.43,763.48,-30.27,-869.63,541.99,-1.18,1.73,0.63,-141.77
20721,779.96,764.58,755.97,753.57,763.52,-27.34,-856.45,553.22,-4.12,-0.08,-2.84,-146.35
20756,779.56,765.17,756.05,753.60,763.60,-31.74,-857.91,552.73,-1.05,0.69,-0.89,-148.16
20790,779.83,765.49,756.06,753.50,763.72,-34.18,-863.77,552.73,-1.64,3.41,-0.53,-150.08
20828,780.46,765.47,756.08,753.39,763.85,-33.20,-870.12,547.85,-2.18,3.34,0.53,-149.99
20863,781.06,765.36,756.10,753.22,763.93,-30.27,-870.12,548.83,-0.06,0.72,-0.63,-148.07
20898,781.42,765.13,756.06,753.26,763.96,-41.99,-912.60,496.58,0.73,0.49,0.31,-149.05
20933,781.53,764.95,756.05,753.19,763.93,-27.83,-861.33,548.83,-0.73,-0.91,0.92,-147.28
20968,781.70,764.69,756.04,753.17,763.90,-32.23,-863.28,558.59,0.92,-1.53,0.42,-145.64
21003,782.12,764.27,756.01,753.05,763.86,-20.02,-861.82,545.90,0.78,-0.19,1.44,-142.69
21041,782.23,764.02,755.95,752.89,763.77,-26.86,-865.23,563.48,-0.44,0.31,-1.57,-140.31
21076,782.23,763.79,755.96,752.79,763.69,-29.30,-872.07,546.87,-1.90,0.34,-0.73,-136.80
21111,782.53,763.76,755.94,752.70,763.73,-34.18,-867.68,547.85,-1.78,2.22,-0.27,-136.49
21146,782.68,763.75,755.92,752.66,763.75,-35.64,-853.03,546.87,-0.29,4.58,0.21,-136.99
21181,782.74,763.77,755.91,752.76,763.80,-22.46,-857.91,548.34,-1.12,0.07,0.26,-138.90
21216,782.70,763.90,755.94,752.93,763.87,-28.32,-867.19,548.34,-0.71,0.49,-1.78,-141.84
21254,782.20,764.07,755.92,753.05,763.81,-33.69,-870.61,553.22,-1.32,2.14,0.32,-143.49
21289,781.79,764.15,755.92,753.13,763.75,-30.76,-863.28,560.55,0.05,1.36,-1.18,-143.94
21324,781.42,764.15,755.93,753.23,763.68,-39.06,-849.12,546.87,0.32,-0.84,0.05,-144.03
21359,781.26,764.12,755.97,753.20,763.64,-34.18,-850.10,556.64,-1.10,1.47,-1.33,-141.92
21394,781.42,764.19,756.00,753.24,763.71,-33.69,-870.12,544.43,-0.92,1.17,1.13,-142.75
21429,781.68,764.13,755.93,753.20,763.73,-29.79,-858.89,560.06,0.24,-1.15,-0.22,-144.24
21467,781.93,763.99,755.92,753.04,763.72,-40.04,-853.52,546.39,-0.63,4.42,-0.11,-141.77
21502,782.11,763.86,755.90,752.98,763.71,-22.95,-864.26,553.71,1.96,-0.78,-3.05,-141.01
21536,782.52,763.69,755.89,752.87,763.74,-34.18,-860.35,559.08,-0.14,-1.47,-1.34,-139.60
21571,782.82,763.51,755.93,752.81,763.77,-32.71,-856.45,549.32,-1.17,2.56,0.96,-137.59
21606,783.23,763.32,755.87,752.68,763.77,-36.62,-858.40,550.29,1.17,0.35,-0.41,-136.80
21641,783.62,763.12,755.84,752.62,763.80,-42.97,-859.37,557.62,-0.58,0.35,0.03,-136.60
21678,784.03,762.92,755.79,752.51,763.81,-36.13,-860.84,546.87,-1.23,-0.54,-0.30,-135.99
21713,784.20,762.73,755.79,752.51,763.81,-20.02,-864.26,543.95,0.42,-1.73,-0.18,-134.88
21748,784.29,762.59,755.87,752.54,763.82,-38.57,-862.79,550.78,-0.21,-0.71,0.64,-132.63
21783,784.31,762.60,755.81,752.62,763.84,-31.74,-854.98,553.22,-1.02,-1.08,-0.87,-135.46
21818,784.11,762.58,755.73,752.70,763.78,-28.32,-869.14,555.66,-2.57,-0.69,2.84,-137.77
21856,784.08,762.65,755.73,752.67,763.78,-33.20,-858.89,548.83,-1.09,3.41,-1.32,-137.89
21890,784.16,762.62,755.70,752.65,763.78,-35.64,-866.21,558.59,-1.01,1.70,-1.49,-138.24
21925,784.28,762.66,755.72,752.65,763.83,-36.62,-857.42,555.18,-1.35,0.70,-1.99,-138.56
21960,784.45,762.59,755.75,752.65,763.86,-40.04,-859.37,543.95,-1.08,-0.29,-1.36,-137.99
21995,784.57,762.60,755.80,752.69,763.92,-25.39,-873.05,535.16,-0.91,1.64,-0.32,-137.61
22030,784.61,762.60,755.83,752.83,763.97,-47.85,-864.75,562.99,-2.80,1.25,-0.41,-139.01
22067,784.43,762.69,755.79,752.87,763.94,-30.27,-863.28,548.34,0.11,-0.76,-0.98,-140.81
22102,784.37,762.81,755.82,753.01,764.00,-41.99,-866.70,557.13,1.05,1.36,-0.90,-142.93
22136,784.28,762.83,755.79,753.12,764.01,-29.30,-858.89,537.60,1.05,-0.50,-2.05,-145.02
22171,784.23,763.17,755.81,753.27,764.12,-29.30,-867.19,554.20,0.11,-0.54,0.58,-149.47
22206,783.52,763.24,755.87,753.34,763.99,-24.41,-842.77,544.43,-1.69,-1.92,-0.26,-146.96
22240,783.13,763.44,755.81,753.51,763.97,-26.86,-869.63,554.69,-1.56,-0.63,-1.40,-151.34
22278,782.90,763.55,755.86,753.60,763.98,-41.99,-862.79,546.39,-0.89,2.50,1.63,-151.42
22312,782.41,763.55,755.81,753.56,763.83,-30.27,-866.21,546.39,-0.13,-0.27,-0.57,-150.52
22347,782.34,763.66,755.81,753.50,763.83,-14.16,-876.46,547.85,-1.60,-0.53,-2.80,-150.30
22381,782.24,763.75,755.92,753.58,763.87,-32.23,-864.75,554.69,1.33,0.82,-2.00,-149.03
22417,782.08,763.85,755.97,753.53,763.86,-23.93,-878.91,546.87,-1.56,0.88,-2.82,-147.20
22451,781.82,763.97,755.89,753.60,763.82,-32.71,-865.23,552.73,0.27,1.08,1.45,-150.44
22488,781.54,763.95,755.94,753.71,763.78,-29.30,-854.00,551.76,1.35,2.30,-0.21,-149.52
22524,781.43,764.14,755.90,753.69,763.79,-31.74,-860.35,556.15,-0.32,-4.45,1.47,-151.58
22558,781.39,764.15,755.93,753.70,763.79,-42.97,-867.19,555.66,-0.11,-1.46,0.52,-150.86
22593,781.35,764.24,755.94,753.74,763.82,-31.25,-868.16,556.64,-0.53,-1.33,-0.79,-151.67
22628,781.28,764.29,755.93,753.60,763.77,-25.88,-861.33,548.83,-0.74,-0.54,-1.34,-150.16
22666,781.33,764.48,755.97,753.56,763.83,-34.18,-857.91,547.36,-0.90,-0.92,-0.38,-150.18
22701,781.35,764.45,755.96,753.46,763.81,-40.04,-855.47,542.97,0.95,2.11,-2.34,-148.88
22735,781.47,764.46,755.90,753.49,763.83,-24.41,-858.89,544.92,1.88,0.30,0.56,-151.21
22770,781.59,764.50,755.95,753.38,763.86,-35.64,-874.02,549.80,0.28,0.67,1.91,-149.21
22805,781.63,764.42,755.97,753.34,763.84,-41.50,-871.09,544.43,-0.96,-0.03,-2.05,-147.37
22840,781.54,764.50,756.00,753.39,763.86,-29.79,-866.70,546.87,-0.85,0.85,-1.88,-147.74
22878,781.24,764.56,755.90,753.38,763.77,-30.27,-864.26,551.27,-1.82,1.08,-0.49,-149.64
22913,781.18,764.46,755.91,753.43,763.75,-20.51,-853.52,561.04,-0.45,1.76,-0.59,-148.96
22948,781.11,764.46,755.90,753.33,763.70,-40.04,-866.70,569.34,0.14,0.03,0.87,-147.75
22982,781.18,764.40,755.95,753.38,763.73,-22.46,-861.33,547.85,-1.01,2.13,0.27,-146.77
23017,781.18,764.38,755.95,753.22,763.69,-38.57,-866.70,554.20,-0.03,-0.26,0.58,-144.29
23052,781.24,764.28,755.92,753.23,763.67,-41.99,-863.77,551.27,0.25,1.01,-1.90,-144.59
23090,781.62,764.17,755.93,753.10,763.71,-38.57,-864.75,555.66,0.11,-0.60,0.86,-142.89
23125,781.80,764.05,755.87,753.10,763.70,-27.34,-861.33,556.64,-1.17,1.34,0.43,-144.10
23160,782.05,763.96,755.93,752.99,763.73,-39.55,-859.86,561.04,-2.41,1.08,-0.50,-141.05
23195,782.26,763.83,755.86,752.89,763.71,-34.18,-859.86,544.43,0.98,0.44,-0.57,-140.94
23229,782.40,763.74,755.92,752.86,763.73,-22.46,-869.14,550.29,0.82,0.54,1.31,-138.94
23264,782.47,763.73,755.88,752.83,763.73,-25.39,-861.33,558.11,0.59,-1.49,-1.49,-139.74
23302,782.57,763.65,755.86,752.94,763.76,-44.92,-850.59,564.94,-0.28,-0.21,0.09,-141.36
23337,782.54,763.67,755.89,752.93,763.76,-29.79,-853.52,552.73,-1.43,-0.76,-0.62,-140.41
23373,782.44,763.63,755.88,753.02,763.74,-40.53,-859.86,557.62,-0.91,1.06,2.60,-141.60
23408,782.40,763.64,755.88,753.05,763.74,-25.88,-865.23,562.50,-3.50,1.14,-2.92,-141.69
23442,782.51,763.77,755.88,753.14,763.83,-26.37,-864.26,537.60,2.20,0.18,0.43,-144.67
23477,782.36,763.97,755.87,753.29,763.88,-31.74,-854.98,544.92,0.34,-0.84,-2.82,-148.17
23515,782.02,764.09,755.92,753.49,763.88,-24.90,-866.21,557.62,-1.75,0.22,0.69,-149.65
23550,781.75,764.19,755.94,753.49,763.84,-35.16,-878.42,541.99,0.04,1.21,-1.67,-149.03
23585,781.52,764.12,755.91,753.54,763.78,-39.06,-857.42,558.59,-1.36,0.89,-0.39,-149.15
23620,781.39,764.27,755.98,753.58,763.80,-22.95,-874.51,548.83,-0.98,1.59,-1.09,-148.63
23655,781.22,764.43,755.93,753.51,763.78,-28.32,-862.30,552.25,-2.60,2.37,-1.23,-149.69
23693,780.60,764.45,756.00,753.59,763.66,-28.81,-865.72,555.66,0.15,-0.27,-3.37,-147.16
23728,780.21,764.66,755.99,753.70,763.64,-32.71,-853.52,554.69,0.35,-0.74,-0.69,-149.38
23763,779.76,765.08,755.99,753.70,763.63,-24.41,-854.49,551.76,-0.67,-1.30,-0.24,-151.33
23797,779.36,765.42,756.06,753.76,763.65,-29.79,-869.63,568.36,-0.48,0.84,-0.50,-151.68
23832,779.06,765.66,756.00,753.71,763.61,-37.11,-869.63,546.39,1.53,1.78,-0.88,-153.15
23867,778.45,765.85,756.08,753.62,763.50,-21.48,-854.98,547.85,-3.48,0.94,-1.27,-149.36
23905,778.32,766.25,756.05,753.36,763.50,-28.32,-871.09,552.73,-2.66,0.11,-1.54,-149.10
23940,778.83,766.44,755.98,753.11,763.59,-36.62,-872.07,560.06,-0.13,-0.68,-2.31,-150.53
23975,779.56,766.59,755.97,752.81,763.73,-34.18,-869.14,539.55,-2.87,4.01,-1.21,-149.97
24009,779.92,766.63,755.91,752.40,763.72,-44.92,-871.09,532.23,-8.28,3.00,-0.76,-146.94
24044,780.27,766.97,755.95,751.97,763.79,-56.64,-879.88,524.41,-12.06,4.89,-3.85,-143.55
24079,779.60,767.23,755.95,751.83,763.65,-49.80,-886.72,543.95,-2.60,2.60,-3.21,-141.32
24116,779.69,767.66,755.89,751.89,763.78,-25.39,-844.73,560.06,-1.95,4.08,-0.63,-147.44
24151,780.87,768.41,755.83,751.98,764.28,-27.34,-875.98,516.11,-0.88,1.47,-1.44,-160.31
24186,780.12,769.11,755.91,752.21,764.34,-24.90,-884.28,569.34,-1.00,-0.02,-5.38,-164.83
24221,779.87,769.80,755.95,752.54,764.54,-0.49,-851.56,557.62,13.83,-2.47,-1.69,-173.48
24256,779.91,770.56,755.99,752.44,764.72,29.79,-854.49,587.89,-1.62,3.08,-3.77,-177.16
24292,778.08,770.74,756.03,752.54,764.35,-45.41,-842.29,524.41,3.62,2.57,-4.10,-172.77
24330,778.19,771.01,756.00,752.55,764.44,-20.02,-882.32,557.13,2.05,-0.06,-0.94,-176.17
24365,777.84,770.63,755.97,752.39,764.21,-15.63,-861.33,509.77,6.56,-0.60,-3.11,-170.35
24400,778.05,771.03,755.97,752.48,764.38,-20.02,-860.84,548.83,10.85,0.42,-3.97,-175.42
24435,778.51,770.91,755.92,752.66,764.50,-51.76,-885.74,470.21,-2.08,-1.77,-0.40,-180.09
24470,778.39,770.97,756.02,752.96,764.58,-20.02,-848.14,573.73,8.02,-0.36,-1.74,-182.00
24508,777.81,771.64,756.15,753.14,764.68,-27.83,-878.42,545.41,8.89,2.38,-4.31,-184.90
24543,777.04,772.54,756.20,752.91,764.67,-3.42,-828.61,582.03,4.08,-1.63,-4.37,-184.96
24578,777.56,773.95,756.20,752.63,765.09,-33.69,-882.81,542.48,4.11,1.12,-3.82,-193.74
24613,778.62,774.56,756.22,752.05,765.36,-17.09,-854.00,577.15,-0.90,-1.44,-1.92,-193.42
24648,779.89,774.94,756.16,751.94,765.73,-28.81,-823.24,573.24,0.44,-0.21,-3.49,-200.54
24683,781.52,775.60,756.25,751.69,766.26,-14.16,-873.54,558.11,0.68,2.42,-3.12,-205.44
24721,782.25,775.09,756.05,751.03,766.11,-0.49,-846.68,567.87,0.47,-0.72,-1.09,-199.29
24755,782.40,774.12,755.94,750.90,765.84,-11.72,-853.03,575.20,0.09,-4.15,4.37,-192.69
24790,782.86,773.25,755.95,751.19,765.81,-26.86,-870.61,545.41,1.30,-0.09,0.34,-191.48
24825,782.81,773.00,755.88,751.67,765.84,-18.55,-859.86,568.85,1.51,-1.13,-0.47,-198.05
24860,782.84,773.36,756.00,752.57,766.20,-22.46,-860.35,567.87,3.14,-1.12,-1.38,-211.29
24895,782.33,774.06,756.03,753.34,766.44,0.49,-825.68,586.91,1.92,-0.28,-5.91,-225.84
24933,782.65,774.69,756.23,753.60,766.79,7.32,-839.84,568.85,1.50,2.24,-3.05,-230.66
24968,782.56,775.05,756.29,753.82,766.93,-14.65,-852.05,593.75,1.58,-0.10,-2.54,-235.20
25003,782.95,775.61,756.31,753.92,767.20,6.84,-841.80,574.22,-1.20,0.84,-0.84,-242.00
25038,782.91,775.95,756.30,754.00,767.29,-18.07,-872.56,570.31,-0.58,1.60,-1.98,-245.72
25073,782.40,775.95,756.23,753.95,767.13,-9.28,-848.63,568.85,-4.21,3.40,-1.90,-245.20
25108,781.88,776.18,756.37,754.04,767.12,-14.65,-852.54,554.20,-1.94,2.05,-1.94,-243.15
25146,781.44,776.62,756.39,754.27,767.18,-6.84,-851.56,563.48,-1.37,1.60,0.42,-247.87
25181,780.73,776.57,756.48,754.52,767.08,-11.72,-850.59,579.59,-2.48,0.53,-0.27,-246.64
25217,779.77,776.72,756.55,754.75,766.95,2.44,-848.14,570.31,-3.09,2.79,-3.16,-245.98
25252,779.08,776.71,756.69,754.85,766.83,15.63,-851.07,582.52,1.27,-2.49,-1.83,-241.66
25287,778.47,776.79,756.68,754.69,766.66,-6.35,-834.47,575.20,-1.99,-0.82,-2.08,-238.10
25321,778.04,776.71,756.70,754.61,766.52,8.79,-856.45,568.85,-1.39,-0.46,-2.40,-234.34
25359,777.98,776.74,756.69,754.37,766.44,7.81,-833.50,575.68,0.53,0.89,0.15,-230.91
25393,778.02,776.61,756.64,754.11,766.34,19.04,-845.21,561.52,-2.61,2.16,-0.05,-227.62
25428,778.26,776.58,756.77,753.92,766.38,7.81,-819.82,603.03,0.89,1.88,0.20,-222.13
25462,778.97,777.20,756.59,753.78,766.64,-2.93,-872.56,561.04,-0.24,0.52,0.67,-231.92
25497,779.29,778.02,756.72,753.56,766.90,17.58,-833.50,569.82,0.55,2.89,-1.60,-233.31
25535,779.98,778.91,756.70,753.56,767.29,-7.32,-858.89,578.61,0.66,-0.34,-1.76,-243.10
25569,780.26,779.20,756.67,753.08,767.30,2.93,-819.82,585.94,2.14,-1.95,-0.39,-240.25
25604,780.33,779.56,756.66,752.84,767.35,-4.39,-884.28,541.99,-0.55,1.18,1.60,-239.92
25638,780.22,780.04,756.66,752.75,767.42,-13.67,-860.35,562.50,-3.38,0.58,0.34,-242.05
25673,779.99,780.15,756.67,752.86,767.42,-0.49,-847.66,591.80,1.30,-1.00,1.59,-243.45
25708,779.78,780.28,756.69,753.04,767.45,-9.28,-857.91,575.20,-4.44,2.74,-1.15,-245.99
25745,779.48,780.08,756.68,752.91,767.29,-15.63,-852.05,575.68,0.17,0.69,1.87,-241.76
25780,780.01,779.63,756.64,752.79,767.27,-12.70,-853.03,581.54,3.25,-2.38,1.73,-239.05
25815,780.23,779.28,756.63,753.10,767.31,-5.86,-844.73,557.13,0.73,2.36,0.04,-241.81
25849,780.13,778.94,756.65,753.49,767.30,-6.35,-854.49,564.94,-1.79,2.63,2.11,-244.10
25885,780.10,778.41,756.71,753.78,767.25,-10.25,-871.58,548.83,0.69,1.45,2.02,-242.58
25919,780.03,777.81,756.68,753.71,767.06,-5.86,-844.73,566.89,-3.39,1.89,1.69,-237.19
25957,780.17,777.23,756.62,753.55,766.89,-9.77,-844.24,558.11,-0.53,1.13,-0.09,-232.25
25992,780.17,776.75,756.60,753.27,766.70,-6.35,-840.33,574.22,-5.08,0.01,-1.74,-224.70
26027,779.97,776.21,756.49,752.91,766.40,-13.18,-864.75,553.22,-6.50,2.58,0.34,-217.06
26062,779.83,775.66,756.49,752.61,766.15,-24.90,-849.61,553.71,-4.82,2.44,-2.99,-207.85
26096,779.74,775.41,756.41,752.30,765.96,-15.63,-849.61,567.87,0.01,2.08,-1.60,-202.80
26131,779.51,774.77,756.34,752.00,765.66,-21.97,-854.49,558.11,-5.02,1.92,-0.52,-194.35
26169,779.36,773.62,756.22,751.77,765.25,-18.07,-852.54,553.22,-2.10,0.53,1.27,-184.28
26204,779.62,773.05,756.21,751.87,765.19,-24.90,-868.65,549.80,-1.20,-2.43,2.21,-182.21
26239,779.81,772.54,756.11,751.90,765.09,-33.20,-857.91,567.38,1.33,-0.55,1.14,-181.66
26274,780.17,772.14,756.12,752.06,765.12,-10.74,-854.49,533.20,2.05,-1.73,-0.95,-181.85
26309,780.52,772.29,756.11,752.26,765.29,-7.81,-863.28,559.57,-0.79,-0.44,-1.16,-187.27
26344,780.68,772.35,756.12,752.37,765.38,-16.11,-855.96,562.50,0.23,1.68,-0.37,-189.74
26381,780.70,772.35,756.11,752.52,765.42,-153.81,-1026.86,475.10,10.92,-11.73,0.65,-192.35
26416,781.31,772.16,756.10,752.68,765.56,-30.27,-830.57,551.27,6.21,-4.05,1.31,-195.52
26451,781.26,771.96,756.08,752.99,765.57,-4.88,-929.69,549.32,-7.67,-1.77,1.30,-198.71
26486,780.35,771.27,756.10,753.23,765.24,-31.74,-861.82,551.76,-2.88,-1.80,-0.23,-193.34
26521,778.95,770.59,756.12,753.62,764.82,-76.66,-938.48,490.23,-8.72,-2.07,3.97,-188.14
26556,777.47,769.96,756.12,754.07,764.40,-29.79,-932.62,512.70,9.66,-5.51,0.84,-184.63
26593,776.77,769.91,756.17,754.24,764.27,-38.57,-884.28,558.59,2.25,0.02,-1.08,-183.23
26628,775.83,770.10,756.26,754.63,764.21,-43.95,-887.21,529.30,-0.40,0.31,-1.20,-185.01
26663,775.18,770.39,756.32,755.04,764.23,-20.02,-862.30,559.08,4.59,-0.24,-1.24,-189.61
26698,774.72,770.67,756.42,755.26,764.27,-22.95,-848.63,583.98,-3.30,-0.29,-1.09,-191.01
26733,774.06,771.23,756.53,755.57,764.35,-48.83,-854.98,539.55,-3.53,1.19,-1.09,-195.16
26771,773.35,772.09,756.69,756.01,764.53,-22.46,-838.38,561.04,-2.47,2.67,-0.70,-201.91
26805,772.44,772.80,756.73,756.18,764.54,-37.11,-885.74,556.64,1.24,3.10,-2.95,-206.19
26840,771.77,773.15,756.80,756.02,764.44,-38.09,-875.49,538.09,4.26,-2.70,-2.79,-202.39
26875,771.78,773.50,756.98,756.11,764.59,-28.81,-870.12,534.67,0.75,-0.08,0.66,-202.20
26910,771.07,773.62,757.00,755.68,764.34,-16.60,-829.10,593.75,3.19,2.54,-2.48,-194.04
26945,770.83,773.61,756.99,755.31,764.19,-10.74,-845.70,551.76,2.49,2.14,-0.26,-187.79
26983,771.55,773.83,757.03,755.08,764.37,-26.86,-877.93,540.53,3.12,-1.11,0.59,-187.72
27017,771.44,773.88,756.96,754.66,764.23,-10.25,-850.59,555.18,1.16,2.50,-1.34,-183.23
27052,771.67,773.74,756.92,754.45,764.19,-21.48,-854.98,553.71,1.85,-1.27,-2.07,-180.72
27087,772.22,773.73,757.02,754.43,764.35,-17.58,-856.45,549.80,2.82,-0.74,-1.56,-179.76
27122,772.08,773.59,756.98,754.23,764.22,-14.65,-847.66,561.04,-2.31,1.00,-1.83,-176.34
27156,772.20,773.32,757.01,753.89,764.11,-8.79,-862.79,561.04,2.33,-3.10,-0.21,-168.82
27194,773.00,772.87,756.92,753.50,764.07,-22.95,-858.40,555.18,1.51,-1.98,2.13,-164.25
27229,774.13,772.28,756.90,753.13,764.11,-17.09,-858.40,557.62,1.43,-1.64,0.60,-158.56
27263,775.34,771.74,756.71,752.71,764.13,-30.27,-862.79,559.57,1.79,-0.44,-0.37,-157.06
27298,776.66,771.04,756.69,752.20,764.15,-20.02,-856.93,553.22,-0.46,0.79,1.73,-148.85
27333,777.91,770.38,756.56,751.96,764.20,-23.93,-868.16,558.59,-1.15,-0.89,3.05,-147.57
27368,778.57,769.75,756.50,751.68,764.12,-23.93,-854.49,572.27,0.17,-1.77,-0.95,-142.15
27405,779.43,769.20,756.39,751.60,764.16,-29.79,-850.59,553.71,0.69,1.33,-0.16,-142.15
27440,779.97,768.64,756.36,751.56,764.13,-21.48,-847.17,551.76,-2.31,-0.56,-0.37,-139.91
27475,780.65,768.33,756.32,751.63,764.23,-18.07,-858.89,560.55,1.19,-0.24,-0.79,-141.48
27510,781.09,768.05,756.32,751.57,764.26,-33.69,-854.00,563.96,-0.31,1.95,-1.82,-140.10
27545,781.65,767.77,756.28,751.56,764.31,-21.97,-852.54,580.57,-0.73,0.66,-0.82,-140.54
27583,781.77,767.76,756.21,751.60,764.33,-20.02,-854.49,553.71,-2.23,4.44,-1.45,-143.14
27618,781.77,767.79,756.21,751.75,764.38,-15.14,-851.56,562.99,-2.17,1.18,-0.12,-145.66
27652,781.78,768.11,756.23,751.74,764.47,-18.55,-828.61,539.06,-0.03,2.69,-5.24,-147.57
27687,781.38,768.32,756.24,751.94,764.47,-18.55,-843.75,565.92,-6.02,3.40,-3.14,-150.55
27722,781.02,768.70,756.24,752.15,764.53,-27.34,-873.54,559.57,-7.83,-0.52,-0.85,-155.64
27757,780.09,769.23,756.23,752.29,764.46,-19.04,-859.86,544.92,-5.00,0.67,-3.22,-158.94
27795,779.37,769.76,756.29,752.47,764.47,-30.76,-869.14,558.11,-5.86,0.65,-4.15,-161.84
27830,779.13,770.26,756.34,752.68,764.60,-28.32,-886.23,534.18,-4.31,1.21,-1.64,-166.86
27865,778.88,770.55,756.32,752.83,764.65,-39.06,-863.28,548.34,-1.86,0.84,-1.82,-171.04
27900,778.67,770.82,756.37,753.03,764.72,-33.69,-871.58,550.78,-3.93,0.02,0.89,-174.15
27935,778.42,770.97,756.41,753.15,764.74,-46.39,-895.02,541.50,-2.24,-2.39,-1.77,-175.27
27970,777.81,771.28,756.43,753.24,764.69,-16.11,-896.48,516.11,2.93,-1.36,-2.75,-176.43
28008,777.35,771.72,756.40,752.93,764.60,-16.60,-861.82,565.43,-0.43,0.66,-2.47,-174.69
28043,777.67,771.71,756.36,752.53,764.57,-14.16,-859.86,557.13,-3.42,1.58,-0.71,-170.71
28078,776.80,772.16,756.37,752.65,764.50,-22.95,-896.00,507.32,-2.34,-0.14,-0.94,-172.97
28113,776.26,772.01,756.39,752.66,764.33,-8.79,-785.16,551.76,-8.89,3.52,0.07,-169.40
28148,776.77,771.73,756.31,752.31,764.28,-70.80,-784.18,427.25,-1.94,3.29,-1.65,-165.93
28183,776.32,771.94,756.35,751.98,764.15,-10.25,-851.56,566.89,-5.90,1.94,-3.36,-160.10
28221,776.35,771.46,756.19,751.58,763.89,-31.74,-901.86,537.11,10.00,-0.21,-2.54,-154.40
28256,777.98,771.02,755.99,751.11,764.03,-30.76,-894.04,521.48,9.63,-5.31,0.78,-154.75
28291,780.77,769.81,755.81,750.25,764.16,-22.95,-883.79,548.34,0.40,-5.21,-0.79,-146.32
28326,782.03,768.44,755.59,749.63,763.92,22.46,-866.21,620.12,8.48,-0.47,1.70,-135.95
28361,786.48,768.01,755.49,749.49,764.87,-35.16,-875.98,497.56,-1.14,-0.53,0.31,-148.11
28399,788.16,766.90,755.47,749.52,765.01,-25.88,-838.87,567.38,-5.60,-2.55,2.76,-146.12
28434,787.26,765.87,755.35,749.81,764.57,-30.76,-818.85,588.38,2.16,-2.76,2.18,-142.06
28469,789.57,765.59,755.37,749.92,765.11,-7.32,-837.40,576.17,-3.54,2.81,-0.63,-148.65
28504,788.84,764.46,755.32,750.21,764.71,-37.11,-874.02,541.99,-1.89,-2.47,-0.23,-142.55
28539,788.61,764.07,755.28,750.50,764.61,-21.00,-816.41,589.36,-2.71,-1.87,2.37,-144.15
28574,790.08,764.40,755.39,751.00,765.22,-16.11,-877.44,541.99,6.81,-1.67,-3.70,-156.53
28612,789.32,764.64,755.43,751.29,765.17,-5.37,-843.26,577.64,-4.79,2.86,-3.79,-158.90
28647,789.17,765.50,755.44,751.52,765.41,-40.04,-838.38,565.43,6.30,2.22,-5.85,-168.65
28682,791.13,766.38,755.54,751.82,766.22,-25.88,-850.10,579.59,0.31,5.97,-5.82,-184.21
28716,791.16,766.31,755.50,751.85,766.21,-4.88,-873.05,551.76,-4.76,1.56,-2.79,-185.18
28751,790.49,766.17,755.51,752.03,766.05,-22.95,-871.09,542.97,-1.79,0.60,0.01,-184.08
28786,790.60,766.33,755.49,752.29,766.18,-38.09,-862.30,571.29,0.88,0.52,-1.04,-190.22
28824,791.50,767.03,755.66,752.67,766.72,-9.77,-845.21,551.76,0.63,0.99,-0.85,-200.16
28859,792.14,767.41,755.71,752.87,767.03,-6.84,-854.98,534.67,3.27,-1.02,-2.00,-207.15
28894,793.37,767.65,755.75,753.22,767.50,-40.04,-862.30,541.50,6.35,0.16,-0.74,-217.25
28928,794.80,768.48,755.89,753.56,768.18,-26.37,-868.65,557.62,3.45,-2.56,-0.94,-230.52
28964,794.95,770.06,756.00,754.01,768.76,-2.93,-828.12,589.84,3.80,-2.70,-3.27,-247.49
28998,794.96,771.01,756.08,754.27,769.08,-14.65,-873.05,571.78,-1.15,-1.45,-0.98,-257.18
29036,793.44,771.59,756.03,754.30,768.84,-33.69,-856.93,543.46,-3.68,-0.91,-3.08,-258.18
29071,792.38,772.43,756.24,754.32,768.84,-17.58,-838.87,594.24,-1.82,1.60,-3.87,-256.23
29135,789.85,773.05,756.13,754.01,768.26,-20.51,-853.52,559.08,-3.02,2.65,-0.62,-250.89
29170,789.37,773.15,756.13,753.84,768.12,-20.02,-841.80,577.64,-2.84,1.19,-0.59,-247.44
29205,788.99,772.86,756.06,753.48,767.85,-16.11,-845.21,562.99,-0.47,-3.14,0.48,-240.38
29239,789.02,772.30,755.99,753.22,767.63,-5.37,-872.56,550.78,-0.99,1.80,-1.47,-233.72
29277,789.22,771.50,755.90,752.91,767.38,-5.37,-862.79,564.94,-0.34,0.07,-0.43,-225.64
29311,790.07,770.98,755.79,752.76,767.40,-15.63,-858.89,556.64,0.03,1.66,0.06,-224.99
29346,790.99,770.27,755.79,752.57,767.40,-14.65,-839.36,559.57,-1.11,-0.94,0.46,-219.77
29381,791.75,769.43,755.63,752.52,767.33,-14.65,-864.26,556.64,0.73,-2.24,0.39,-218.87
29416,792.78,769.07,755.61,752.49,767.49,-27.83,-870.12,558.11,0.11,2.40,1.66,-219.37
29453,793.92,769.03,755.66,752.48,767.77,-29.30,-859.37,553.71,0.50,1.93,-0.71,-221.58
29487,795.42,769.15,755.68,752.55,768.20,-29.79,-853.52,568.85,0.40,-0.73,-0.61,-228.40
29522,796.28,769.11,755.59,752.58,768.39,-21.48,-857.42,558.59,0.19,0.81,0.78,-233.79
29557,797.60,768.66,755.50,752.42,768.55,-21.00,-874.02,554.20,-2.19,1.53,2.82,-234.61
29592,798.27,767.93,755.48,752.30,768.50,-20.02,-861.33,550.78,-0.15,-0.71,2.48,-229.73
29626,799.01,766.94,755.39,752.27,768.40,-9.77,-842.29,563.96,-4.44,0.76,0.77,-225.96
29664,799.85,766.02,755.28,752.33,768.37,-21.00,-874.02,541.02,-0.14,-1.63,2.74,-225.20
29698,800.46,765.12,755.26,752.34,768.30,-21.00,-862.30,547.36,-2.00,-1.69,1.83,-220.80
29733,801.54,764.57,755.24,752.45,768.45,-31.25,-861.82,554.20,-0.36,-0.44,3.13,-222.22
29768,802.97,764.00,755.20,752.48,768.66,-38.57,-885.74,554.20,-0.35,0.90,1.56,-223.77
29802,803.30,763.06,755.19,752.46,768.50,-30.27,-890.62,548.83,-3.40,-3.24,4.99,-217.40
29837,803.79,762.49,755.12,752.50,768.48,-14.16,-835.45,587.40,-1.66,-3.43,1.77,-216.92
29874,804.65,762.07,755.16,752.61,768.62,-30.27,-876.95,556.15,-1.40,-2.98,4.19,-216.97
29909,804.48,761.58,755.15,752.62,768.46,-17.09,-849.12,565.92,-4.02,0.02,4.04,-213.04
29944,804.35,761.14,755.04,752.73,768.31,-8.30,-865.23,547.85,-3.37,2.57,0.18,-213.43
29979,803.70,761.22,755.10,752.77,768.20,-62.01,-875.98,541.02,0.69,1.50,-1.75,-210.91
30013,802.61,761.33,755.10,752.79,767.96,-32.23,-870.61,558.11,-4.43,-1.56,-2.24,-208.44
30048,801.30,761.49,755.06,752.87,767.68,-12.21,-834.96,594.73,1.57,-0.13,-3.05,-207.24
30086,801.26,761.71,755.06,752.90,767.73,6.84,-827.64,604.49,2.23,2.54,-2.02,-209.36
30121,800.75,762.67,755.18,753.06,767.91,-54.69,-922.85,505.37,3.51,3.88,-8.38,-214.47
30155,798.06,763.25,755.21,753.14,767.42,-21.97,-833.01,577.64,-13.82,8.40,-3.26,-210.34
30190,796.12,763.87,755.29,753.20,767.12,-36.62,-845.70,552.25,0.50,5.75,-6.05,-207.68
30225,794.94,763.99,755.34,753.30,766.89,-46.88,-870.12,531.74,-1.16,2.60,-2.82,-204.72
30260,793.69,764.07,755.33,753.33,766.61,-50.78,-870.12,520.02,-4.82,2.51,-1.97,-201.78
30297,792.55,763.94,755.38,753.33,766.30,-13.67,-875.00,559.57,-1.61,-1.08,-3.31,-195.82
30331,791.64,764.30,755.40,753.59,766.23,-47.36,-871.58,538.57,-2.74,0.35,-3.13,-198.77
30365,790.29,764.92,755.55,754.10,766.21,-38.09,-861.33,549.80,1.23,0.74,-3.67,-202.89
30400,789.08,765.10,755.67,754.26,766.03,-10.25,-829.59,577.64,6.36,1.53,-1.95,-199.44
30434,788.11,764.96,755.59,754.30,765.74,-15.14,-885.25,522.95,-2.73,-1.27,2.54,-197.54
30472,787.38,764.75,755.67,754.39,765.55,-32.23,-862.30,550.78,0.36,-2.92,0.07,-192.77
30506,786.63,764.67,755.77,754.49,765.39,-29.79,-853.03,542.97,-3.04,2.63,-1.73,-188.59
30541,785.89,764.52,755.84,754.60,765.21,-21.00,-861.33,552.73,-2.85,0.50,0.53,-184.50
30575,785.47,764.55,755.85,754.61,765.12,-30.27,-865.72,548.34,-0.78,-0.32,0.56,-183.28
30610,785.87,764.60,755.89,754.60,765.24,-24.41,-858.89,566.89,0.87,-2.57,0.31,-183.96
30644,786.04,764.39,755.84,754.37,765.16,-21.48,-857.91,548.83,-0.98,2.34,-0.24,-180.87
30681,786.61,764.27,755.89,754.36,765.28,-39.55,-865.23,539.55,-0.01,0.30,0.15,-180.49
30716,786.87,764.47,755.89,754.27,765.37,-35.16,-860.35,552.73,0.89,0.56,-1.66,-181.62
30751,786.70,764.58,755.88,754.20,765.34,-20.51,-854.49,537.11,-0.96,-0.73,-0.68,-181.01
30786,786.12,764.76,755.96,754.10,765.24,-18.55,-864.26,553.22,0.67,2.34,-0.03,-177.03
30821,785.25,765.31,756.00,754.24,765.20,-29.30,-864.26,528.32,0.42,1.83,-3.44,-179.71
30855,784.68,765.81,756.11,754.33,765.23,-28.32,-845.70,525.39,1.38,3.85,-1.00,-180.30
30893,784.17,766.22,756.15,754.55,765.27,-33.69,-870.12,528.81,2.14,-2.16,-1.39,-184.07
30927,784.14,767.07,756.21,754.89,765.58,-32.71,-865.72,548.34,-1.83,-0.85,-1.69,-194.36
30962,782.49,767.83,756.26,754.86,765.36,-23.44,-864.26,541.50,-2.11,1.07,-1.69,-192.96
30997,781.07,768.27,756.33,755.02,765.17,-21.97,-870.12,561.04,1.67,0.08,-0.82,-192.12
31032,780.48,768.95,756.43,755.15,765.25,-42.48,-912.11,554.20,-0.85,1.47,-0.33,-194.99
31067,779.69,769.46,756.44,754.79,765.10,-31.74,-863.28,548.34,1.31,2.86,-2.27,-190.85
31105,779.48,769.72,756.48,754.62,765.08,-6.35,-836.91,532.71,0.86,4.26,-0.24,-188.61
31139,779.97,769.95,756.52,754.40,765.21,-23.93,-877.93,548.83,-4.20,2.76,1.24,-188.01
31174,780.46,770.41,756.48,754.40,765.44,-34.67,-874.51,543.95,0.90,1.79,-2.73,-194.31
31209,780.06,770.71,756.51,754.23,765.38,-13.18,-850.10,554.20,0.54,1.08,-2.76,-192.15
31244,779.59,771.05,756.59,754.29,765.38,-23.44,-853.03,555.18,-1.55,-1.25,-0.32,-192.20
31281,779.20,771.46,756.61,754.31,765.39,-29.79,-870.61,553.71,-2.85,0.25,-1.40,-193.86
31316,778.55,771.90,756.79,754.42,765.41,-48.83,-886.23,541.99,0.34,1.51,0.54,-192.48
31351,777.97,772.38,756.77,754.47,765.40,-24.41,-854.49,563.96,2.75,-0.47,-2.52,-195.48
31386,777.48,772.83,756.74,754.45,765.38,-24.90,-871.58,545.90,-1.50,1.32,-0.51,-197.81
31421,777.04,773.29,756.85,754.47,765.41,-11.72,-864.75,549.80,-3.40,-0.34,-1.05,-197.53
31455,776.74,773.60,756.82,754.46,765.40,-5.37,-849.61,556.15,-0.88,-0.15,-0.22,-199.59
31493,776.78,773.62,756.94,754.20,765.39,-29.79,-861.82,548.34,0.00,-1.09,-1.34,-193.05
31528,776.96,773.56,756.89,754.09,765.37,-30.27,-853.03,553.22,-0.81,0.84,-0.64,-192.70
31563,777.37,773.32,756.83,753.94,765.37,-19.04,-862.30,539.55,-0.93,0.40,-0.29,-191.63
31597,777.67,773.12,756.81,753.75,765.34,-31.25,-854.98,553.22,1.26,-2.49,-1.63,-188.78
31632,777.79,772.88,756.85,753.58,765.27,-31.74,-860.35,552.73,3.03,-1.85,1.75,-183.89
31667,778.14,772.48,756.73,753.29,765.16,-15.63,-860.84,558.11,1.45,-0.40,0.20,-180.49
31705,778.68,772.13,756.68,753.22,765.18,-27.34,-864.75,551.27,1.87,-1.04,2.24,-179.75
31739,779.23,771.76,756.61,752.99,765.15,-26.86,-865.72,559.57,-1.19,1.19,-0.11,-176.89
31774,779.68,771.47,756.60,752.88,765.16,-36.13,-853.03,545.90,-0.60,0.25,-0.66,-174.91
31809,779.97,771.22,756.48,752.82,765.12,-36.62,-869.14,552.25,0.55,-2.36,0.20,-176.01
31844,780.08,771.12,756.50,752.76,765.11,-21.48,-840.33,562.99,0.08,-1.28,-1.79,-174.32
31879,780.24,771.08,756.53,752.66,765.13,-26.37,-869.14,555.18,-1.38,2.42,-1.27,-172.23
31917,780.12,771.14,756.36,752.59,765.05,-22.95,-859.86,548.34,-3.42,0.32,-1.20,-175.61
31952,780.02,771.22,756.47,752.63,765.08,-27.34,-875.49,547.85,-2.22,-1.35,-0.41,-173.63
31986,779.53,771.39,756.53,752.75,765.05,-9.28,-866.21,560.06,-3.18,-0.06,-0.45,-173.51
32021,779.25,771.41,756.51,752.90,765.02,-24.90,-872.56,556.64,-3.01,-1.40,0.21,-175.53
32056,778.87,771.40,756.54,753.08,764.97,-18.55,-854.98,536.13,-1.50,-1.16,1.63,-175.92
32091,778.32,771.54,756.57,753.17,764.90,-32.71,-796.39,574.71,-0.57,-3.24,-1.27,-175.83
32128,776.86,771.05,756.52,753.29,764.43,-43.46,-915.53,497.56,-5.06,1.64,0.82,-169.72
32163,774.74,771.03,756.65,753.38,763.95,-10.74,-894.04,541.99,-6.94,0.70,-3.33,-160.54
32197,772.05,770.52,756.48,753.07,763.03,-24.90,-890.62,521.97,-3.57,0.02,3.47,-147.08
32232,769.68,769.62,756.40,752.35,762.01,17.09,-820.80,606.93,-0.46,1.73,1.11,-122.87
32267,770.48,768.34,756.06,751.61,761.62,-26.86,-908.20,495.61,-12.15,-1.48,3.58,-113.19
32304,771.91,767.02,755.92,751.44,761.57,-6.84,-857.42,538.57,3.28,-2.04,0.86,-108.14
32338,774.93,766.61,755.88,751.23,762.16,-19.04,-865.23,560.06,2.18,-3.68,-0.43,-113.26
32373,778.55,766.38,755.75,751.01,762.92,-26.86,-777.34,595.70,12.05,-4.83,-0.48,-123.84
32408,781.82,766.05,755.75,751.22,763.71,-9.28,-818.85,558.11,25.80,-4.20,-2.99,-135.37
32443,785.52,766.63,755.71,751.28,764.78,-22.95,-879.88,531.74,11.10,-4.03,-1.91,-154.56
32478,788.65,766.83,755.72,751.12,765.58,-17.58,-840.33,557.62,-0.60,1.44,0.57,-164.40
32516,790.22,766.58,755.57,750.67,765.76,-23.44,-841.80,592.29,1.59,0.21,-2.69,-164.81
32550,790.83,766.29,755.57,750.87,765.89,-18.07,-870.61,541.02,-4.60,2.32,0.10,-167.74
32585,792.08,766.31,755.55,751.10,766.26,-10.74,-854.00,580.08,11.49,-1.66,-3.92,-176.04
32620,793.93,766.09,755.50,751.30,766.71,-33.20,-856.93,572.75,-1.47,1.69,2.37,-184.92
32655,795.21,766.01,755.58,751.62,767.10,-21.48,-842.29,591.31,4.98,-2.55,2.58,-191.21
32690,795.98,766.44,755.65,751.91,767.49,-26.37,-862.79,561.04,0.47,1.28,-3.53,-199.99
32727,795.78,766.38,755.66,752.02,767.46,-21.00,-836.91,567.87,-0.55,-0.41,0.70,-200.12
32762,796.35,766.90,755.71,752.38,767.84,-40.53,-852.05,531.74,-1.50,0.48,-0.83,-210.12
32797,796.11,767.50,755.79,753.00,768.10,-21.97,-843.26,594.73,3.53,-2.54,-3.34,-221.25
32832,795.04,768.14,755.98,753.51,768.17,-9.77,-868.65,558.11,-0.78,-1.11,-2.13,-225.50
32867,793.55,768.36,756.04,753.75,767.92,-10.25,-884.28,550.29,-2.55,-1.60,-1.10,-224.35
32902,792.88,769.16,756.13,754.10,768.07,-19.53,-850.59,568.36,0.37,2.85,-3.50,-231.44
32940,791.85,769.26,756.18,754.02,767.83,-22.95,-854.98,583.01,-4.24,1.01,-1.97,-226.07
32975,790.95,769.58,756.25,753.95,767.68,-11.72,-828.61,598.14,-0.79,3.15,-1.29,-222.90
33010,791.47,769.89,756.29,753.75,767.85,-26.86,-858.89,556.64,-0.33,2.31,-2.31,-223.15
33044,791.69,769.80,756.17,753.24,767.72,-17.09,-844.73,591.80,0.13,0.69,-0.24,-218.85
33079,792.11,769.28,756.19,752.77,767.59,-0.49,-867.68,573.73,-0.15,-0.80,1.29,-208.62
33117,792.38,768.49,756.07,752.54,767.37,-30.76,-849.61,575.68,-0.40,0.98,-1.32,-202.75
33152,792.56,767.85,756.00,752.48,767.22,-37.60,-832.52,571.78,-2.18,-2.72,1.53,-199.16
33187,792.10,767.47,755.86,752.46,766.97,-13.18,-842.77,590.33,-1.73,-2.64,3.48,-197.63
33222,791.93,767.39,755.95,752.46,766.93,-14.16,-840.33,574.71,-0.56,-1.42,-0.62,-194.26
33256,791.47,767.23,755.84,752.38,766.73,-21.97,-846.19,564.45,-3.35,-2.52,-1.27,-192.91
33291,791.15,767.15,755.78,752.43,766.63,-13.67,-850.10,561.52,-2.69,-1.33,-1.78,-193.54
33329,791.44,767.15,755.78,752.36,766.68,-10.25,-885.74,560.06,-0.07,-1.84,-1.54,-193.54
33364,792.06,767.15,755.77,752.26,766.81,-1.95,-848.14,570.80,-3.62,1.64,-0.49,-194.20
33399,792.59,767.18,755.73,752.27,766.94,-21.97,-847.66,568.36,-3.09,-0.40,-0.86,-197.54
33433,793.02,767.29,755.74,752.36,767.10,-11.72,-848.63,576.17,-1.73,2.26,-0.16,-200.88
33468,793.15,767.30,755.75,752.31,767.13,-14.16,-851.07,565.92,-2.69,4.51,-1.81,-200.44
33503,793.67,767.31,755.69,752.42,767.27,-9.28,-847.17,578.61,-2.27,-1.07,-1.43,-205.38
33541,794.19,767.32,755.72,752.49,767.43,-20.02,-866.21,572.75,-0.84,-1.16,1.72,-207.65
33575,794.47,767.20,755.67,752.40,767.44,-29.30,-871.58,547.85,-1.79,1.38,0.73,-207.41
33610,795.39,766.80,755.70,752.44,767.58,-25.88,-846.19,574.22,-2.66,2.40,1.07,-207.33
33645,796.67,766.48,755.64,752.38,767.79,-9.77,-862.79,567.38,0.05,-0.02,2.64,-209.72
33680,798.11,766.34,755.65,752.43,768.13,-28.32,-860.84,562.01,0.15,1.25,0.89,-214.05
33714,799.30,766.11,755.59,752.38,768.35,-16.60,-850.10,575.20,-1.25,-1.72,3.48,-216.89
33752,800.07,765.64,755.62,752.46,768.45,-15.63,-881.84,549.32,-2.74,0.79,-1.01,-216.18
33787,800.34,765.26,755.51,752.38,768.37,-3.91,-823.73,600.59,-2.85,-0.54,-0.34,-215.57
33822,800.70,764.79,755.48,752.40,768.34,-20.51,-852.05,558.59,-3.73,-1.24,0.58,-214.22
33857,799.80,764.06,755.38,752.44,767.92,-24.90,-854.00,559.57,-8.35,1.90,2.12,-208.39
33891,798.89,763.99,755.42,752.58,767.72,-55.18,-854.49,559.08,1.54,0.04,-0.57,-205.76
33928,796.76,763.99,755.46,752.66,767.22,-27.83,-870.61,542.48,-0.71,3.10,-0.44,-198.78
33963,794.88,763.64,755.47,752.77,766.69,-17.58,-834.47,580.08,-2.54,0.30,3.04,-190.67
33998,794.33,764.02,755.48,753.00,766.71,-52.25,-859.86,555.18,6.64,1.30,-1.73,-195.16
34033,795.57,765.19,755.56,753.25,767.39,-8.79,-855.47,557.62,6.49,-0.21,-4.62,-210.40
34068,796.43,765.37,755.68,753.22,767.67,-24.41,-855.96,579.59,-0.22,0.05,-1.79,-211.43
34103,795.97,764.79,755.57,753.22,767.39,-21.00,-852.05,568.85,-2.39,-0.25,0.28,-207.90
34141,794.58,764.48,755.54,753.13,766.93,-21.48,-869.14,547.85,-1.81,1.52,-1.66,-199.94
34176,794.25,764.22,755.55,753.03,766.76,-37.60,-865.72,563.96,-4.72,0.82,1.46,-195.04
34211,793.92,763.82,755.40,752.94,766.52,-11.23,-841.31,572.27,-2.39,5.96,-0.04,-193.09
34245,794.41,763.60,755.34,752.95,766.57,-12.70,-873.54,550.29,-3.75,3.74,-0.95,-194.60
34280,793.84,763.12,755.34,752.95,766.31,-51.27,-884.28,546.39,-3.44,4.47,-0.88,-188.79
34315,792.05,762.46,755.20,752.92,765.66,-42.48,-839.36,549.80,-4.25,4.24,0.10,-180.51
34353,791.55,763.01,755.30,752.99,765.71,-48.34,-882.81,539.55,4.15,2.05,-5.04,-181.78
34388,792.28,763.83,755.38,753.06,766.14,-10.74,-843.26,575.68,-5.78,3.40,-2.26,-190.03
34423,793.45,764.72,755.44,753.03,766.66,-9.28,-888.18,544.92,-0.50,2.69,-2.41,-199.12
34458,793.58,764.98,755.41,753.13,766.77,-33.69,-893.07,519.53,-1.38,0.74,0.69,-203.77
34492,793.71,764.75,755.41,753.05,766.73,-26.86,-861.33,549.32,-1.46,-1.39,1.53,-201.25
34527,793.80,764.13,755.35,753.08,766.59,-25.88,-867.68,550.78,-0.24,-1.00,2.23,-198.48
34565,794.30,763.64,755.32,753.06,766.58,-25.88,-879.88,541.50,3.76,-2.50,0.60,-196.98
34600,794.76,763.15,755.35,753.14,766.60,-34.18,-836.91,578.61,-1.08,-0.46,1.62,-194.87
34635,794.96,763.10,755.44,753.22,766.68,-22.95,-854.98,545.90,-1.05,0.39,-0.15,-194.18
34670,793.59,763.29,755.43,753.48,766.45,-59.57,-891.60,498.05,-5.45,-2.31,-1.21,-195.07
34705,792.83,763.25,755.35,753.58,766.25,-10.25,-878.42,557.13,4.34,0.15,0.33,-195.44
34740,792.61,763.45,755.47,753.80,766.33,-17.58,-878.42,543.95,3.54,0.57,0.17,-196.58
34778,791.70,763.99,755.68,754.33,766.42,-35.64,-863.28,555.18,-1.06,2.11,-2.80,-200.43
34813,790.48,764.56,755.72,754.72,766.37,-36.13,-867.68,576.17,2.73,2.60,-2.35,-205.54
34848,789.54,764.84,755.83,755.01,766.30,-26.86,-854.98,545.41,-8.44,5.21,-3.40,-205.97
34883,788.54,765.51,755.86,755.18,766.27,-40.53,-867.19,550.29,0.24,0.86,-3.96,-209.67
34917,787.45,766.09,755.81,755.17,766.13,-33.69,-871.58,537.11,-5.73,7.82,-1.62,-211.68
34955,786.33,766.54,755.94,755.08,765.97,-41.99,-875.00,537.60,-0.89,-0.55,-1.03,-206.99
34990,785.69,766.74,755.93,754.87,765.81,-26.86,-859.37,545.41,2.47,-2.61,-0.60,-203.53
35025,784.62,766.93,756.00,754.85,765.60,-17.09,-886.72,534.67,-1.47,5.20,-1.95,-199.21
35059,783.35,767.63,756.02,754.86,765.46,-12.70,-842.77,575.20,3.36,-0.62,-2.49,-200.32
35094,781.84,768.58,756.10,754.89,765.35,-49.80,-924.32,541.50,1.25,3.53,-4.42,-201.10
35129,779.99,769.80,756.23,755.02,765.26,-28.81,-885.74,545.41,0.05,1.21,-1.10,-203.33
35167,778.89,770.99,756.42,755.21,765.38,-32.71,-876.46,541.02,2.02,-0.43,-2.62,-207.31
35201,777.39,771.84,756.48,755.20,765.23,-24.90,-858.89,560.06,-1.47,2.49,-4.98,-207.04
35236,776.04,772.80,756.58,755.33,765.19,-16.60,-857.91,562.50,4.11,0.84,-4.28,-209.52
35270,775.60,773.94,756.79,755.48,765.45,-29.30,-866.21,550.29,1.90,-0.52,-1.95,-214.29
35305,774.72,774.85,756.86,755.42,765.46,-19.04,-874.51,549.32,-2.89,0.98,-2.96,-215.85
35339,773.40,775.46,756.93,755.48,765.32,-15.63,-864.26,552.25,-0.57,0.83,-4.31,-215.41
35377,772.56,775.96,757.05,755.57,765.29,-17.09,-867.68,544.43,-1.07,-1.87,-0.83,-215.06
35412,771.64,776.50,757.11,755.45,765.17,-25.39,-864.75,541.99,-2.85,-3.05,-1.19,-212.89
35446,770.67,776.95,757.13,755.35,765.03,-16.60,-856.45,554.20,-2.37,-1.61,-2.97,-211.11
35481,770.50,777.30,757.26,755.25,765.08,-13.18,-866.70,549.32,1.18,-2.31,-0.53,-208.81
35515,769.90,777.87,757.40,755.37,765.14,-13.18,-850.59,550.29,-1.42,0.14,0.24,-209.29
35550,769.21,778.30,757.50,755.48,765.12,-21.48,-877.44,548.34,-0.30,1.33,-2.18,-209.51
35587,768.64,778.74,757.58,755.60,765.14,-22.46,-865.72,553.22,2.40,-2.14,-0.79,-210.88
35622,768.32,779.14,757.61,755.50,765.14,-3.42,-858.40,565.92,-2.37,-1.40,-1.82,-210.93
35658,767.52,779.57,757.82,755.45,765.09,-9.77,-862.30,570.80,0.05,0.64,-1.16,-205.59
35692,766.85,779.96,757.93,755.28,765.00,-1.95,-847.17,548.83,0.85,-0.35,0.32,-201.21
35727,766.25,780.36,757.92,755.19,764.93,-13.67,-871.09,557.13,-1.09,2.76,-3.35,-201.22
35765,765.77,780.71,758.12,755.03,764.91,-8.30,-860.84,543.95,-1.89,2.36,-2.18,-195.10
35800,765.47,781.06,758.10,754.87,764.87,-27.34,-872.56,546.39,-2.51,3.07,-4.01,-195.02
35834,765.03,781.19,758.16,754.65,764.76,-14.16,-874.51,552.25,-1.49,0.21,-3.45,-189.93
35869,764.47,781.23,758.23,754.43,764.59,-19.04,-869.14,544.43,0.53,2.55,-1.63,-183.20
35904,764.13,781.26,758.25,754.35,764.50,-25.88,-862.79,542.48,-1.95,-1.40,-1.15,-180.47
35939,763.82,781.22,758.25,754.20,764.37,-13.18,-846.19,558.59,-0.84,2.82,-1.15,-177.10
35977,763.52,781.25,758.28,754.21,764.31,-19.04,-863.77,537.60,1.47,2.92,0.92,-175.64
36012,763.26,781.27,758.35,754.14,764.25,-13.18,-869.63,562.99,0.52,-0.18,-0.24,-172.06
36046,762.82,781.19,758.41,754.06,764.12,-18.55,-869.63,546.87,-1.76,0.97,0.21,-167.26
36081,762.49,780.74,758.41,754.01,763.91,-4.88,-856.93,548.83,1.13,-1.67,2.15,-161.91
36116,762.18,780.49,758.41,753.90,763.75,-20.02,-874.51,545.41,-3.02,1.48,-1.53,-157.21
36151,761.74,780.20,758.32,753.84,763.53,-3.42,-867.19,558.11,-1.86,0.57,-1.21,-154.63
36188,761.38,779.77,758.45,753.62,763.30,-1.46,-853.52,559.08,-1.30,1.68,-2.87,-143.67
36223,761.29,779.54,758.37,753.42,763.16,-2.44,-870.12,542.97,-0.45,0.05,-1.69,-140.35
36258,761.30,779.46,758.27,753.34,763.09,-7.32,-867.19,540.04,1.12,0.58,1.58,-141.11
36293,761.50,779.33,758.23,753.17,763.06,-0.49,-829.59,610.84,-26.01,0.08,2.23,-139.23
36327,761.86,779.18,758.21,752.94,763.05,-11.23,-880.86,529.30,1.03,2.40,-1.81,-136.31
36362,762.50,778.94,758.12,752.58,763.04,-16.11,-862.30,544.43,4.12,-2.61,2.74,-133.54
36400,763.43,778.01,757.77,751.69,762.73,-37.11,-896.48,548.34,-2.58,-0.43,3.42,-124.91
36435,764.57,776.79,757.50,750.77,762.41,-1.46,-854.49,539.06,0.09,0.47,4.71,-112.31
36470,767.28,775.58,757.21,750.27,762.59,-18.55,-901.37,545.41,-1.85,-2.71,5.38,-111.82
36504,769.42,774.67,757.10,750.03,762.80,18.55,-897.95,522.46,17.60,-7.01,-2.02,-111.05
36539,770.59,773.77,756.86,750.07,762.82,8.30,-868.65,563.96,4.50,-1.98,0.96,-114.22
36574,771.83,773.33,756.78,750.24,763.05,-41.50,-781.25,498.05,-11.90,2.54,-0.37,-119.73
36612,771.51,773.34,756.73,750.41,763.00,15.63,-751.46,680.66,-7.15,4.99,-0.92,-122.30
36647,769.55,773.65,756.81,750.94,762.74,-38.57,-887.21,480.47,-18.37,3.91,-0.46,-123.91
36682,767.37,773.42,756.82,751.25,762.22,-46.88,-888.18,516.60,-4.24,1.81,-0.27,-118.72
36717,766.88,773.12,756.81,751.23,762.01,6.35,-803.22,599.12,5.09,1.15,0.75,-114.76
36752,769.29,771.95,756.62,751.11,762.24,-18.55,-873.54,524.41,10.19,-0.92,2.38,-116.56
36789,770.17,771.54,756.55,751.19,762.36,-25.88,-954.10,501.95,-5.31,-0.99,-0.60,-119.30
36824,771.43,770.67,756.45,751.09,762.41,-3.42,-847.66,570.31,16.35,-5.37,2.27,-117.52
36859,774.33,770.44,756.28,750.86,762.98,-22.95,-877.44,541.99,7.03,-2.68,0.21,-126.57
36893,777.43,770.18,756.16,750.57,763.59,-21.00,-818.36,573.24,5.84,-1.07,1.33,-133.84
36928,780.23,769.51,756.00,750.23,763.99,-33.20,-872.07,554.20,11.30,-6.26,-1.58,-136.97
36963,782.22,769.02,755.98,750.43,764.41,-21.48,-845.21,577.64,4.14,2.88,0.02,-143.31
37001,785.76,769.53,756.03,750.53,765.46,-7.81,-867.68,583.98,9.79,-1.58,-2.98,-159.89
37035,787.48,769.40,755.94,750.53,765.84,2.44,-819.82,603.52,-6.15,1.15,-0.04,-166.88
37070,788.49,770.04,756.00,750.59,766.28,-3.91,-828.61,611.33,1.67,3.10,-0.96,-174.88
37105,790.91,770.30,755.96,750.46,766.90,-18.07,-866.70,555.18,1.54,0.99,-1.60,-184.43
37139,793.28,769.47,755.77,749.97,767.12,0.49,-825.68,562.99,-5.38,-0.83,0.67,-183.45
37174,796.24,767.96,755.64,750.01,767.46,-23.93,-894.04,519.53,-6.63,-1.22,3.04,-185.17
37211,799.87,766.64,755.49,750.12,768.03,-6.84,-846.68,565.92,-7.15,-0.66,2.66,-192.60
37246,802.77,765.15,755.37,750.42,768.43,-10.25,-920.41,501.95,-3.89,-1.82,6.45,-197.82
37281,804.91,763.27,755.36,750.70,768.56,9.77,-840.82,578.12,-0.66,-5.79,9.98,-194.53
37316,805.71,762.20,755.22,750.94,768.52,-41.99,-882.32,551.27,3.95,-6.43,6.73,-195.53
37351,806.88,761.54,755.25,751.18,768.71,-3.42,-845.21,590.82,4.87,-7.28,10.39,-197.08
37386,807.68,760.80,755.21,751.37,768.76,-56.15,-856.45,539.55,-2.68,-2.28,2.97,-197.93
37423,807.32,760.76,755.26,751.60,768.73,-34.18,-853.52,572.27,-0.11,3.07,-3.69,-198.25
37458,807.98,760.77,755.24,751.81,768.95,-19.53,-838.87,592.77,-3.84,0.25,-0.45,-204.30
37493,807.38,760.83,755.18,752.00,768.85,-4.88,-807.62,611.33,-4.53,3.54,-0.26,-206.96
37528,806.38,761.10,755.14,752.13,768.69,-48.34,-870.61,547.85,-0.14,1.87,-3.66,-208.64
37563,806.54,761.08,755.21,752.27,768.77,-49.32,-901.37,512.21,-9.24,2.92,-1.44,-209.44
37598,805.77,760.96,755.11,752.34,768.55,0.00,-819.82,579.59,-3.26,-2.07,0.25,-209.22
37636,805.36,760.83,755.23,752.48,768.48,-38.57,-859.37,556.64,-0.23,0.72,-0.21,-205.79
37671,805.04,760.66,755.17,752.58,768.36,-23.44,-874.02,549.80,0.21,-1.85,-1.26,-206.33
37705,804.55,760.58,755.10,752.72,768.24,-2.44,-854.98,547.85,-0.44,-1.19,0.24,-208.01
37740,804.43,760.51,755.17,752.73,768.21,-39.55,-859.37,559.57,3.05,0.54,-2.50,-205.25
37775,804.40,760.78,755.15,752.84,768.29,-21.97,-845.21,568.36,0.24,-1.34,-2.18,-209.58
37813,804.35,760.89,755.23,752.83,768.32,-38.57,-875.00,541.99,-0.25,0.32,-0.85,-207.88
37848,804.44,761.08,755.15,752.94,768.40,-19.04,-884.77,527.83,1.98,0.95,-3.53,-213.37
37882,804.34,761.23,755.17,752.92,768.42,-35.64,-867.19,551.27,0.55,1.11,0.40,-213.48
37917,804.85,761.33,755.13,752.98,768.57,-30.27,-853.52,572.27,-2.21,0.18,-2.66,-217.89
37952,804.67,761.26,755.19,753.02,768.54,-33.69,-863.28,535.64,-1.26,1.76,-2.26,-215.80
37987,804.79,761.42,755.24,753.07,768.63,-27.34,-887.70,545.90,2.57,1.19,-2.67,-216.99
38025,804.50,761.73,755.26,753.02,768.63,-46.39,-870.12,545.90,0.08,-0.42,0.66,-217.49
38059,804.08,761.90,755.27,753.06,768.58,-29.30,-855.96,551.76,-0.12,2.77,0.50,-217.70
38094,804.13,762.13,755.30,753.14,768.68,-11.72,-876.46,543.46,-0.08,-0.27,0.52,-220.17
38129,804.64,762.19,755.30,753.13,768.82,-9.28,-869.63,556.15,2.22,-0.13,-3.01,-222.29
38164,805.13,762.10,755.24,753.13,768.90,-18.07,-850.59,552.25,2.18,0.17,1.30,-224.70
38199,805.74,761.93,755.24,753.15,769.02,-10.74,-839.36,573.73,-1.51,-0.39,1.20,-225.78
38237,806.28,761.58,755.22,753.14,769.06,-15.14,-863.77,576.17,-1.25,-0.42,2.76,-224.95
38272,806.69,761.29,755.23,753.17,769.10,-46.39,-854.98,565.92,-0.05,0.91,0.18,-224.40
38306,807.22,760.89,755.15,753.13,769.10,-30.27,-865.72,540.53,-3.34,-1.76,1.14,-224.26
38341,807.36,760.50,755.12,753.21,769.05,-40.04,-871.09,545.90,-2.50,-0.91,5.31,-223.47
38376,807.46,760.23,755.10,753.16,768.99,-38.09,-877.93,547.36,-2.92,0.02,3.18,-221.51
38411,807.46,760.12,755.08,753.17,768.96,-38.09,-848.14,553.22,-1.88,-3.52,4.14,-221.14
38449,807.10,760.16,755.19,753.15,768.90,-58.11,-830.57,569.34,4.50,0.36,-0.03,-217.24
38484,807.14,760.14,755.08,753.21,768.89,-27.83,-879.88,540.04,0.13,0.28,-1.00,-220.98
38519,806.69,760.07,755.10,753.22,768.77,-35.64,-872.56,542.48,-0.61,0.64,-0.77,-218.44
38553,806.03,759.84,755.07,753.21,768.54,-45.41,-862.30,558.11,-4.24,1.60,-0.69,-215.08
38588,804.79,760.06,755.11,753.23,768.30,-50.78,-876.95,540.53,0.58,2.59,-3.76,-211.61
38623,803.04,760.43,755.12,753.22,767.95,-50.29,-864.75,522.95,-4.12,2.53,-3.76,-208.43
38661,803.09,760.56,755.12,753.25,768.00,-21.48,-827.64,565.43,-2.12,4.54,-1.44,-210.09
38695,801.64,761.52,755.35,753.38,767.97,-67.38,-923.34,457.52,3.21,3.56,-8.79,-208.92
38730,801.68,761.57,755.34,753.33,767.98,-25.39,-854.98,561.52,1.67,-0.36,1.48,-209.00
38764,801.24,761.40,755.33,753.28,767.81,-29.79,-873.54,548.34,0.72,-1.92,-0.77,-205.63
38799,800.74,760.96,755.35,753.22,767.57,-18.07,-848.14,567.38,-3.68,-0.34,3.47,-198.91
38836,801.31,760.69,755.18,753.19,767.59,-21.00,-835.45,578.12,-3.11,2.10,0.27,-202.75
38871,801.06,760.56,755.18,753.14,767.49,-49.80,-885.74,549.80,-4.45,3.57,-0.18,-200.07
38906,800.13,761.07,755.33,753.28,767.45,0.98,-879.39,558.59,0.58,0.04,-2.47,-199.28
38941,799.99,761.03,755.31,753.19,767.38,-1.95,-880.86,552.73,3.59,0.21,-0.49,-197.60
38975,798.91,760.95,755.33,753.41,767.15,-30.76,-872.56,552.73,1.00,1.22,-2.52,-195.85
39010,798.42,760.94,755.34,753.27,766.99,-8.79,-838.87,573.73,3.56,1.05,-2.05,-191.67
39048,797.65,760.75,755.33,753.34,766.77,-17.58,-842.29,584.96,2.73,1.19,-0.46,-188.94
39082,796.95,760.91,755.38,753.49,766.68,-47.85,-857.42,550.78,-1.27,0.76,-2.95,-188.91
39117,795.84,761.02,755.36,753.62,766.46,-27.83,-848.14,556.64,5.72,0.75,-2.05,-188.27
39152,795.35,760.80,755.36,753.64,766.29,-16.60,-859.37,550.78,-2.33,2.05,1.52,-185.31
39187,794.42,761.15,755.48,754.02,766.27,-26.86,-869.63,550.29,1.07,0.57,-3.93,-187.30
39222,793.48,761.69,755.55,754.27,766.25,-27.83,-864.26,547.85,-0.48,3.98,-2.40,-190.49
39259,792.26,761.93,755.62,754.24,766.01,-37.11,-845.70,545.41,-2.23,4.54,-1.55,-186.09
39294,791.38,762.16,755.62,754.25,765.85,-28.32,-857.91,557.62,-2.72,2.42,-4.81,-184.91
39329,790.69,762.64,755.70,754.34,765.84,-30.27,-869.63,530.76,-1.89,1.42,-2.76,-185.65
39363,789.84,763.03,755.84,754.42,765.78,-37.60,-853.52,557.13,-0.71,1.32,-3.01,-183.52
39398,789.17,763.29,755.79,754.40,765.66,-30.27,-868.16,549.32,1.11,1.65,-1.89,-184.23
39433,788.21,763.71,755.99,754.37,765.57,-29.79,-866.21,547.36,2.42,1.63,-4.73,-179.09
39471,786.83,764.31,756.04,754.35,765.38,-32.23,-858.40,539.55,-1.79,0.59,-1.13,-177.65
39505,785.46,764.94,756.12,754.39,765.23,-31.74,-872.07,568.85,-0.91,3.63,-4.30,-176.42
39540,784.14,765.48,756.10,754.40,765.03,-14.65,-853.52,556.15,-2.02,0.37,-1.32,-177.03
39575,782.69,766.32,756.27,754.55,764.96,-28.81,-874.51,547.36,-0.56,3.75,-3.48,-176.51
39610,781.97,767.33,756.41,754.74,765.11,-23.44,-880.37,542.48,0.01,-0.47,-3.87,-181.66
39644,781.28,768.24,756.54,754.96,765.26,-44.43,-854.00,548.34,1.57,-1.78,-2.55,-186.44
39682,780.97,768.94,756.62,754.84,765.34,-30.27,-896.97,532.71,-4.60,-1.20,1.47,-187.51
39717,781.28,769.22,756.61,754.76,765.47,-13.18,-870.12,552.25,2.45,1.73,-0.07,-189.69
39751,781.94,769.41,756.59,754.60,765.63,-29.79,-872.56,553.22,1.89,-1.24,2.17,-191.74
39786,781.72,769.53,756.62,754.42,765.57,-21.97,-875.00,547.36,0.31,2.40,-1.85,-188.52
39821,781.94,769.77,756.72,754.31,765.68,-21.48,-845.21,571.78,-3.31,-0.60,-0.74,-187.11
39858,781.56,769.93,756.70,754.13,765.58,-21.00,-887.70,539.55,0.96,-0.79,-0.73,-184.89
39893,781.18,770.09,756.71,753.92,765.47,-5.37,-824.71,582.03,-3.14,-0.76,0.73,-181.66
39928,781.36,770.16,756.68,753.86,765.52,-19.04,-885.74,525.88,0.05,2.81,0.19,-182.55
39962,781.02,770.26,756.73,753.84,765.46,-18.07,-867.19,553.71,0.53,-0.05,-1.19,-180.68
39997,780.44,770.43,756.73,753.80,765.35,-25.88,-872.56,546.87,0.42,1.52,-1.81,-179.54
40032,780.05,770.78,756.78,753.74,765.34,-25.88,-859.37,560.06,2.96,2.12,-4.53,-178.71
40069,779.61,771.23,756.92,753.94,765.43,-17.58,-852.05,560.06,1.04,1.49,-4.66,-180.21
40104,779.20,771.44,756.89,753.93,765.36,-26.86,-865.72,554.69,-1.19,-0.85,0.03,-181.22
40138,778.94,771.62,756.99,754.02,765.39,-24.90,-860.84,563.96,-0.49,-2.40,1.09,-180.47
40173,778.39,771.89,756.98,754.02,765.32,-24.41,-877.44,552.73,-2.82,-0.40,-0.33,-181.21
40207,777.73,772.07,757.03,754.12,765.24,-21.48,-866.70,549.32,-0.96,1.70,-1.82,-180.76
40242,776.62,772.39,757.15,754.35,765.13,-17.09,-859.37,558.59,-0.89,0.48,0.16,-179.60
40280,775.75,772.94,757.29,754.42,765.10,-25.39,-846.19,526.37,-0.70,-2.63,-0.79,-178.69
40315,775.03,773.38,757.43,754.38,765.05,-29.79,-882.81,520.02,-1.49,0.50,1.21,-175.68
40349,774.70,773.63,757.46,754.48,765.07,-7.32,-864.26,560.55,-4.40,3.06,-1.15,-177.21
40384,774.44,773.71,757.53,754.28,764.99,-21.48,-866.21,548.83,0.36,-1.34,-4.44,-172.25
40418,774.37,773.70,757.37,754.12,764.89,-17.58,-870.12,541.50,0.65,-1.11,-0.62,-173.56
40453,774.58,773.53,757.41,753.96,764.87,-19.04,-860.84,560.55,-0.22,-1.24,-0.08,-169.72
40490,774.65,773.27,757.27,753.65,764.71,-12.70,-863.77,541.99,0.21,2.22,1.89,-166.68
40524,774.97,772.92,757.29,753.44,764.66,-12.21,-855.47,553.22,0.59,-1.42,-0.11,-161.38
40559,775.28,772.68,757.24,753.40,764.65,-19.04,-857.42,552.25,1.78,0.85,-2.68,-161.42
40594,775.28,772.67,757.13,753.40,764.62,-25.39,-859.37,553.22,-0.68,1.90,-0.37,-163.94
40629,775.21,772.57,757.15,753.31,764.56,-23.93,-860.84,556.64,-1.04,-0.21,-1.36,-160.93
40666,775.14,772.51,757.16,753.33,764.54,-21.97,-863.28,551.27,-1.44,0.15,0.63,-160.44
40701,775.08,772.51,757.23,753.33,764.54,-25.39,-858.89,549.32,-1.51,-1.86,-1.96,-158.43
40736,775.06,772.52,757.14,753.31,764.51,-19.53,-875.00,556.64,0.78,2.29,2.05,-160.34
40771,775.07,772.59,757.20,753.28,764.53,-16.60,-852.54,555.18,-1.02,0.52,1.63,-159.10
40805,775.14,772.95,757.18,753.24,764.63,-29.30,-873.54,536.62,-3.64,2.13,-1.18,-162.14
40840,775.21,773.13,757.21,753.41,764.74,-29.79,-859.37,546.87,1.60,-0.97,-0.40,-165.62
40878,775.33,773.40,757.20,753.49,764.86,-18.07,-860.84,552.25,-3.22,3.11,3.23,-169.59
40912,774.99,773.47,757.36,753.77,764.90,-43.95,-866.21,541.50,-0.21,-2.48,-0.38,-169.09
40947,774.08,773.64,757.36,753.95,764.76,-10.25,-867.68,557.62,-1.42,-1.25,-1.95,-169.95
40982,772.80,773.83,757.43,754.11,764.54,-10.74,-868.65,615.23,2.56,2.40,-2.28,-167.76
41017,771.44,773.96,757.48,754.37,764.31,-43.46,-881.84,536.62,-10.12,4.36,-2.66,-166.61
41051,769.79,774.12,757.57,754.55,764.01,-21.97,-876.95,558.59,-10.32,1.00,1.11,-162.79
41089,768.04,774.09,757.55,754.19,763.47,-8.30,-867.19,556.15,-4.30,0.55,1.34,-151.56
41124,767.48,773.47,757.35,753.44,762.93,-14.65,-869.14,551.76,-0.14,-3.44,2.95,-138.69
41158,769.12,772.18,757.09,752.51,762.73,-20.02,-852.54,557.13,6.41,-2.80,0.21,-126.80
41193,772.10,770.27,756.81,751.65,762.71,-45.41,-897.95,533.20,-1.31,-3.33,1.64,-115.97
41228,774.42,768.24,756.49,751.08,762.56,-27.34,-859.86,536.13,-2.03,-5.63,2.66,-107.19
41263,774.88,766.50,756.19,750.40,761.99,-39.06,-847.17,541.99,0.85,-0.50,4.02,-92.37
41301,775.02,764.39,755.92,749.78,761.28,-24.41,-864.26,547.36,8.82,-7.08,4.85,-73.48
41336,777.93,763.21,755.73,749.67,761.64,-36.13,-847.66,557.13,13.82,-5.98,6.07,-77.15
41371,780.12,762.12,755.50,749.53,761.82,-27.83,-874.02,509.28,12.73,-4.05,10.74,-79.52
41405,783.75,761.60,755.43,749.70,762.62,-62.50,-904.79,564.45,10.18,-4.69,1.69,-91.99
41440,787.94,761.82,755.46,750.04,763.82,-28.81,-854.98,588.38,-4.30,1.86,-0.73,-112.48
41475,789.35,761.94,755.43,750.43,764.29,-25.88,-873.54,588.38,15.79,-2.89,-0.15,-124.78
41517,791.87,762.03,755.45,750.63,764.99,-50.29,-865.23,555.66,10.97,-5.40,-0.14,-136.56
41552,793.98,761.66,755.44,750.74,765.46,-27.34,-818.85,588.87,-3.75,-1.92,5.15,-142.75
41587,794.93,761.59,755.42,751.01,765.74,-42.97,-868.16,580.08,-1.29,-2.18,-0.02,-149.85
41622,795.42,761.78,755.52,751.41,766.04,-24.90,-835.94,584.96,5.89,-3.40,-1.06,-156.42
41656,796.16,762.25,755.58,751.79,766.44,2.93,-811.04,603.03,1.25,-0.32,-3.22,-166.94
41696,797.48,762.58,755.59,751.88,766.88,-3.91,-802.25,599.12,0.59,-3.21,-2.64,-175.19
41730,797.98,762.64,755.66,752.21,767.12,-19.53,-878.42,548.83,0.65,0.00,1.31,-180.37
41765,797.93,763.38,755.73,752.58,767.40,-33.20,-848.14,577.64,0.96,-1.31,-0.56,-189.99
41800,796.98,763.98,755.84,752.95,767.44,-35.16,-826.66,568.85,-0.76,2.17,-3.97,-194.19
41835,796.26,764.31,755.88,752.97,767.35,-12.21,-840.33,573.24,1.31,7.11,-1.41,-193.54
41869,795.60,764.71,755.89,753.07,767.32,-25.88,-864.26,555.66,1.01,4.24,-3.15,-195.82
41907,795.04,764.90,755.94,753.00,767.22,0.00,-831.05,593.75,4.27,0.94,-4.69,-193.12
41941,795.09,764.91,755.91,753.17,767.27,1.95,-846.68,571.78,2.03,0.53,-6.90,-196.57
41976,794.33,765.14,755.97,753.19,767.16,-27.83,-853.52,573.24,-3.24,0.71,-2.46,-194.60
42011,794.35,765.54,755.98,753.24,767.28,-23.44,-848.14,571.29,-2.45,2.96,-1.28,-198.49
42045,794.14,765.59,755.97,753.09,767.20,-7.81,-864.75,589.36,-3.19,2.34,-1.01,-196.19
42080,792.81,765.62,755.97,753.21,766.90,-27.83,-857.91,552.25,-3.08,0.90,0.32,-193.54
42118,792.28,765.91,756.03,753.16,766.85,-16.60,-858.89,565.43,-0.27,2.56,-1.75,-191.82
42153,792.15,765.91,755.92,753.08,766.76,-12.70,-841.80,583.50,-0.42,-2.08,-0.21,-192.86
42188,791.36,765.79,756.10,753.13,766.59,-16.60,-838.87,579.10,-0.24,0.17,-1.78,-185.54
42222,790.88,766.12,756.08,753.51,766.65,-23.44,-859.37,570.80,0.85,-0.40,-1.69,-192.69
42257,789.74,766.48,756.23,753.64,766.52,-18.07,-847.17,572.27,-0.79,1.67,1.04,-189.74
42292,788.90,766.54,756.22,753.84,766.38,-28.81,-844.73,569.82,0.12,-0.28,-0.54,-190.69
42330,788.05,766.78,756.20,753.70,766.18,-0.49,-855.96,558.11,-0.75,0.22,-2.36,-187.92
42365,787.18,766.76,756.22,753.68,765.96,-16.11,-854.00,574.22,-0.82,2.17,-0.67,-184.08
42400,786.66,767.13,756.26,753.67,765.93,1.95,-851.07,567.87,0.50,-0.17,-3.02,-184.24
42435,786.48,767.55,756.25,753.67,765.99,4.88,-844.24,574.22,-0.57,-2.56,-2.23,-187.23
42470,786.61,767.74,756.21,753.53,766.02,-31.25,-836.91,563.48,1.29,0.29,-0.11,-188.01
42505,787.46,767.84,756.23,753.28,766.20,-21.97,-858.89,560.55,-0.70,1.92,1.12,-187.52
42542,789.08,767.90,756.17,753.23,766.59,1.95,-837.89,585.45,1.63,0.10,-0.45,-194.50
42577,790.53,767.77,756.16,753.06,766.88,-24.90,-867.19,571.29,-0.82,-0.11,2.82,-195.92
42612,792.25,767.57,756.07,752.89,767.19,-19.53,-851.56,564.94,0.52,-0.40,-1.05,-200.06
42647,793.60,767.62,755.99,752.82,767.51,-2.93,-838.87,579.59,-1.14,0.02,-0.95,-206.13
42682,794.28,767.26,755.94,752.55,767.51,-14.16,-841.31,574.71,-2.90,3.65,1.89,-202.82
42719,794.59,766.89,755.93,752.42,767.46,-7.81,-841.80,593.75,-3.63,0.99,0.66,-199.25
42754,794.89,766.41,755.85,752.20,767.34,-25.88,-837.40,583.50,-4.99,0.34,2.76,-195.10
42789,795.72,766.10,755.71,752.13,767.41,-21.48,-846.68,555.66,-3.66,-0.99,-0.21,-197.88
42824,796.02,765.52,755.67,752.11,767.33,-19.04,-844.24,567.87,-9.02,1.99,1.48,-194.96
42859,795.66,765.28,755.73,752.18,767.21,-3.91,-830.57,580.57,-2.35,2.49,0.41,-191.37
42894,794.87,765.87,755.68,752.51,767.23,-17.58,-860.84,561.52,-1.74,1.78,-1.78,-199.66
42931,794.14,766.42,755.69,752.46,767.18,0.49,-850.10,571.78,-5.52,2.42,-0.66,-200.49
42966,793.98,766.37,755.69,752.37,767.10,-16.11,-865.23,554.20,-6.34,1.55,-0.27,-198.31
43001,794.58,766.41,755.61,752.50,767.27,-44.92,-856.93,543.95,-6.66,0.69,1.56,-204.55
43036,794.91,766.43,755.56,752.51,767.35,-32.71,-879.88,558.59,-2.21,4.15,-0.66,-207.05
43071,794.20,765.99,755.51,752.52,767.05,-27.83,-853.52,553.22,-6.49,0.18,0.84,-202.55
43106,794.24,765.62,755.49,752.58,766.98,-29.30,-871.58,546.39,-1.61,-0.39,0.02,-201.13
43144,793.78,765.62,755.55,752.71,766.92,-18.55,-849.61,560.06,2.89,1.63,-0.30,-200.03
43179,793.98,765.65,755.50,752.77,766.98,-31.74,-870.12,547.36,-0.36,1.40,-0.53,-203.09
43214,793.93,766.01,755.62,752.95,767.13,-32.23,-893.07,531.74,0.90,0.22,-0.44,-205.31
43249,794.14,766.05,755.61,752.91,767.18,-16.11,-858.89,553.71,1.69,2.92,0.18,-206.24
43284,794.69,765.98,755.57,752.95,767.30,-16.11,-844.24,568.85,3.62,-2.92,1.18,-209.10
43319,795.22,765.70,755.56,752.97,767.36,-25.39,-851.56,551.76,-0.76,-0.72,-0.17,-208.99
43356,796.39,765.89,755.59,753.02,767.72,-28.81,-863.28,538.57,1.15,2.23,-2.82,-214.59
43391,796.12,765.78,755.63,753.11,767.66,-16.11,-860.35,551.27,-0.64,0.85,-0.99,-213.30
43425,795.73,765.56,755.65,753.20,767.54,-2.93,-854.98,565.92,-0.41,-0.89,0.12,-211.10
43460,795.90,765.22,755.58,753.05,767.44,-12.70,-838.87,577.64,1.15,-0.28,0.64,-208.51
43495,795.90,764.61,755.54,753.10,767.29,-36.62,-873.05,538.57,-3.40,3.45,-1.02,-204.94
43529,794.40,765.02,755.64,753.38,767.11,-21.48,-854.00,549.32,0.90,-1.14,-2.02,-205.08
43567,793.38,764.88,755.59,753.47,766.83,-24.41,-838.87,543.95,-3.24,-2.33,-0.82,-202.93
43601,792.62,764.79,755.57,753.39,766.59,-16.11,-862.79,574.22,2.22,3.58,-0.53,-198.68
43636,792.54,764.50,755.62,753.59,766.56,-30.27,-851.07,566.41,-2.08,2.85,-0.17,-197.94
43670,791.67,764.93,755.73,753.82,766.54,-31.74,-840.33,546.39,-2.48,4.31,-2.61,-199.09
43705,790.29,765.51,755.74,753.99,766.38,-11.72,-870.12,542.48,-3.45,4.79,-4.91,-201.28
43742,788.50,765.58,755.75,753.90,765.93,-27.83,-827.15,545.90,-8.05,6.37,-1.85,-194.14
43777,786.79,765.75,755.74,753.97,765.56,-25.88,-871.09,510.25,-0.50,5.18,-5.24,-190.94
43812,784.98,766.03,755.77,753.98,765.19,-20.51,-838.87,558.59,-5.37,-0.39,-0.75,-186.37
43847,784.28,766.30,755.83,754.20,765.15,-26.37,-908.20,501.46,-2.24,-1.85,1.26,-187.91
43881,784.78,766.78,755.99,754.47,765.51,-26.86,-872.56,542.97,0.18,0.87,1.53,-193.43
43916,785.16,767.38,755.97,754.36,765.72,-5.86,-862.79,564.45,-1.36,2.53,-1.37,-198.26
43954,785.09,767.85,756.04,754.23,765.81,-20.51,-864.26,541.50,-0.85,0.65,-2.95,-198.27
43989,784.59,768.30,756.01,754.11,765.75,-33.69,-867.19,534.67,-0.52,1.50,-2.14,-199.17
44024,784.30,768.45,756.03,753.94,765.68,-34.18,-863.28,540.04,-2.02,-0.47,-1.03,-196.36
44059,783.62,768.54,756.04,753.94,765.53,-32.71,-874.02,540.04,0.60,0.80,-0.99,-194.53
44094,783.23,768.80,756.10,753.99,765.53,-23.44,-867.19,541.02,0.47,0.40,-0.61,-194.49
44129,783.05,769.11,756.21,754.20,765.64,-22.95,-870.12,533.20,0.57,1.29,-1.00,-196.68
44166,782.83,769.77,756.22,754.48,765.82,-28.81,-880.86,546.39,-0.12,-0.41,-2.15,-205.00
44201,781.65,770.49,756.33,754.61,765.77,-18.55,-833.01,544.92,0.44,1.18,0.10,-205.89
44236,780.46,771.38,756.52,754.86,765.81,-43.95,-857.42,514.16,-1.16,1.97,-2.90,-208.09
44271,779.61,772.30,756.59,754.95,765.86,-26.86,-863.77,550.29,2.54,2.66,-3.10,-212.04
44306,778.31,773.13,756.67,754.91,765.76,-33.20,-949.22,527.83,3.32,0.93,-1.94,-211.47
44341,777.68,773.54,756.71,754.63,765.64,-22.46,-849.12,552.73,1.49,0.97,-3.23,-207.67
44378,776.89,773.91,756.79,754.44,765.51,-33.69,-876.46,540.04,-1.85,4.61,0.11,-203.15
44413,775.89,774.53,756.77,754.30,765.37,-21.00,-861.33,558.59,-0.65,2.34,-1.50,-203.27
44448,776.06,775.01,756.83,754.27,765.54,-20.51,-863.28,550.29,1.24,1.63,-0.61,-205.67
44483,776.05,775.60,756.85,754.48,765.75,-4.39,-856.93,545.90,-2.22,-0.32,-2.15,-212.78
44518,775.74,776.36,757.00,754.55,765.91,-20.02,-895.02,540.04,-2.25,-0.76,-1.82,-215.22
44555,774.60,776.81,757.12,754.42,765.74,-26.37,-863.77,538.09,-1.71,1.15,1.50,-210.09
44590,774.20,776.97,757.12,754.38,765.67,-18.55,-868.16,548.83,-0.34,2.09,-1.82,-209.42
44625,773.87,777.39,757.12,754.40,765.70,-23.93,-843.75,529.79,-0.21,-2.13,-1.34,-211.83
44660,773.40,777.76,757.18,754.44,765.70,-30.27,-861.82,541.02,-1.67,0.17,-1.48,-212.25
44695,772.93,777.84,757.23,754.40,765.60,-11.72,-866.21,540.04,0.02,0.60,-0.09,-209.51
44730,772.28,777.90,757.34,754.51,765.51,-9.28,-864.26,553.22,0.82,-0.63,-0.72,-206.65
44767,771.83,778.20,757.31,754.47,765.45,-22.95,-868.65,528.32,1.58,-1.26,0.27,-207.80
44802,771.67,778.12,757.39,754.45,765.41,-27.83,-867.19,542.48,1.31,0.98,0.68,-204.29
44837,771.39,778.10,757.46,754.37,765.33,-24.90,-858.89,535.64,-1.14,1.43,-1.56,-200.11
44872,771.06,777.91,757.43,754.29,765.17,-25.88,-874.02,525.88,-1.69,1.80,-1.86,-197.15
44907,770.95,777.60,757.43,754.27,765.06,-26.37,-870.12,549.32,0.76,-0.82,0.92,-194.01
44942,770.98,777.25,757.41,754.19,764.96,-14.16,-853.52,546.87,-1.69,-2.57,-0.26,-190.38
44980,771.22,776.86,757.40,753.94,764.85,-22.46,-887.21,548.83,0.27,-2.38,-1.42,-184.87
45014,771.56,776.56,757.40,753.84,764.84,-6.35,-879.88,557.62,-1.02,0.30,-0.15,-182.16
45049,771.73,776.33,757.34,753.65,764.76,-24.41,-863.28,542.97,-1.34,1.37,-0.03,-179.45
45084,771.58,776.12,757.36,753.44,764.63,-7.81,-855.96,558.59,-1.17,1.37,-1.86,-173.72
45119,771.58,775.90,757.40,753.31,764.55,-26.86,-884.28,551.27,-0.04,-0.51,-0.53,-169.23
45154,771.67,775.63,757.25,753.15,764.43,-21.97,-855.47,552.25,0.98,0.99,0.48,-168.58
45191,771.83,775.50,757.19,753.08,764.40,-18.55,-866.21,550.29,-1.15,1.85,-0.60,-168.45
45226,771.72,775.46,757.28,753.06,764.38,-21.48,-858.89,552.73,-0.89,-0.43,-1.58,-165.22
45261,771.92,775.44,757.25,753.07,764.42,-23.44,-865.72,538.09,0.80,-2.60,0.63,-166.81
45295,772.09,775.56,757.19,753.24,764.52,-17.09,-863.77,548.34,0.20,-1.15,-0.21,-172.16
45330,772.01,775.61,757.26,753.30,764.55,-14.16,-876.46,544.92,-4.20,-1.19,-0.13,-171.67
45365,771.58,775.63,757.28,753.38,764.47,-10.74,-868.16,547.85,-1.49,0.37,1.74,-170.93
45402,771.43,775.74,757.28,753.48,764.48,-13.18,-854.49,595.21,-4.04,1.64,0.58,-172.98
45437,771.29,775.52,757.25,753.47,764.38,-7.32,-883.30,518.07,0.98,-1.92,-0.29,-170.97
45472,771.16,774.74,757.12,753.09,764.03,-22.46,-846.68,548.83,-3.14,1.14,1.00,-162.07
45507,771.61,773.51,756.98,752.73,763.71,-21.00,-820.31,575.68,5.13,-3.98,1.08,-151.81
45542,771.78,772.70,756.81,752.84,763.53,-19.04,-888.67,559.57,0.54,-2.56,-0.30,-151.97
45580,771.40,772.59,756.93,752.66,763.39,-30.76,-873.05,540.04,-2.47,1.02,1.25,-143.97
45614,772.48,772.34,756.69,752.07,763.40,-19.04,-873.54,527.83,-4.44,-0.21,-2.10,-142.99
45649,773.90,771.46,756.54,751.57,763.37,-1.95,-867.68,550.29,8.37,-1.02,0.60,-137.18
45684,774.37,770.61,756.46,751.31,763.19,-23.93,-853.03,551.76,0.30,0.05,-0.79,-130.25
45719,776.02,769.80,756.25,750.89,763.24,-54.69,-866.70,474.12,-1.61,-3.40,2.41,-128.40
45754,778.80,768.47,756.09,750.73,763.52,-19.04,-894.53,509.28,2.47,-2.16,2.99,-129.05
45792,781.42,767.39,755.93,750.80,763.89,-36.62,-860.84,534.18,5.73,-0.91,2.08,-134.12
45827,784.94,767.32,755.93,751.07,764.82,-59.57,-921.87,526.86,10.69,-3.69,1.08,-149.63
45863,786.82,766.78,755.88,751.24,765.18,-28.32,-864.26,542.97,13.98,-1.92,0.22,-155.72
45897,787.11,765.87,755.78,751.16,764.98,-53.22,-880.86,541.02,7.56,0.21,1.75,-150.58
45932,788.86,765.04,755.75,751.12,765.19,-7.81,-848.14,572.27,4.16,-4.45,-0.45,-150.21
45968,791.20,764.25,755.63,750.83,765.48,-6.84,-832.03,568.85,0.29,1.67,0.85,-150.57
46005,792.18,763.33,755.48,750.65,765.41,-27.83,-894.53,567.38,5.53,-5.12,1.87,-147.48
46040,793.22,762.52,755.49,750.75,765.49,-1.46,-848.63,562.01,-2.64,-2.83,3.91,-145.88
46075,794.24,762.34,755.46,750.88,765.73,-16.11,-836.91,591.31,2.12,0.15,-1.48,-150.62
46110,794.34,762.52,755.52,751.29,765.92,-22.46,-857.42,553.22,-2.11,-0.90,-2.61,-156.98
46145,795.34,762.96,755.52,751.76,766.40,-24.41,-822.27,596.19,2.79,-1.76,0.04,-170.90
46180,795.89,763.91,755.58,752.19,766.89,-35.64,-877.44,549.80,4.29,0.34,-4.04,-184.99
46218,795.22,764.65,755.69,752.51,767.02,-10.74,-821.78,584.96,1.44,-0.27,-2.98,-190.79
46253,795.23,764.96,755.69,752.73,767.15,-13.18,-815.92,569.34,0.54,0.87,-1.78,-196.37
46288,795.05,765.16,755.76,752.69,767.16,-35.16,-886.23,538.57,-3.25,1.37,-1.08,-195.22
46323,795.08,765.19,755.72,752.84,767.21,-31.25,-815.43,597.66,-2.37,1.08,-2.46,-198.65
46358,795.67,765.58,755.78,752.89,767.48,0.49,-846.68,583.50,1.84,-3.13,-3.44,-203.15
46393,795.68,765.15,755.71,752.68,767.30,-18.55,-846.68,583.01,0.39,-1.96,1.06,-198.27
46431,796.02,764.68,755.63,752.42,767.19,-20.51,-831.54,590.33,0.83,-0.02,0.19,-193.88
46466,796.09,763.83,755.58,752.11,766.90,-4.39,-830.08,572.75,-3.30,0.35,3.02,-184.00
46501,797.34,763.21,755.47,751.73,766.94,-23.93,-858.89,575.20,-6.28,1.24,3.43,-180.45
46536,798.77,762.29,755.33,751.64,767.01,-22.95,-809.08,614.75,-5.27,-1.63,3.44,-180.05
46571,799.64,761.69,755.36,751.69,767.10,-14.65,-851.56,554.69,-4.79,-0.90,3.03,-178.29
46608,799.75,761.77,755.40,752.05,767.24,-70.31,-869.14,534.67,-1.99,-0.50,-0.79,-183.51
46643,798.87,761.74,755.39,752.27,767.07,-28.81,-844.24,589.84,-2.10,-1.11,0.60,-183.80
46678,798.41,761.94,755.45,752.30,767.02,-14.65,-838.87,577.64,-1.98,0.63,-0.79,-182.91
46712,798.38,762.22,755.48,752.47,767.14,-10.74,-868.16,559.57,1.92,1.13,-4.56,-186.77
46747,798.07,762.52,755.44,752.62,767.16,-24.41,-869.63,555.66,0.18,-0.51,-4.00,-191.18
46781,797.28,762.79,755.50,752.77,767.09,-18.07,-856.45,579.10,-1.40,1.02,0.17,-191.41
46820,796.74,762.83,755.50,752.84,766.98,-31.25,-825.68,583.50,0.39,-3.98,-0.84,-191.08
46855,796.48,762.93,755.61,752.81,766.96,6.35,-837.40,585.94,-0.23,-2.98,0.33,-187.78
46889,796.76,762.99,755.48,752.86,767.03,-25.39,-845.21,580.08,1.71,1.02,-2.15,-193.02
46924,797.07,762.90,755.46,752.84,767.07,-3.91,-840.82,586.91,2.88,1.23,-0.75,-193.82
46959,797.16,762.83,755.45,752.83,767.07,-10.74,-853.52,593.26,-0.09,-0.19,1.21,-193.48
46994,797.54,762.81,755.42,752.88,767.17,-26.37,-858.40,573.73,0.03,2.11,0.71,-196.06
47031,798.81,762.85,755.41,752.88,767.49,-22.95,-867.68,558.59,0.96,-0.08,-0.79,-200.97
47066,799.82,762.98,755.43,752.96,767.80,-35.64,-874.02,555.18,-0.36,-0.08,0.89,-206.16
47101,801.16,763.13,755.49,752.98,768.19,-50.29,-855.47,541.50,-0.98,0.20,-1.83,-210.83
47136,801.72,763.15,755.39,752.93,768.30,-5.86,-808.59,605.47,0.53,0.11,-1.78,-214.80
47171,802.48,763.10,755.47,752.91,768.49,-2.93,-837.40,591.31,-1.48,-2.91,0.82,-214.54
47206,803.21,762.98,755.51,753.02,768.68,-11.23,-822.27,584.47,-2.47,1.55,0.26,-216.74
47244,804.30,762.69,755.37,752.98,768.83,-16.11,-829.59,589.36,-4.21,2.11,-0.17,-221.00
47279,804.24,762.49,755.31,753.00,768.76,-36.13,-861.82,563.48,-2.91,1.66,1.98,-220.87
47314,804.03,762.58,755.33,752.99,768.73,-26.37,-857.91,547.36,-3.18,1.50,0.24,-220.50
47349,803.37,762.65,755.35,753.04,768.60,-27.83,-838.87,562.01,0.26,-2.20,1.39,-218.90
47384,802.49,762.46,755.35,753.05,768.34,-26.86,-851.56,578.61,-0.86,-2.67,1.96,-214.72
47419,802.30,762.74,755.33,753.05,768.35,-27.34,-869.14,565.43,1.33,-2.91,-0.57,-216.57
47456,801.23,762.40,755.42,753.18,768.06,-43.46,-875.00,557.13,0.74,-0.20,0.29,-209.78
47491,801.12,762.50,755.43,753.26,768.08,-26.86,-851.07,575.20,4.73,-1.98,-0.24,-211.18
47526,801.24,762.46,755.48,753.37,768.14,-18.07,-860.84,557.13,8.37,-2.63,0.79,-211.72
47561,800.47,762.15,755.43,753.39,767.86,-21.00,-864.26,570.31,-1.17,1.18,-0.54,-208.09
47596,800.13,762.18,755.53,753.46,767.83,-53.22,-878.42,552.73,2.99,-2.47,-1.20,-205.66
47634,799.60,762.00,755.47,753.31,767.59,-42.97,-847.17,566.89,-4.44,1.55,-2.97,-201.69
47669,799.07,761.95,755.43,753.26,767.43,-33.69,-850.10,578.12,-7.77,5.57,-3.45,-199.91
47704,799.12,762.06,755.41,753.14,767.43,-34.67,-855.96,575.68,-3.41,4.15,0.02,-199.63
47739,799.95,762.34,755.40,753.04,767.68,-10.25,-833.98,575.20,-4.40,4.73,-1.20,-203.47
47774,799.90,762.42,755.48,753.17,767.74,-44.43,-896.00,518.07,-2.20,2.66,-3.45,-203.83
47809,799.18,762.33,755.43,753.06,767.50,-35.64,-881.84,541.50,-0.34,1.82,-0.44,-200.22
47847,799.24,761.84,755.32,753.03,767.36,-20.51,-866.70,533.20,-0.83,1.22,2.47,-198.97
47882,797.90,761.89,755.38,753.42,767.15,-42.97,-867.19,562.50,-0.54,0.27,-1.15,-199.06
47917,797.25,762.12,755.44,753.58,767.10,-28.81,-879.88,551.27,-0.32,0.94,-1.73,-199.35
47952,796.59,761.98,755.51,753.69,766.95,-35.16,-858.40,545.41,0.31,-3.91,1.53,-195.84
47987,795.50,762.04,755.51,754.10,766.79,-33.69,-861.82,550.78,0.29,2.36,-1.14,-198.75
48022,794.17,762.24,755.61,754.17,766.55,-32.23,-852.54,549.80,-4.87,1.79,0.27,-194.16
48059,793.21,762.21,755.63,754.14,766.30,-34.18,-819.82,573.73,-1.48,3.16,-0.51,-189.81
48094,792.79,762.04,755.67,754.12,766.15,-29.79,-850.59,564.94,-7.62,0.05,-0.78,-185.80
48129,792.81,761.93,755.70,754.51,766.24,-41.99,-888.18,551.27,-4.93,2.19,1.05,-189.96
48164,792.10,761.56,755.63,755.04,766.08,-47.85,-869.63,546.87,-1.33,-0.11,-0.24,-194.00
48199,791.32,761.45,755.76,755.29,765.96,-21.00,-857.42,564.94,3.16,1.50,0.92,-190.85
48234,790.47,761.20,755.72,755.24,765.66,-40.04,-873.05,550.29,-2.47,2.73,-1.60,-186.01
48272,789.30,761.32,755.81,755.08,765.38,-30.76,-852.05,553.71,1.10,0.95,-2.12,-178.37
48306,788.49,761.35,755.83,754.99,765.16,-32.71,-887.21,545.41,-1.78,-0.97,-1.79,-174.05
48341,787.58,761.55,755.92,754.88,764.98,-28.32,-863.77,546.39,-0.27,-0.47,-2.82,-168.64
48376,786.58,761.69,755.85,754.75,764.72,-56.15,-856.93,525.88,1.17,0.79,-3.36,-166.27
48411,785.22,761.93,756.00,754.73,764.47,-45.41,-868.65,545.90,1.03,1.24,-2.18,-159.42
