currTime,s1,s2,s3,s4,s,AccX,AccY,AccZ,GyroX,GyroY,GyroZ,GRF
25,833.04,758.80,754.03,764.58,777.61,146.48,-928.71,433.59,0.50,2.69,-0.38,-385.78
63,832.96,758.84,754.01,764.70,777.63,160.64,-926.27,431.64,2.32,1.68,-0.23,-386.08
102,832.88,758.85,754.03,764.59,777.59,144.53,-913.09,421.39,1.90,1.21,-0.58,-385.59
140,832.96,758.90,754.05,764.65,777.64,147.95,-913.09,445.80,1.20,2.14,0.58,-387.01
178,833.00,758.87,753.98,764.58,777.61,148.44,-906.25,412.60,0.82,0.64,1.16,-385.31
216,832.98,758.86,754.07,764.66,777.64,155.27,-900.39,427.25,-0.25,2.17,-1.05,-387.11
256,833.15,758.76,754.05,764.49,777.61,151.86,-924.80,438.96,0.97,1.78,-0.59,-385.38
294,833.25,758.73,753.94,764.49,777.60,136.72,-914.06,435.06,0.40,-0.42,-3.58,-384.05
332,833.39,758.75,754.00,764.40,777.63,140.62,-911.13,427.25,0.99,0.75,-0.16,-384.75
370,833.62,758.67,754.03,764.34,777.67,149.41,-918.46,423.34,-0.69,1.28,0.03,-385.17
408,833.83,758.68,753.89,764.30,777.68,146.00,-917.97,432.62,0.19,2.21,0.43,-383.89
446,834.16,758.56,753.91,764.19,777.71,139.16,-909.18,431.15,1.58,-1.44,-0.14,-383.83
487,834.32,758.55,753.92,764.08,777.71,154.79,-907.71,420.41,-2.26,1.11,-1.15,-383.68
525,834.44,758.47,753.78,764.08,777.69,160.16,-916.50,429.20,0.60,-2.51,1.05,-381.49
563,834.64,758.42,753.82,764.05,777.73,144.53,-916.50,428.22,0.41,1.58,-0.29,-382.51
601,834.54,758.43,753.81,764.06,777.71,155.76,-913.57,432.62,-0.97,1.47,0.18,-382.11
638,834.33,758.53,753.85,764.11,777.70,149.41,-907.23,419.43,-1.87,-0.29,-1.40,-382.75
676,834.33,758.49,753.79,764.18,777.70,151.86,-903.32,425.29,0.60,2.21,-0.71,-382.20
716,834.13,758.52,753.82,764.27,777.69,153.81,-919.43,436.04,-0.76,0.71,1.28,-382.68
755,833.85,758.58,753.86,764.38,777.67,141.11,-921.39,429.69,1.94,2.45,0.45,-383.39
793,833.65,758.60,753.92,764.45,777.65,149.90,-900.88,426.76,-0.02,1.09,2.70,-384.10
831,833.64,758.64,753.98,764.51,777.69,145.02,-911.13,418.46,-1.26,1.46,0.15,-385.86
869,833.55,758.62,753.96,764.59,777.68,157.71,-914.55,434.08,0.97,-2.34,1.54,-385.66
912,833.37,758.68,753.95,764.53,777.63,158.20,-916.99,430.66,-0.45,2.24,0.31,-384.53
952,833.26,758.59,754.04,764.63,777.63,156.25,-909.67,436.52,0.24,-2.50,0.78,-385.37
991,833.17,758.74,753.97,764.60,777.62,146.48,-922.85,428.71,-1.11,-0.93,1.04,-385.17
1029,833.26,758.68,753.97,764.64,777.63,137.21,-904.30,428.71,0.33,1.88,-2.24,-385.20
1067,833.29,758.76,753.98,764.57,777.65,148.93,-926.27,440.92,0.69,0.18,0.25,-385.66
1105,833.10,758.71,753.96,764.64,777.60,147.46,-917.48,430.66,0.31,-0.08,1.21,-384.74
1143,833.02,758.76,753.97,764.67,777.60,161.62,-916.02,421.87,-1.22,-0.31,-0.13,-384.91
1183,833.04,758.73,753.99,764.64,777.60,156.25,-918.95,426.76,2.35,1.14,1.58,-385.05
1221,833.01,758.77,753.98,764.60,777.59,152.83,-925.78,415.53,-0.69,0.43,-1.89,-384.82
1259,832.90,758.74,753.99,764.61,777.56,149.41,-919.92,427.73,0.11,1.25,2.79,-384.21
1298,832.95,758.76,753.90,764.52,777.53,144.53,-922.36,424.32,-0.61,2.08,0.15,-382.54
1335,832.95,758.79,753.92,764.48,777.53,146.48,-916.02,427.25,0.81,1.05,0.15,-382.64
1376,832.80,758.76,753.93,764.40,777.47,148.44,-926.27,428.71,-2.04,1.22,1.28,-381.14
1414,832.71,758.78,753.97,764.41,777.47,140.14,-916.02,431.15,-0.31,1.60,1.43,-381.49
1452,832.60,758.78,753.95,764.40,777.43,145.51,-904.79,428.71,-0.74,0.57,-0.05,-380.68
1490,832.41,758.76,753.91,764.38,777.37,144.53,-906.25,432.13,1.12,1.41,-0.24,-378.99
1528,832.22,758.79,753.92,764.42,777.34,149.90,-908.20,423.83,0.65,-1.98,1.18,-378.68
1566,832.06,758.67,753.92,764.31,777.24,146.00,-912.60,430.18,2.33,0.02,-0.29,-376.63
1606,831.65,758.79,753.87,764.34,777.16,154.79,-921.87,411.62,-0.05,2.16,0.72,-375.17
1644,831.36,758.86,753.95,764.54,777.18,149.41,-905.27,420.90,-1.25,2.18,0.58,-376.85
1682,831.17,758.82,753.95,764.56,777.13,147.46,-915.04,424.32,0.62,0.07,2.82,-376.00
1721,831.07,758.93,754.00,764.63,777.16,141.60,-912.11,422.36,-1.11,3.88,-0.66,-377.45
1759,830.94,759.01,754.05,764.71,777.18,146.48,-911.62,425.78,-0.15,3.34,-1.33,-378.84
1797,830.83,759.09,754.06,764.66,777.16,147.46,-905.76,432.13,0.54,1.73,2.37,-378.75
1843,830.83,759.29,754.05,764.79,777.24,149.41,-905.76,434.57,-2.43,2.11,2.15,-381.75
1881,830.97,759.48,754.02,764.69,777.29,148.44,-918.46,421.87,-2.21,1.79,2.24,-382.47
1919,830.95,759.68,753.97,764.77,777.34,132.81,-917.48,431.64,-0.13,-1.29,-1.53,-383.21
1958,830.82,759.90,753.95,764.70,777.34,161.62,-920.90,419.92,-0.50,-0.06,0.11,-383.56
1996,830.69,760.20,753.84,764.65,777.35,148.44,-906.74,416.50,-3.63,-1.18,-1.33,-383.65
2034,830.22,760.54,753.88,764.76,777.35,154.30,-916.99,403.81,-4.69,2.44,3.13,-386.01
2074,829.79,760.89,753.86,764.82,777.34,139.65,-918.46,415.53,-1.44,1.08,3.21,-387.52
2112,829.77,761.29,753.86,764.87,777.44,141.60,-918.95,412.11,-1.74,0.31,2.24,-391.48
2149,829.57,761.68,753.91,764.96,777.53,141.60,-922.36,419.92,-0.93,0.56,1.82,-395.53
2187,829.11,762.03,753.98,765.14,777.57,147.95,-923.83,402.83,-2.04,-0.71,-1.80,-398.19
2225,828.55,762.24,753.97,765.16,777.48,140.14,-913.57,420.90,-0.42,0.34,0.00,-398.28
2263,828.40,762.41,753.99,765.17,777.49,148.44,-915.53,416.50,0.25,1.16,-1.02,-399.80
2303,828.18,762.40,754.01,765.07,777.41,143.07,-928.71,416.99,1.33,1.69,-0.10,-397.71
2341,828.29,762.36,753.94,764.96,777.39,139.16,-915.53,401.86,-2.18,2.14,1.00,-396.39
2379,828.17,762.28,753.88,764.96,777.32,151.37,-916.50,409.18,-1.88,-0.15,0.30,-395.42
2417,827.81,762.30,753.86,764.90,777.22,132.81,-919.43,410.16,0.73,0.37,0.43,-394.19
2455,827.67,762.23,753.86,764.80,777.14,142.58,-923.83,408.69,-1.29,3.19,-1.00,-392.88
2493,827.63,762.24,753.80,764.84,777.13,145.51,-909.67,416.50,-0.06,0.60,-0.40,-392.78
2533,827.40,762.26,753.72,764.86,777.06,141.60,-922.36,409.18,0.31,0.22,1.55,-392.37
2571,827.38,762.22,753.78,764.76,777.04,146.00,-918.46,404.79,1.32,1.28,-0.33,-391.53
2609,827.10,762.13,753.77,764.83,776.96,137.70,-914.06,401.37,1.39,1.51,1.26,-390.45
2647,826.98,762.12,753.81,764.81,776.93,134.77,-915.53,412.60,0.03,0.83,-0.39,-390.02
2685,826.87,762.15,753.81,764.76,776.90,143.07,-915.53,404.30,-2.00,0.37,0.95,-389.68
2723,826.71,762.08,753.81,764.88,776.87,145.51,-923.83,405.76,1.23,0.31,0.85,-389.46
2770,826.41,761.97,753.78,764.82,776.75,137.21,-927.25,404.79,-0.85,0.42,2.20,-386.85
2811,826.22,762.05,753.81,764.72,776.70,150.39,-909.67,410.64,1.42,4.41,-1.03,-386.20
2849,826.28,762.09,753.82,764.72,776.73,153.32,-928.22,418.46,-0.15,-0.18,2.76,-386.75
2887,826.36,761.98,753.87,764.68,776.72,144.04,-919.43,404.30,-0.59,2.02,1.01,-385.50
2925,826.27,762.02,753.78,764.63,776.67,145.51,-923.83,413.09,-0.46,1.80,-0.93,-385.04
2965,826.23,762.09,753.76,764.71,776.70,156.74,-913.09,408.69,-0.67,1.78,0.65,-386.58
3010,826.04,762.13,753.83,764.68,776.67,150.39,-916.02,405.27,-1.20,0.49,1.79,-385.99
3048,826.03,762.12,753.78,764.76,776.67,150.39,-920.41,409.18,2.55,-0.41,2.46,-386.84
3086,825.69,762.07,753.75,764.82,776.58,145.51,-931.64,414.55,-0.90,3.30,2.42,-385.36
3124,825.32,762.18,753.88,764.89,776.57,137.21,-909.18,403.81,0.44,1.09,3.48,-386.29
3162,824.93,762.25,753.88,764.93,776.50,129.88,-930.66,414.06,1.68,2.88,1.82,-386.16
3202,824.42,762.19,753.91,765.03,776.39,144.53,-933.11,415.53,0.68,2.77,-0.08,-384.75
3240,824.09,762.22,753.91,764.98,776.30,145.51,-921.39,436.04,0.47,1.23,-1.21,-383.42
3278,823.99,762.27,753.90,765.12,776.32,140.14,-916.99,422.85,1.82,3.35,-0.26,-385.13
3316,823.65,762.26,753.91,765.03,776.21,142.58,-911.13,404.30,2.47,0.92,1.05,-383.01
3354,823.43,762.22,753.89,765.00,776.13,149.90,-927.25,412.60,1.30,0.92,0.63,-381.64
3392,823.00,762.31,753.89,764.95,776.04,142.09,-914.55,415.53,-0.66,2.24,0.16,-381.04
3432,822.65,762.25,753.90,765.02,775.95,138.18,-916.02,423.34,0.09,0.37,-0.80,-380.04
3470,822.42,762.25,753.90,765.04,775.90,148.44,-924.32,410.64,0.08,0.49,3.96,-379.29
3508,822.31,762.25,753.89,765.05,775.88,147.46,-942.38,405.76,-0.31,-0.21,-1.21,-378.99
3546,822.08,762.19,753.91,765.01,775.80,148.93,-918.46,406.74,0.44,0.24,0.59,-377.27
3584,822.10,762.25,753.84,764.91,775.78,141.11,-920.41,426.27,-0.78,1.82,0.76,-376.78
3621,822.09,762.15,753.89,764.86,775.75,134.77,-929.20,412.60,-0.89,-0.47,-0.16,-375.62
3667,822.20,762.19,753.81,764.92,775.78,138.18,-926.27,412.11,2.24,-0.79,0.47,-376.33
3706,822.18,762.07,753.80,764.73,775.69,148.93,-932.13,410.16,0.53,2.79,0.28,-373.77
3743,822.14,762.12,753.78,764.64,775.67,137.21,-921.39,410.64,-1.33,1.61,0.97,-373.08
3782,821.95,762.06,753.74,764.53,775.57,140.62,-909.18,411.13,-0.18,3.41,0.82,-370.16
3820,821.94,762.07,753.78,764.51,775.58,141.11,-908.20,412.60,1.08,1.49,-1.73,-370.35
3858,821.86,762.08,753.69,764.52,775.54,152.83,-931.15,401.86,0.86,-0.56,0.89,-368.24
3898,821.85,762.02,753.63,764.47,775.49,129.88,-915.04,411.62,-0.20,2.31,-0.05,-364.76
3936,821.77,762.09,753.65,764.42,775.48,124.02,-911.13,412.11,-1.07,1.89,0.21,-366.38
3974,821.52,762.02,753.71,764.45,775.42,146.48,-921.39,385.25,2.12,1.29,-0.12,-366.11
4012,821.50,762.07,753.66,764.52,775.44,139.16,-912.60,402.34,1.73,3.30,-1.26,-364.48
4050,821.44,762.11,753.65,764.44,775.41,149.41,-915.53,405.27,-2.75,0.14,0.18,-364.44
4088,821.16,762.04,753.59,764.60,775.35,143.07,-924.80,405.27,-0.14,0.82,1.13,-358.93
4128,821.00,762.01,753.67,764.61,775.32,138.67,-939.45,396.48,-0.34,2.53,-0.83,-361.42
4166,820.83,762.12,753.70,764.63,775.32,135.25,-940.92,419.92,-0.32,0.22,3.03,-363.57
4204,820.56,762.13,753.73,764.66,775.27,81.54,-907.71,430.18,-0.52,1.67,-1.44,-363.82
4241,820.45,762.14,753.70,764.66,775.24,165.04,-927.73,461.91,-8.11,3.18,2.35,-361.05
4279,820.30,762.17,753.75,764.69,775.23,140.62,-937.99,409.18,2.24,4.98,0.06,-363.54
4317,820.07,762.16,753.76,764.75,775.19,141.60,-921.87,421.39,0.40,-0.63,1.34,-362.53
4357,819.83,762.21,753.80,764.84,775.17,166.99,-904.30,450.20,-2.43,3.15,1.17,-363.89
4395,819.56,762.35,753.82,764.89,775.16,146.00,-914.06,405.27,-2.31,0.70,-0.29,-365.32
4433,819.52,762.35,753.79,764.94,775.15,156.25,-923.83,404.30,1.90,1.38,-0.47,-363.88
4471,819.33,762.49,753.82,765.00,775.16,137.21,-924.80,396.00,-0.23,5.61,-1.63,-366.34
4509,819.10,762.52,753.88,765.15,775.16,135.74,-920.41,428.71,-0.37,1.97,1.56,-368.07
4547,818.69,762.65,753.97,765.31,775.16,148.93,-931.64,412.60,-1.76,1.69,3.22,-370.42
4593,818.27,762.82,754.04,765.48,775.15,153.81,-924.32,408.69,1.73,1.37,2.53,-373.90
4632,817.99,762.89,754.13,765.63,775.16,156.25,-919.43,417.97,-1.67,2.70,0.38,-375.63
4670,817.65,763.01,754.20,765.79,775.16,129.88,-916.50,416.99,0.50,1.66,1.73,-378.58
4708,817.16,763.10,754.21,765.87,775.09,137.21,-916.50,411.13,1.31,2.58,1.56,-380.01
4749,816.43,763.28,754.32,766.16,775.05,148.44,-927.73,414.06,1.16,2.63,2.89,-384.57
4787,815.84,763.50,754.43,766.49,775.07,144.53,-914.06,416.02,1.08,5.03,0.93,-389.40
4827,815.00,763.71,754.64,766.94,775.07,142.58,-935.06,419.43,2.27,0.42,1.51,-393.44
4865,813.85,763.90,754.79,767.24,774.95,131.35,-916.99,407.71,2.20,0.54,2.97,-395.98
4903,812.81,764.12,754.97,767.64,774.89,144.53,-914.55,411.62,0.98,0.34,-0.62,-400.46
4941,811.87,764.28,755.16,768.03,774.84,145.02,-928.22,410.64,2.06,1.09,-1.47,-404.33
4980,811.27,764.39,755.25,768.38,774.82,119.63,-931.15,407.23,1.11,1.63,2.32,-407.21
5018,810.63,764.55,755.41,768.70,774.82,139.16,-937.99,430.18,1.31,1.86,0.94,-409.75
5058,809.73,764.70,755.63,768.96,774.76,143.55,-928.22,412.11,0.87,0.79,1.08,-411.42
5096,809.03,764.70,755.73,769.20,774.67,136.72,-909.67,426.76,2.75,1.95,-0.14,-412.00
5134,808.42,764.72,755.83,769.40,774.59,129.39,-914.06,422.36,1.49,-0.56,0.89,-412.54
5172,808.17,764.70,755.83,769.42,774.53,140.62,-909.67,412.60,-0.72,0.48,-0.08,-411.71
5210,808.00,764.74,755.92,769.38,774.51,143.07,-921.87,417.97,1.52,3.01,0.20,-411.40
5251,807.71,764.67,755.95,769.42,774.44,136.23,-924.80,416.50,1.18,1.32,0.47,-410.29
5289,807.51,764.59,755.97,769.41,774.37,132.32,-902.34,425.78,-0.13,0.87,1.80,-408.97
5327,807.27,764.58,755.86,769.24,774.24,142.09,-927.73,420.90,-1.16,2.36,1.28,-405.95
5365,807.41,764.35,755.84,769.08,774.17,138.67,-918.46,418.46,-0.21,1.73,-1.14,-402.81
5403,807.67,764.13,755.64,768.54,774.00,143.55,-930.66,425.29,-0.40,3.76,-0.05,-396.42
5441,808.37,763.55,755.38,767.81,773.78,127.93,-919.92,415.04,-0.14,-0.08,-0.31,-383.88
5482,809.48,762.92,755.09,767.13,773.65,142.58,-918.46,433.11,-1.22,0.34,-0.88,-369.67
5526,810.47,762.39,754.87,766.49,773.56,135.74,-920.90,417.48,-3.44,2.97,-0.21,-357.98
5564,811.51,762.00,754.65,766.23,773.60,136.23,-909.67,414.55,0.65,3.28,-0.23,-352.90
5603,812.76,761.89,754.58,766.28,773.88,136.72,-916.99,417.48,-0.67,1.47,-0.27,-353.91
5641,815.49,761.99,754.57,766.51,774.64,150.88,-916.99,421.87,1.07,2.33,-1.32,-363.28
5679,819.74,762.36,754.59,766.75,775.86,141.11,-909.18,412.60,-0.97,2.37,-0.53,-389.13
5719,824.93,762.73,754.67,766.87,777.30,146.48,-924.32,424.80,0.18,1.03,-0.91,-419.72
5757,828.96,763.29,754.67,766.85,778.44,138.67,-916.99,432.13,-1.34,0.25,0.65,-457.37
5794,830.42,763.65,754.67,766.67,778.85,144.53,-920.90,424.32,-2.82,1.47,2.02,-470.64
5832,830.79,763.65,754.60,766.66,778.92,148.93,-923.34,409.67,0.20,0.36,2.83,-472.23
5870,830.31,763.56,754.63,766.63,778.78,140.62,-916.02,421.87,1.24,1.73,-0.65,-467.27
5908,829.90,763.41,754.58,766.64,778.63,142.09,-926.27,423.83,-0.44,0.40,0.04,-461.23
5950,829.47,763.33,754.56,766.82,778.54,152.34,-918.46,418.46,1.01,1.98,0.68,-460.23
5988,829.12,763.20,754.69,767.22,778.56,136.72,-927.73,405.27,-1.92,0.10,2.33,-463.49
6026,828.76,763.18,754.82,767.67,778.61,149.90,-921.87,407.71,-1.15,0.28,2.30,-468.55
6064,828.03,763.19,754.99,768.17,778.59,129.39,-900.39,418.95,-1.37,-0.32,1.11,-472.22
6102,826.87,763.33,755.18,768.82,778.55,141.11,-923.34,427.25,-3.68,-2.28,0.84,-476.85
6157,824.92,763.72,755.55,770.45,778.66,159.67,-933.11,398.93,-1.98,0.31,0.42,-490.79
6199,822.25,764.00,756.36,772.10,778.68,158.69,-917.97,418.95,1.84,0.68,0.23,-506.30
6237,818.40,764.46,757.40,774.55,778.70,160.16,-930.66,400.39,0.07,1.37,2.24,-530.24
6275,813.48,765.10,759.15,777.84,778.89,146.00,-917.48,406.74,2.25,4.88,1.18,-557.77
6313,806.38,766.40,761.71,782.34,779.21,174.32,-891.60,421.87,2.51,0.47,3.42,-597.51
6351,795.81,768.40,765.47,787.72,779.35,123.54,-914.06,417.97,3.27,7.02,2.98,-666.88
6389,780.23,770.70,769.94,793.15,778.51,125.49,-965.33,384.77,-11.48,3.54,3.44,-724.54
6430,762.35,771.02,774.62,796.78,776.19,254.88,-1051.76,431.64,-49.40,7.56,4.64,-732.40
6468,754.12,767.81,776.29,795.63,773.46,427.25,-948.73,407.23,-87.36,-23.53,55.78,-680.23
6506,751.99,762.61,776.71,789.53,770.21,200.20,-1190.43,377.93,-88.79,24.01,109.18,-640.57
6544,750.64,758.94,776.68,781.07,766.83,218.26,-1283.69,156.25,-18.52,40.85,177.53,-583.84
6582,749.81,756.98,766.46,766.55,759.95,137.70,-1632.81,158.20,27.05,12.66,218.06,-247.16
6620,749.48,754.90,753.65,757.49,753.88,-360.84,-2000.00,319.82,238.33,72.05,166.18,-85.26
6661,749.66,753.36,748.97,755.13,751.78,211.43,-2000.00,422.36,153.27,24.51,47.42,-28.26
6699,749.69,753.21,748.82,755.18,751.73,-101.07,-1056.15,109.86,183.84,30.60,-104.43,-31.83
6737,749.75,753.09,748.68,755.03,751.64,114.75,-434.57,20.51,102.15,40.39,-40.30,-33.35
6775,749.87,753.04,748.63,754.93,751.62,369.63,-680.18,-70.31,68.85,78.70,-62.40,-33.23
6813,749.86,753.00,748.61,754.84,751.58,269.53,-369.14,-143.55,11.22,118.28,-101.91,-32.67
6853,749.89,752.88,748.65,754.76,751.55,229.49,-593.26,-73.24,-46.71,124.15,-126.52,-29.91
6891,749.88,752.83,748.62,754.67,751.50,176.27,-780.76,-32.23,-52.58,122.21,-157.98,-29.46
6929,749.80,752.81,748.57,754.56,751.43,113.28,-952.15,-15.63,-39.91,115.15,-190.97,-29.77
6967,749.72,752.90,748.58,754.57,751.44,47.36,-1151.37,-5.86,-34.90,99.86,-203.89,-30.10
7005,749.72,752.76,748.54,754.58,751.40,0.98,-1389.65,-79.59,-21.07,97.05,-217.27,-30.33
7043,749.63,752.86,748.47,754.55,751.38,18.55,-1385.74,-187.99,-34.11,107.02,-207.75,-32.34
7088,749.53,752.81,748.50,754.54,751.35,-61.52,-1380.37,-222.66,-63.52,117.91,-195.44,-31.05
7126,749.38,752.79,748.49,754.55,751.30,-145.51,-1411.62,-118.65,-70.11,102.21,-159.63,-31.32
7164,749.34,752.81,748.48,754.55,751.30,-144.04,-1223.63,-1.46,-88.88,63.32,-98.86,-31.44
7202,749.39,752.73,748.51,754.50,751.28,-45.41,-1423.83,119.14,-94.37,32.53,-95.08,-29.82
7241,749.29,752.77,748.47,754.64,751.29,-147.46,-1365.72,186.52,-71.20,4.54,-136.68,-32.37
7281,749.16,752.62,748.43,754.59,751.20,-428.71,-1053.22,272.46,-65.52,-6.95,-91.77,-31.88
7319,749.21,752.61,748.40,754.57,751.20,-985.84,-1255.86,409.18,-88.53,-2.30,-44.47,-32.47
7357,749.15,752.81,748.39,754.56,751.23,-1260.25,-1045.90,569.34,-51.21,-12.18,-23.67,-33.98
7395,757.86,752.76,748.49,754.29,753.35,-1140.14,-1263.18,943.36,-222.51,214.79,59.59,-38.41
7433,805.02,753.79,748.65,754.59,765.51,444.82,-773.93,840.33,-55.58,16.26,195.27,-130.43
7471,860.65,755.29,748.74,755.08,779.94,-121.09,-1796.39,323.73,126.79,-30.89,193.75,-344.97
7511,866.51,759.65,749.00,756.76,782.98,59.57,-595.70,320.80,-7.81,-32.11,15.87,-435.86
7549,863.03,761.61,749.50,759.09,783.31,166.99,-1024.90,402.34,36.30,2.89,3.67,-484.10
7587,853.67,762.60,750.02,761.26,781.89,166.50,-881.84,455.57,0.63,5.32,2.27,-469.71
7625,842.64,763.50,750.72,764.06,780.23,181.64,-944.34,405.27,1.82,3.40,6.40,-442.66
7663,838.39,763.25,751.96,766.20,779.95,158.69,-908.69,425.78,8.29,-3.73,3.69,-484.49
7701,837.15,762.63,753.71,767.86,780.34,129.88,-875.00,466.31,5.64,-3.81,1.98,-486.03
7741,837.45,761.75,755.61,769.04,780.96,159.18,-908.20,401.86,-3.31,-4.52,-3.88,-511.68
7781,839.01,761.16,757.71,770.27,782.04,159.67,-930.18,417.48,1.57,0.08,-2.61,-523.54
7819,840.79,760.47,758.69,770.77,782.68,152.34,-916.02,431.15,1.54,2.78,-2.69,-544.47
7859,843.10,759.46,758.85,771.16,783.14,174.80,-892.58,413.57,-0.24,3.00,-4.60,-543.00
7896,842.87,759.19,759.75,772.53,783.59,162.60,-916.99,430.18,3.51,2.10,-1.54,-562.01
7936,840.37,759.25,761.04,774.66,783.83,145.51,-884.77,433.59,10.08,4.80,2.50,-597.42
7980,835.58,759.68,762.56,776.90,783.68,144.53,-901.86,437.01,6.19,0.01,-0.19,-633.88
8018,829.32,760.07,763.92,778.92,783.05,154.30,-922.36,439.94,5.08,0.43,2.49,-657.01
8055,821.57,760.83,765.56,781.64,782.40,162.11,-896.48,451.66,4.84,2.62,5.68,-684.24
8093,812.73,761.94,766.96,784.38,781.50,154.30,-909.18,436.04,6.95,0.21,4.83,-700.42
8131,805.62,762.99,767.73,787.11,780.86,106.45,-916.99,413.09,4.43,1.08,3.69,-713.72
8171,799.82,764.24,768.30,789.67,780.51,162.11,-897.46,454.10,5.80,0.73,3.18,-725.84
8210,794.57,765.46,768.91,791.45,780.10,170.41,-889.16,487.79,1.15,-0.14,4.27,-733.87
8247,789.41,767.07,769.69,792.74,779.73,146.00,-917.48,448.24,3.50,2.23,2.37,-741.04
8285,781.81,768.56,770.30,793.60,778.57,153.32,-917.48,447.27,1.92,2.56,5.66,-729.88
8323,771.76,769.12,770.71,793.73,776.33,150.39,-920.41,437.50,-5.03,0.91,4.92,-688.25
8361,760.38,768.42,770.68,792.12,772.90,185.55,-987.30,490.72,-24.49,1.95,8.66,-609.38
8401,753.15,765.82,770.08,787.31,769.09,39.06,-861.82,500.98,-24.66,11.60,42.87,-532.65
8439,751.27,761.60,767.65,779.37,764.97,191.89,-1120.12,432.13,-102.41,47.37,96.57,-473.62
8477,750.26,758.02,761.65,767.96,759.47,160.16,-1267.09,326.17,-72.97,34.91,151.28,-80.94
8515,749.89,756.05,753.21,759.06,754.55,-99.61,-1356.93,364.75,14.77,36.98,174.93,-27.18
8553,750.16,754.77,749.63,756.26,752.70,-141.11,-1157.23,243.16,70.99,26.79,138.15,-35.44
8591,750.28,754.01,748.87,755.62,752.19,454.59,-981.93,348.14,28.01,-39.30,59.16,-41.51
8631,750.17,753.67,748.67,755.42,751.98,722.17,-680.18,188.96,27.96,-53.99,-5.36,-42.56
8669,750.25,753.42,748.61,755.21,751.87,718.75,-551.27,176.76,18.12,-47.48,-38.36,-40.26
8707,750.19,753.41,748.47,755.17,751.81,689.45,-560.06,274.90,0.84,-52.05,-77.95,-43.85
8745,750.12,753.33,748.46,755.14,751.76,625.00,-726.56,408.69,-7.53,-57.34,-111.28,-43.01
8783,750.05,753.22,748.42,755.10,751.70,543.46,-971.19,432.13,-5.69,-54.77,-135.30,-43.26
8821,750.01,753.19,748.42,755.02,751.66,515.62,-1131.84,397.46,-6.69,-40.54,-154.18,-41.77
8863,749.87,753.17,748.44,755.06,751.64,396.00,-1182.13,413.09,-18.74,-19.40,-146.54,-41.24
8906,749.75,753.05,748.39,755.01,751.55,327.64,-1230.96,413.57,-32.93,3.18,-130.22,-41.11
8944,749.70,752.99,748.34,754.88,751.48,180.66,-1394.53,446.29,-48.93,19.49,-131.91,-40.30
8982,749.61,753.00,748.41,754.88,751.48,-18.55,-1307.62,497.07,-65.68,19.98,-142.89,-38.02
9020,749.58,752.95,748.36,754.86,751.44,-336.43,-1245.12,382.81,-48.35,22.47,-127.73,-38.97
9060,749.47,752.94,748.33,754.79,751.38,-693.36,-1034.18,339.84,-45.83,3.85,-81.35,-38.86
9098,749.49,752.89,748.33,754.83,751.39,-700.68,-1060.06,340.33,-21.20,-7.91,-29.21,-38.98
9136,749.52,752.85,748.26,754.83,751.37,-458.98,-946.29,241.70,12.58,17.02,9.14,-41.05
9174,753.12,752.61,748.29,754.45,752.12,-1023.93,-1444.82,729.98,-29.85,71.75,178.37,-38.48
9212,773.98,752.70,748.41,754.47,757.39,774.41,-155.76,618.16,90.90,155.37,162.05,-76.29
9250,815.85,753.41,748.58,754.69,768.13,106.93,-1509.77,610.84,-2.48,20.51,178.10,-167.61
9290,832.72,754.17,748.64,754.95,772.62,148.93,-1271.00,389.16,14.14,-11.54,128.28,-265.03
9327,832.99,755.77,748.59,755.45,773.20,230.96,-1407.71,-186.04,62.44,0.98,74.94,-278.91
9365,838.62,757.99,748.68,756.26,775.39,188.48,-987.79,350.59,63.76,12.56,12.47,-306.70
9403,841.74,759.94,748.98,757.25,776.98,168.95,-902.83,414.55,7.01,-1.52,4.27,-349.35
9441,838.17,762.30,749.34,758.72,777.13,170.90,-951.17,361.82,10.89,3.96,7.78,-376.37
9478,834.15,764.37,749.91,760.66,777.27,184.08,-937.99,376.46,15.74,-1.17,6.23,-376.12
9519,826.57,767.72,750.75,763.20,777.06,173.83,-898.93,417.97,7.48,-1.60,8.67,-403.68
9557,816.73,771.58,751.86,765.73,776.47,138.18,-904.30,392.09,7.12,-2.56,10.36,-458.39
9594,810.38,774.46,753.16,768.51,776.63,141.11,-934.57,389.65,13.47,0.27,4.26,-490.08
9631,807.51,775.63,754.73,771.31,777.30,140.14,-908.20,415.53,18.92,3.91,1.21,-539.74
9669,804.96,776.51,756.63,774.21,778.08,149.90,-926.27,403.81,12.61,1.65,1.76,-638.65
9709,801.04,777.05,758.73,777.14,778.49,147.46,-903.32,434.57,6.48,1.95,1.62,-687.17
9747,795.86,777.53,760.96,780.12,778.62,155.27,-918.46,430.18,8.87,1.44,2.27,-713.73
9788,790.03,777.80,763.43,783.34,778.65,139.65,-892.58,461.43,11.06,1.01,0.59,-730.87
9826,785.14,778.09,765.55,786.09,778.72,151.37,-905.76,442.38,7.60,2.23,1.86,-744.64
9864,778.76,778.76,767.78,788.82,778.53,129.39,-895.02,466.80,3.44,4.77,3.70,-756.40
9902,771.90,779.79,770.40,791.99,778.52,151.37,-917.97,449.71,4.02,1.82,3.47,-783.48
9942,764.46,781.16,772.92,794.40,778.24,146.00,-897.46,457.52,-2.06,-2.25,4.97,-806.14
9980,757.51,782.19,774.90,795.89,777.62,145.51,-898.44,453.61,-7.35,1.08,6.63,-808.71
10018,752.82,781.80,776.76,795.84,776.81,131.35,-961.43,426.27,-25.49,11.65,24.02,-789.27
10056,751.20,778.04,778.21,793.46,775.23,170.41,-1021.00,469.73,-53.41,37.79,46.44,-739.73
10094,750.20,771.93,777.93,788.47,772.13,233.89,-1071.78,425.29,-114.02,35.73,86.02,-643.01
10132,749.58,765.63,773.51,781.00,767.43,205.08,-1368.65,264.16,-96.53,35.63,160.70,-548.64
10172,749.35,760.80,763.77,768.33,760.56,122.56,-1515.14,216.80,-39.97,21.99,242.06,-140.04
10210,749.19,757.25,754.77,760.78,755.50,-123.54,-1979.00,337.89,128.70,82.76,250.13,-27.54
10248,749.03,755.30,750.16,756.94,752.86,11.72,-1800.78,506.35,196.86,74.70,174.99,-34.41
10286,749.41,754.16,749.10,755.79,752.12,473.63,-254.39,-187.50,140.47,107.87,52.89,-37.76
10324,749.27,753.76,748.81,755.49,751.83,405.27,-892.09,15.14,92.22,79.18,-138.71,-38.62
10362,749.28,753.63,748.64,755.27,751.71,236.33,-664.55,-26.37,83.05,69.11,-180.15,-39.38
10402,749.32,753.52,748.57,755.18,751.65,163.57,-679.69,-63.96,61.76,75.43,-198.27,-39.69
10440,749.31,753.36,748.47,755.09,751.56,73.24,-805.18,-53.71,37.05,83.17,-207.69,-40.57
10478,749.32,753.38,748.37,754.97,751.51,70.80,-1081.54,-47.85,5.56,93.04,-216.92,-41.82
10516,749.27,753.31,748.43,754.91,751.48,-0.49,-1094.24,-38.57,-17.31,106.27,-209.24,-39.27
10554,749.32,753.35,748.29,754.89,751.46,-30.27,-1238.28,-34.18,-17.62,106.32,-201.79,-42.86
10594,749.29,753.23,748.32,754.81,751.41,-105.47,-1185.06,-29.79,-24.15,91.18,-178.57,-41.04
10632,749.19,753.30,748.30,754.74,751.39,-63.48,-1192.38,-23.44,-32.52,86.68,-151.27,-40.55
10670,749.10,753.17,748.28,754.87,751.36,-159.18,-1220.21,47.36,-47.35,80.84,-123.20,-42.30
10712,748.97,753.08,748.28,754.80,751.28,-204.10,-1093.75,60.06,-47.72,56.96,-57.44,-40.65
10750,748.99,753.02,748.20,754.74,751.24,-171.87,-1404.79,164.06,-20.65,25.02,-21.15,-42.09
10788,749.01,752.96,748.29,754.83,751.28,-170.41,-1173.83,191.41,-9.73,-21.44,-44.04,-39.97
10828,748.96,752.88,748.22,754.79,751.21,-98.63,-911.13,219.73,-18.99,-52.36,-21.60,-40.75
10866,748.98,752.82,748.23,754.78,751.20,-76.66,-926.27,320.31,-45.64,-72.80,14.54,-40.11
10904,748.83,752.82,748.22,754.79,751.17,-92.77,-1146.00,380.37,-45.34,-97.37,25.96,-40.21
10942,748.99,752.80,748.18,754.82,751.20,-179.20,-1014.16,378.91,-27.82,-129.52,34.55,-41.88
10980,748.94,752.75,748.21,754.77,751.17,-111.33,-1014.16,403.32,-25.50,-161.19,15.92,-40.02
11020,749.00,752.79,748.11,754.83,751.18,168.46,-1023.44,354.98,-1.15,-126.33,10.11,-44.64
11058,748.95,752.95,748.29,754.63,751.21,247.56,-902.34,236.33,9.14,-56.21,-5.55,-37.86
11096,754.38,752.98,748.21,754.48,752.52,324.22,-1616.70,-375.98,-106.66,-92.75,98.00,-48.59
11134,764.55,753.42,748.20,754.59,755.19,505.86,-848.14,333.50,177.49,-42.91,114.98,-75.03
11172,779.71,754.63,748.27,755.01,759.41,-774.90,-2000.00,862.79,112.34,10.37,95.73,-118.01
11209,786.25,756.52,748.51,755.27,761.64,136.72,-947.27,339.36,23.85,23.57,7.85,-121.10
11250,782.84,758.82,748.77,755.68,761.53,170.41,-1009.77,198.73,-9.16,9.24,8.17,-122.92
11287,783.95,761.34,749.07,756.33,762.67,131.35,-972.66,239.75,20.33,15.54,2.55,-132.85
11325,792.66,763.30,749.36,757.27,765.65,142.58,-938.96,337.40,31.05,9.26,-3.16,-169.25
11363,803.40,764.39,749.87,758.98,769.16,164.55,-987.79,303.22,37.92,3.55,1.07,-235.38
11401,812.51,764.93,751.76,761.78,772.74,154.79,-977.05,346.19,62.77,-4.54,2.27,-311.94
11438,822.16,764.91,755.36,764.69,776.78,122.07,-886.72,364.26,46.03,-1.80,0.63,-401.96
11478,826.94,764.61,757.62,766.24,778.85,148.93,-890.62,426.76,17.99,-0.55,0.82,-456.86
11516,827.87,764.15,758.17,767.03,779.30,163.09,-946.78,382.81,6.22,-1.99,0.42,-472.96
11554,826.16,764.30,758.23,767.62,779.08,149.41,-903.32,412.60,5.97,3.19,1.06,-475.08
11592,823.42,765.07,757.95,767.60,778.51,165.04,-922.85,407.71,-0.98,4.66,1.00,-464.18
11633,821.49,766.23,757.75,767.30,778.19,167.48,-922.36,399.41,-4.33,0.66,1.98,-463.05
11673,819.78,767.18,757.81,767.98,778.19,145.51,-933.59,394.53,-1.04,2.52,1.59,-475.51
11711,818.68,767.89,757.99,768.58,778.28,158.69,-925.29,395.02,0.46,3.28,0.04,-487.70
11749,816.71,768.61,758.16,768.67,778.04,154.79,-914.55,399.90,-2.35,4.91,1.01,-490.99
11787,814.13,769.85,758.13,768.63,777.69,153.32,-914.55,414.06,-5.96,4.19,1.20,-494.91
11827,811.73,771.00,757.93,768.67,777.33,163.09,-919.43,405.76,-4.00,4.47,2.61,-488.06
11865,809.98,771.98,757.95,768.92,777.21,146.48,-930.66,401.86,-4.18,4.44,3.24,-496.49
11905,807.79,772.97,757.99,769.15,776.98,136.72,-927.25,397.95,-2.79,0.93,3.40,-502.89
11943,805.58,773.70,758.15,769.55,776.75,147.46,-926.27,379.39,-1.53,2.85,2.64,-510.53
11981,802.79,774.41,758.33,769.90,776.36,146.48,-924.80,408.20,0.23,4.52,6.12,-512.20
12019,799.27,775.31,758.68,770.46,775.93,151.37,-923.83,393.55,-0.19,0.66,3.14,-521.51
12057,796.10,776.42,759.39,771.75,775.92,147.46,-934.08,389.65,2.12,-0.49,6.10,-551.25
12094,794.34,777.56,760.00,772.72,776.15,153.81,-922.36,396.48,6.10,0.66,3.37,-586.85
12135,793.62,778.60,760.34,773.16,776.43,135.25,-927.25,387.21,2.47,1.47,2.38,-613.96
12173,793.18,779.28,760.60,773.60,776.66,141.11,-913.09,406.74,2.00,-1.01,3.43,-633.80
12210,792.29,779.92,760.62,773.74,776.64,135.74,-919.92,413.09,4.09,0.77,4.02,-637.93
12249,791.04,780.49,760.52,773.67,776.43,138.67,-934.08,401.86,-6.73,-1.52,4.00,-629.71
12286,788.44,780.57,760.44,773.66,775.78,143.07,-948.73,397.46,1.52,-0.82,5.16,-598.30
12324,787.77,781.06,760.25,773.38,775.61,140.62,-907.23,406.74,-0.76,-1.95,5.06,-585.24
12364,786.87,780.84,760.02,772.93,775.16,164.55,-963.87,366.70,3.97,2.40,2.80,-564.37
12402,783.00,779.66,759.39,771.76,773.45,154.79,-924.32,410.64,2.37,-2.09,1.89,-515.00
12440,776.53,777.03,757.73,768.78,770.02,145.02,-962.89,384.77,-3.50,0.07,2.05,-414.87
12478,769.35,771.87,755.44,765.42,765.52,135.74,-965.33,377.44,1.00,1.21,-0.08,-340.19
12516,762.67,765.36,753.24,761.66,760.73,153.32,-937.01,402.83,-3.66,0.77,-4.40,-103.19
12558,755.95,759.05,751.00,757.74,755.94,112.30,-1105.47,345.21,-57.25,-22.73,2.13,-45.40
12598,752.75,755.42,749.47,755.43,753.27,-161.13,-1242.68,21.48,-24.53,-115.49,60.82,-31.57
12636,752.49,754.40,748.95,755.00,752.71,-318.85,-1214.84,182.62,78.63,-171.89,71.47,-34.58
12674,752.07,754.18,748.79,754.88,752.48,147.95,-870.61,35.64,7.05,-200.93,42.51,-35.49
12712,751.86,754.14,748.57,754.82,752.34,475.59,-698.73,103.03,-54.08,-126.75,90.98,-40.01
12750,751.72,754.03,748.61,754.76,752.28,409.18,-757.32,201.66,-54.81,-89.52,34.49,-37.84
12790,751.55,754.19,748.56,755.03,752.33,523.93,-1973.14,1130.86,-40.30,-116.96,-24.61,-42.33
12827,751.03,754.75,748.63,755.45,752.46,605.96,-923.34,507.81,109.34,-28.12,-40.25,-46.46
12865,753.73,755.14,749.01,756.12,753.50,354.98,-604.98,1009.28,89.66,84.47,-19.60,-54.00
12902,763.45,756.01,749.41,756.62,756.37,454.59,-1027.83,461.43,30.24,-15.17,1.85,-77.11
12940,768.13,756.76,749.58,756.70,757.79,234.86,-995.61,316.89,-2.01,-17.28,0.11,-87.98
12978,769.20,757.60,749.76,757.16,758.43,187.50,-970.70,311.04,0.97,-6.62,2.25,-97.42
13018,770.80,758.92,750.24,758.01,759.49,159.18,-952.15,348.63,12.46,-0.21,4.91,-102.73
13056,772.57,760.25,750.78,758.73,760.58,156.25,-928.22,386.23,11.97,-0.29,4.95,-107.42
13093,773.47,761.26,751.11,759.18,761.25,150.88,-934.08,394.53,4.99,3.85,3.36,-111.45
13131,773.88,761.83,751.33,759.48,761.63,149.90,-936.04,391.11,4.52,5.19,2.32,-114.06
13169,774.66,762.17,751.44,759.62,761.97,143.55,-923.34,386.23,1.09,2.87,0.15,-119.36
13207,776.45,762.51,751.50,759.57,762.51,159.67,-917.97,406.74,0.95,0.35,-1.02,-127.73
13247,778.77,763.14,751.39,759.56,763.21,152.34,-931.15,380.86,-4.60,1.05,1.15,-137.56
13284,780.82,764.40,751.35,759.55,764.03,149.41,-920.90,391.60,-8.61,0.81,1.25,-152.28
13322,782.02,765.81,751.35,759.53,764.68,146.48,-921.87,378.42,-6.19,-1.18,5.05,-165.14
13360,783.30,766.87,751.08,759.43,765.17,150.88,-940.92,361.33,-14.50,0.82,3.24,-174.51
13398,784.40,767.74,750.95,759.44,765.63,154.79,-927.25,360.84,-9.82,4.34,-0.59,-211.13
13437,784.79,768.41,750.70,759.01,765.73,147.46,-945.31,335.94,-12.19,1.69,0.28,-240.06
13481,785.58,768.18,750.42,758.52,765.67,154.30,-958.01,330.57,-8.52,-0.08,0.37,-238.44
13519,785.02,766.80,750.15,757.86,764.96,146.00,-965.33,334.47,-7.12,0.76,-1.34,-191.89
13557,780.89,763.97,749.44,756.77,762.77,159.18,-960.45,308.59,-21.85,-0.79,-3.06,-137.11
13595,772.84,759.40,748.87,755.58,759.17,146.97,-985.84,305.66,-43.51,-3.10,-2.04,-107.36
13633,762.44,755.76,748.50,754.92,755.41,121.09,-972.17,225.10,-44.49,-11.32,-0.66,-75.53
13674,754.75,754.24,748.44,754.70,753.03,257.32,-885.25,120.61,-81.26,64.06,-12.47,-49.33
13712,752.84,754.01,748.46,754.70,752.50,233.40,-1115.23,357.91,-33.81,64.77,-13.89,-43.25
13749,752.37,753.94,748.45,754.74,752.38,41.02,-794.92,419.43,48.47,12.76,6.49,-43.14
13787,753.95,754.23,748.32,754.79,752.82,404.30,-1627.44,-583.50,47.44,-11.48,-6.31,-54.15
13826,760.89,754.48,748.40,754.68,754.61,-146.97,-834.47,503.42,-15.63,19.83,-5.30,-64.85
13864,767.31,754.43,748.38,754.43,756.14,98.14,-866.21,454.59,-40.43,0.28,-7.24,-78.34
13904,772.20,754.43,748.31,754.40,757.34,121.58,-1051.27,245.12,-38.35,-3.39,-7.76,-92.62
13942,778.46,754.41,748.35,754.31,758.88,227.54,-1051.27,118.65,-6.12,3.86,-8.48,-104.56
13979,783.99,754.44,748.34,754.40,760.29,188.48,-962.40,242.68,9.44,9.33,-0.31,-112.16
14017,791.84,754.49,748.34,754.38,762.26,216.80,-974.61,240.23,18.25,7.37,0.02,-117.87
14054,797.31,754.60,748.37,754.42,763.67,60.55,-936.52,437.01,8.19,3.13,-4.21,-123.30
14093,801.71,754.55,748.31,754.46,764.76,196.78,-951.66,254.39,0.33,2.92,-12.14,-130.77
14133,804.74,754.73,748.36,754.53,765.59,100.59,-1040.53,295.90,24.43,6.25,13.44,-136.22
14171,810.14,754.83,748.33,754.69,767.00,169.43,-960.45,336.91,13.45,8.24,3.58,-159.63
14209,810.66,754.78,748.40,754.61,767.11,166.99,-973.14,297.85,1.24,0.50,2.64,-155.29
14247,811.81,754.78,748.35,754.68,767.40,195.31,-964.36,255.86,8.82,6.82,-0.59,-166.34
14285,811.79,754.94,748.34,754.77,767.46,148.93,-888.18,375.98,-1.06,-1.63,1.75,-171.08
14325,811.55,755.18,748.39,754.84,767.49,186.04,-984.86,277.83,5.53,1.88,3.33,-172.82
14367,811.09,755.37,748.38,754.81,767.41,120.61,-924.32,378.91,-5.31,0.86,2.98,-172.71
14405,810.19,755.44,748.31,754.96,767.23,165.04,-925.29,310.55,2.11,-0.02,2.68,-174.54
14445,807.83,755.62,748.39,754.79,766.66,145.02,-942.87,343.26,-2.33,-2.53,-2.08,-160.76
14483,807.74,755.60,748.37,754.80,766.63,141.60,-916.02,328.61,-9.76,0.14,1.09,-160.89
14521,808.08,755.66,748.36,754.78,766.72,174.80,-942.87,326.66,-6.17,-3.93,0.82,-162.48
14561,808.16,755.56,748.32,754.75,766.70,175.29,-933.11,335.45,-9.68,-1.35,0.58,-162.38
14599,809.81,755.34,748.31,754.65,767.03,175.29,-971.68,301.27,-14.79,-6.04,-2.54,-164.80
14637,812.11,755.10,748.31,754.51,767.51,151.86,-953.61,297.36,-14.21,-3.38,-3.56,-168.80
14675,814.37,754.96,748.33,754.46,768.03,186.04,-965.82,290.53,-8.65,-2.44,-7.10,-175.45
14712,816.06,754.84,748.31,754.49,768.43,212.40,-926.76,271.48,-7.57,-4.55,-13.11,-185.83
14753,816.83,754.68,748.31,754.38,768.55,186.52,-1015.14,298.83,-2.73,2.66,-5.56,-184.97
14793,815.88,754.63,748.35,754.35,768.30,224.61,-924.32,259.77,0.05,3.76,5.97,-175.24
14831,813.82,754.56,748.24,754.34,767.74,198.73,-956.54,246.09,7.63,2.24,13.52,-167.79
14868,812.68,754.61,748.27,754.38,767.49,215.82,-970.21,253.42,-1.63,-0.43,3.10,-162.87
14906,810.83,754.66,748.23,754.42,767.04,206.05,-925.78,256.84,6.12,1.19,10.65,-157.96
14944,807.67,754.94,748.25,754.58,766.36,120.12,-1005.37,306.15,28.07,10.02,7.78,-150.64
14981,805.24,755.33,748.27,754.85,765.92,180.18,-973.14,263.18,13.97,4.42,4.11,-152.74
15021,800.76,756.23,748.35,755.23,765.14,165.53,-967.29,291.02,32.82,6.73,10.06,-147.00
15059,797.15,756.91,748.51,755.60,764.54,226.56,-1047.36,246.09,3.22,-0.73,1.94,-143.07
15097,793.93,757.53,748.61,755.82,763.97,150.39,-926.76,369.63,3.73,1.05,4.18,-142.16
15135,792.16,758.05,748.68,756.02,763.73,172.85,-958.98,318.85,2.47,1.65,1.79,-143.64
15173,791.68,758.48,748.72,756.05,763.73,152.34,-958.98,341.80,1.75,1.37,1.02,-145.30
15211,792.18,758.43,748.74,756.06,763.85,160.16,-957.03,338.87,1.45,3.17,0.68,-145.28
15252,793.45,758.23,748.72,755.95,764.09,158.69,-944.34,319.82,-1.57,3.18,-0.42,-144.90
15292,795.13,757.79,748.64,755.62,764.29,151.37,-938.48,336.91,-7.56,0.71,-3.48,-142.34
15330,797.35,757.42,748.52,755.52,764.70,162.60,-931.15,345.70,-9.93,2.85,-2.73,-144.80
15368,798.79,757.15,748.55,755.41,764.97,159.18,-950.68,325.68,-6.85,-0.41,-2.41,-143.07
15406,800.22,756.77,748.50,755.19,765.17,176.76,-964.84,315.92,-4.14,2.44,-0.02,-142.19
15446,801.02,756.56,748.43,755.12,765.28,157.23,-958.01,326.66,-6.13,1.77,1.44,-144.11
15484,801.98,756.32,748.47,755.03,765.45,172.85,-980.47,284.67,-5.57,0.37,-1.65,-144.34
15522,802.45,755.85,748.34,754.95,765.40,166.02,-959.47,314.45,-9.49,3.01,-4.94,-147.00
15560,801.91,755.44,748.31,754.86,765.13,183.11,-978.52,279.30,-0.08,2.15,-0.53,-144.43
15598,801.26,755.20,748.28,754.78,764.88,191.89,-946.78,282.71,-4.33,2.34,-0.69,-140.10
15636,799.70,755.09,748.33,754.83,764.49,190.43,-962.89,297.85,-7.03,-0.11,0.30,-137.31
15676,797.37,755.08,748.32,754.92,763.92,146.97,-916.50,318.85,9.62,1.92,4.24,-136.15
15714,794.79,755.21,748.31,754.93,763.31,136.23,-928.71,347.66,9.63,3.80,2.60,-132.37
15752,791.31,754.97,748.32,754.94,762.39,164.55,-970.70,303.22,-2.46,0.34,-1.69,-127.32
15790,785.37,754.84,748.34,755.19,760.93,185.06,-964.36,286.13,6.18,1.57,4.53,-123.15
15828,777.13,754.89,748.46,755.67,759.04,132.81,-924.32,348.63,7.31,3.62,1.24,-119.83
15866,768.90,755.17,748.57,756.44,757.27,191.89,-1002.93,282.71,1.39,6.45,2.43,-117.03
15906,762.32,755.14,748.54,756.60,755.65,146.97,-916.50,367.19,-0.63,7.08,2.47,-105.04
15943,760.37,754.98,748.66,756.33,755.09,100.10,-986.33,255.86,4.82,1.98,-3.16,-87.51
15981,760.95,754.74,748.41,755.79,754.97,178.71,-896.97,364.26,-14.40,8.20,-6.05,-87.67
16020,761.20,754.31,748.23,755.27,754.75,322.27,-1026.37,84.96,-40.53,61.93,-17.34,-83.69
16058,761.60,753.94,748.27,755.08,754.72,80.08,-989.75,277.83,-20.37,84.17,-23.24,-77.58
16096,762.54,753.86,748.22,754.88,754.88,116.70,-708.98,625.00,5.39,-16.88,5.75,-77.84
16135,762.61,753.61,748.19,754.78,754.80,153.81,-963.87,274.41,6.47,-2.60,-1.67,-76.13
16173,762.82,753.64,748.25,754.78,754.87,150.39,-958.01,290.04,13.88,5.90,2.10,-74.13
16215,762.78,753.62,748.27,754.70,754.84,144.53,-960.45,308.11,-1.36,3.53,-2.58,-71.19
16253,762.82,753.50,748.13,754.66,754.78,166.50,-956.05,291.99,-9.25,0.42,-1.47,-75.77
16291,762.74,753.53,748.18,754.65,754.78,162.60,-969.73,264.16,-0.20,-1.08,-0.41,-73.29
16329,762.65,753.46,748.21,754.60,754.73,157.71,-952.15,286.13,-3.79,1.77,2.49,-70.38
16369,762.60,753.46,748.22,754.67,754.73,154.30,-955.08,285.64,-0.67,0.08,0.13,-70.88
16406,762.59,753.37,748.18,754.59,754.68,150.88,-959.96,297.85,-11.73,-0.92,0.71,-70.04
16444,762.55,753.40,748.20,754.54,754.67,184.08,-974.61,241.21,-15.62,-5.02,-1.06,-68.53
16482,762.53,753.38,748.21,754.56,754.67,170.90,-954.59,245.61,-5.88,-0.73,1.44,-68.11
16519,762.40,753.40,748.17,754.58,754.64,145.02,-979.49,282.23,-10.79,-1.21,0.98,-70.12
16565,762.58,753.29,748.21,754.49,754.65,161.13,-981.45,264.16,-3.31,-17.90,-5.02,-65.94
16603,762.29,753.27,748.16,754.57,754.57,225.59,-939.45,170.90,-11.49,-4.43,2.25,-68.74
16641,762.15,753.27,748.17,754.55,754.53,160.64,-956.05,242.68,3.98,4.15,7.35,-67.58
16679,762.06,753.33,748.22,754.58,754.55,326.66,-940.92,-140.62,36.52,-5.39,2.24,-66.40
16716,761.66,753.31,748.22,754.64,754.46,172.36,-942.87,291.50,11.84,6.28,0.75,-65.88
16753,761.25,753.26,748.19,754.70,754.35,173.34,-972.66,255.37,11.01,3.99,2.28,-66.90
16801,761.15,753.32,748.19,754.69,754.34,154.30,-963.38,296.39,9.40,1.37,-0.56,-67.13
16839,760.90,753.31,748.24,754.72,754.29,162.11,-968.26,292.97,1.60,1.60,-0.11,-64.44
16880,760.63,753.33,748.25,754.66,754.22,161.62,-966.80,280.76,-1.00,3.38,0.39,-62.83
16918,760.53,753.39,748.28,754.71,754.23,155.76,-979.98,285.16,0.23,2.00,-0.08,-62.82
16957,760.34,753.34,748.25,754.74,754.17,170.41,-969.73,271.00,-2.24,-0.40,2.88,-63.56
16995,760.30,753.42,748.26,754.64,754.15,156.74,-970.21,274.90,-0.69,0.72,3.42,-62.29
17038,760.26,753.39,748.20,754.69,754.14,162.11,-961.43,279.79,-1.30,2.30,0.53,-65.04
17080,760.34,753.35,748.17,754.77,754.16,162.60,-975.10,261.23,0.06,2.78,1.51,-67.61
17118,760.33,753.38,748.26,754.73,754.18,158.20,-966.80,270.51,4.92,3.98,-0.75,-63.51
17156,760.34,753.41,748.23,754.73,754.18,161.13,-978.03,276.37,0.04,1.16,2.27,-64.95
17194,760.36,753.39,748.20,754.74,754.17,157.71,-977.05,279.30,1.93,3.66,-0.65,-66.17
17233,760.32,753.41,748.28,754.75,754.19,171.39,-971.68,278.32,-0.11,0.71,1.81,-63.27
17274,760.44,753.42,748.29,754.69,754.21,157.71,-963.87,279.79,0.26,0.64,1.50,-62.04
17312,760.41,753.37,748.30,754.69,754.19,158.20,-971.19,280.27,-0.48,2.50,2.60,-61.16
17353,760.34,753.41,748.24,754.74,754.18,156.74,-978.03,269.53,-1.57,1.51,0.12,-64.75
17391,760.34,753.41,748.26,754.75,754.19,171.39,-959.96,274.90,-3.23,3.24,0.22,-64.05
17430,760.31,753.37,748.26,754.69,754.16,169.43,-971.19,261.23,-5.31,-1.39,0.35,-62.31
17468,760.30,753.43,748.28,754.71,754.18,167.48,-963.87,262.70,-0.70,1.17,1.12,-62.62
17509,760.28,753.37,748.23,754.65,754.13,166.99,-988.28,259.77,-1.82,-0.89,3.71,-63.17
17548,760.31,753.36,748.26,754.76,754.17,170.90,-974.12,277.34,2.45,1.10,-0.11,-63.64
17586,760.34,753.35,748.17,754.83,754.17,159.18,-948.73,273.44,2.18,3.21,-0.21,-68.92
17625,760.32,753.37,748.29,754.80,754.19,165.04,-960.45,279.30,3.25,0.56,0.86,-63.39
17663,760.33,753.42,748.33,754.72,754.20,160.64,-966.31,274.90,2.90,2.01,-0.15,-60.88
17704,760.36,753.45,748.22,754.70,754.18,167.48,-976.07,268.07,1.79,2.06,0.70,-65.49
17745,760.39,753.43,748.26,754.73,754.20,172.36,-952.64,275.88,0.59,2.31,1.44,-63.89
17783,760.35,753.41,748.21,754.76,754.18,153.81,-967.29,276.37,0.18,0.73,0.62,-66.47
17822,760.38,753.41,748.33,754.77,754.22,164.55,-966.80,276.86,-0.02,1.95,2.18,-61.67
17860,760.43,753.42,748.33,754.77,754.24,162.11,-963.38,276.86,-0.40,1.55,-0.70,-61.64
17899,760.40,753.44,748.29,754.79,754.23,153.32,-958.01,266.11,-0.51,1.96,1.04,-63.86
17937,760.38,753.46,748.30,754.77,754.23,163.09,-963.87,268.07,-0.64,0.47,-1.55,-63.35
17978,760.40,753.44,748.30,754.76,754.22,156.74,-964.36,267.09,0.04,0.21,0.60,-63.07
18021,760.38,753.41,748.24,754.79,754.21,153.81,-956.05,275.88,0.53,1.07,-0.82,-65.84
18060,760.32,753.46,748.27,754.71,754.19,148.44,-974.12,277.83,0.71,3.81,0.34,-63.49
18098,760.35,753.37,748.30,754.83,754.21,146.97,-968.75,263.67,2.83,2.18,-0.40,-63.42
18137,760.37,753.47,748.36,754.84,754.26,154.79,-964.84,276.86,0.43,-2.06,-0.04,-61.91
18177,760.32,753.37,748.28,754.79,754.19,158.20,-964.36,275.39,1.11,2.27,1.13,-63.44
18216,760.34,753.47,748.28,754.86,754.24,157.71,-971.68,280.76,1.69,2.92,0.76,-65.85
18254,760.38,753.43,748.33,754.79,754.23,153.32,-968.75,274.90,1.31,1.19,-0.47,-62.02
18292,760.39,753.53,748.32,754.85,754.27,156.74,-974.12,277.34,0.63,0.70,5.11,-64.68
18330,760.41,753.42,748.29,754.85,754.24,146.97,-970.21,276.37,1.73,1.98,-0.11,-65.13
18367,760.39,753.43,748.29,754.82,754.23,151.37,-968.75,276.86,0.01,1.30,-0.24,-64.59
18408,760.43,753.42,748.28,754.77,754.22,161.13,-982.42,268.07,-0.77,1.31,1.72,-63.87
18446,760.37,753.49,748.31,754.73,754.23,153.32,-965.33,284.18,0.42,0.77,-2.17,-62.53
18485,760.47,753.47,748.34,754.75,754.26,154.30,-971.19,270.51,-1.33,0.30,-0.37,-61.89
18523,760.38,753.36,748.35,754.79,754.22,156.74,-965.33,274.41,1.40,-0.13,-1.56,-60.54
18561,760.38,753.39,748.31,754.76,754.21,162.11,-971.19,284.67,-1.25,0.63,4.95,-62.18
18599,760.38,753.52,748.27,754.83,754.25,148.93,-969.24,279.30,2.27,-0.62,-1.42,-66.20
18640,760.41,753.45,748.30,754.85,754.25,159.67,-961.91,277.83,0.15,0.41,-0.16,-64.69
18679,760.46,753.47,748.28,754.89,754.28,172.85,-968.75,277.83,2.99,0.47,-1.99,-66.63
18717,760.40,753.49,748.25,754.85,754.25,148.44,-979.98,268.07,1.48,2.02,1.40,-67.15
18756,760.33,753.44,748.34,754.89,754.25,160.16,-960.94,277.83,-0.04,2.95,-2.03,-63.21
18793,760.40,753.44,748.31,754.84,754.25,148.44,-962.40,273.93,-0.26,0.69,-0.47,-63.95
18832,760.40,753.41,748.30,754.85,754.24,157.71,-965.33,280.27,-0.40,2.96,1.75,-64.47
18871,760.30,753.50,748.25,754.81,754.21,161.62,-973.14,274.90,-0.49,2.97,0.55,-66.53
18910,760.37,753.43,748.30,754.91,754.25,158.20,-970.21,271.97,0.34,3.47,-0.58,-65.51
18951,760.37,753.51,748.33,754.87,754.27,152.34,-973.63,281.74,1.87,4.76,0.67,-64.47
18990,760.37,753.45,748.32,754.87,754.25,170.90,-971.19,278.81,0.12,2.44,0.12,-64.35
19029,760.41,753.51,748.29,754.79,754.25,153.32,-967.29,268.07,0.69,0.47,-0.98,-64.74
19067,760.36,753.52,748.30,754.75,754.23,161.62,-970.21,270.02,-2.01,0.31,-0.30,-63.56
19110,760.40,753.44,748.29,754.79,754.23,154.79,-962.40,269.04,0.55,2.43,0.91,-63.91
19148,760.37,753.48,748.32,754.77,754.24,160.16,-971.19,277.34,1.91,1.06,-0.59,-62.77
19187,760.34,753.48,748.28,754.81,754.23,168.46,-972.17,275.39,1.05,2.43,1.18,-64.97
19225,760.42,753.45,748.36,754.80,754.26,154.79,-961.91,273.93,2.56,1.08,-0.86,-61.25
19263,760.45,753.52,748.37,754.84,754.30,149.41,-967.29,273.44,-0.81,3.40,-0.10,-62.31
19302,760.34,753.54,748.30,754.91,754.27,159.18,-970.21,260.74,0.69,2.18,1.45,-66.51
19343,760.34,753.44,748.32,754.85,754.24,151.37,-967.29,257.81,-1.13,-0.61,1.85,-63.56
19381,760.33,753.50,748.24,754.84,754.23,152.83,-970.70,270.02,-1.60,0.50,0.85,-67.39
19420,760.22,753.56,748.30,754.81,754.22,161.62,-967.29,274.90,0.50,1.80,0.68,-64.52
19458,760.28,753.50,748.35,754.83,754.24,169.43,-964.84,287.11,-0.33,2.08,1.33,-62.62
19497,760.28,753.44,748.33,754.75,754.20,163.09,-963.87,281.74,0.39,0.40,1.74,-61.45
19535,760.23,753.41,748.31,754.80,754.19,151.86,-968.75,269.53,-1.56,2.36,1.26,-62.74
19576,760.27,753.40,748.22,754.75,754.16,149.41,-956.54,278.81,0.04,0.80,0.18,-65.37
19615,760.24,753.41,748.31,754.84,754.20,165.53,-955.08,253.91,1.12,-0.12,0.26,-63.45
19653,760.24,753.42,748.33,754.86,754.21,165.53,-954.59,275.88,1.57,2.04,0.04,-62.83
19692,760.19,753.45,748.32,754.83,754.20,165.04,-965.33,267.09,0.66,1.13,-0.04,-63.15
19730,760.17,753.46,748.33,754.88,754.21,152.83,-962.40,278.32,1.28,2.51,-0.58,-63.74
19769,760.17,753.41,748.28,754.79,754.16,167.48,-971.68,296.39,1.22,-2.09,1.94,-63.73
19809,760.23,753.46,748.30,754.78,754.19,163.57,-972.66,274.90,-0.03,2.71,-0.83,-63.04
19847,760.13,753.43,748.28,754.86,754.17,164.55,-957.52,284.18,0.03,0.50,-0.06,-64.86
19891,760.15,753.36,748.31,754.82,754.16,155.27,-965.33,280.76,0.55,3.18,0.75,-62.17
19930,760.19,753.48,748.28,754.88,754.21,155.76,-973.14,276.86,0.49,1.98,1.11,-66.09
19968,760.22,753.43,748.35,754.86,754.21,155.76,-958.50,269.53,0.66,1.78,1.10,-62.31
20006,760.18,753.43,748.30,754.82,754.18,160.16,-963.87,271.48,1.22,1.37,1.43,-63.57
20047,760.16,753.39,748.35,754.68,754.15,153.81,-970.70,266.11,3.08,2.10,0.26,-58.99
20084,760.25,753.45,748.27,754.85,754.21,163.09,-959.96,272.95,0.54,-0.38,-0.15,-65.49
20122,760.26,753.48,748.28,754.77,754.20,155.27,-957.03,277.34,-0.41,2.85,0.53,-64.06
20161,760.21,753.45,748.32,754.87,754.21,169.43,-965.82,274.90,1.26,0.01,2.15,-63.57
20199,760.23,753.49,748.27,754.75,754.19,170.41,-966.80,277.83,-1.65,2.40,-0.46,-64.11
20237,760.26,753.54,748.34,754.80,754.23,161.13,-974.61,277.34,-0.24,1.59,-2.18,-62.86
20278,760.17,753.52,748.28,754.86,754.21,160.16,-975.59,280.27,-0.05,2.34,1.59,-66.07
20316,760.19,753.47,748.28,754.90,754.21,151.37,-961.91,272.46,2.50,1.30,0.31,-66.31
20355,760.25,753.39,748.27,754.85,754.19,155.76,-954.59,279.79,-1.09,3.63,0.58,-65.10
20393,760.24,753.49,748.30,754.81,754.21,156.25,-964.84,279.30,0.80,-0.83,1.37,-64.01
20432,760.21,753.49,748.34,754.77,754.20,152.34,-969.73,269.04,0.34,1.00,0.03,-61.55
20473,760.21,753.41,748.31,754.78,754.18,162.60,-964.36,283.20,0.63,0.66,-0.17,-62.10
20511,760.23,753.40,748.31,754.83,754.19,149.41,-963.87,276.37,-1.21,1.04,1.47,-62.86
20550,760.26,753.47,748.38,754.75,754.22,149.90,-954.59,271.97,0.47,1.49,-1.55,-59.58
20589,760.16,753.49,748.38,754.75,754.19,166.02,-967.29,271.00,-0.50,0.60,-0.91,-59.40
20627,760.13,753.44,748.32,754.84,754.18,158.20,-964.84,277.34,-0.26,-0.25,0.57,-63.16
20665,760.12,753.43,748.35,754.82,754.18,154.30,-967.77,266.60,-0.18,3.36,-0.69,-61.23
20709,760.15,753.52,748.34,754.82,754.21,149.90,-959.47,279.30,0.64,1.82,2.05,-62.66
20748,760.15,753.45,748.35,754.85,754.20,152.83,-963.38,271.00,1.48,1.95,-0.99,-62.09
20786,760.17,753.51,748.32,754.85,754.21,148.93,-972.17,271.97,0.84,3.36,0.32,-63.91
20831,760.13,753.49,748.31,754.81,754.19,146.48,-955.57,268.07,0.02,-2.24,0.21,-63.45
20870,760.11,753.45,748.32,754.88,754.19,160.64,-962.40,264.65,1.08,3.38,-1.62,-63.63
20908,760.15,753.47,748.31,754.85,754.20,157.23,-970.21,277.83,-0.01,-0.02,0.36,-63.76
20949,760.12,753.47,748.31,754.83,754.18,153.81,-978.03,270.51,-0.25,2.23,-0.22,-63.32
20988,760.11,753.51,748.29,754.83,754.19,145.02,-965.82,271.00,0.60,1.31,-0.68,-64.57
21026,760.10,753.46,748.31,754.83,754.17,143.07,-949.71,280.27,0.92,1.37,0.73,-63.17
21065,760.12,753.46,748.35,754.81,754.18,150.39,-958.98,272.95,0.63,1.54,-1.07,-61.55
21103,760.07,753.47,748.31,754.83,754.17,172.85,-960.94,272.95,2.11,2.23,-2.82,-63.51
21142,760.07,753.50,748.32,754.85,754.18,164.06,-958.98,271.00,0.53,-0.60,1.63,-63.71
21183,760.11,753.44,748.35,754.82,754.18,147.95,-963.87,268.55,1.76,0.36,-3.11,-61.35
21221,760.06,753.48,748.32,754.84,754.18,159.67,-962.89,286.13,0.52,1.89,1.44,-63.39
21260,759.98,753.41,748.32,754.81,754.13,169.43,-959.47,257.32,0.39,0.75,2.41,-61.59
21298,760.11,753.41,748.33,754.86,754.18,166.50,-962.89,263.18,-0.96,2.53,0.47,-62.46
21337,760.14,753.50,748.30,754.83,754.19,163.09,-967.29,277.34,0.95,0.69,-0.47,-64.20
21375,760.05,753.58,748.31,754.91,754.21,165.53,-966.80,269.53,-1.22,0.02,-2.02,-65.89
21416,760.11,753.55,748.29,754.83,754.19,159.18,-967.29,275.39,1.48,0.05,-0.74,-64.88
21455,760.13,753.50,748.29,754.88,754.20,161.62,-965.33,271.48,0.75,1.02,-0.92,-65.73
21493,760.16,753.46,748.36,754.93,754.23,159.18,-967.77,267.09,-1.15,-0.51,0.20,-63.04
21532,760.08,753.50,748.35,754.84,754.19,163.09,-972.17,264.65,0.23,3.34,-0.05,-62.09
21570,760.13,753.49,748.38,754.86,754.22,159.18,-969.73,269.53,-1.78,2.53,-0.53,-61.19
21609,760.09,753.55,748.41,754.85,754.23,159.67,-968.75,276.86,-1.27,2.75,0.90,-60.38
21649,760.11,753.43,748.33,754.92,754.20,168.46,-973.63,274.90,-0.05,1.40,2.89,-63.94
21688,760.07,753.43,748.36,754.84,754.18,169.92,-954.10,266.60,0.42,0.43,-0.08,-60.79
21726,760.04,753.54,748.36,754.95,754.22,171.39,-977.05,281.74,2.06,-0.56,-0.28,-64.19
21769,760.08,753.46,748.38,754.88,754.20,175.78,-965.82,263.18,-1.11,1.68,0.36,-61.25
21807,760.14,753.47,748.29,754.83,754.18,158.69,-970.70,269.04,-1.34,2.85,0.40,-64.31
21845,760.09,753.48,748.40,754.87,754.21,144.53,-964.36,271.00,-0.72,2.36,1.28,-60.44
21886,760.06,753.50,748.30,754.86,754.18,176.27,-966.31,276.37,-0.12,-2.27,-1.28,-64.49
21925,760.03,753.49,748.31,754.84,754.17,160.16,-974.12,286.13,1.32,2.53,-0.90,-63.61
21963,760.14,753.47,748.31,754.85,754.19,151.37,-968.26,274.90,-0.12,0.96,0.40,-63.69
22001,760.09,753.43,748.36,754.89,754.19,150.39,-963.87,266.60,1.42,1.90,3.26,-61.68
22039,760.09,753.50,748.34,754.87,754.20,157.23,-965.33,262.70,1.71,1.70,0.20,-63.36
22078,760.05,753.48,748.31,754.88,754.18,166.99,-956.05,267.58,-0.09,1.32,1.98,-64.39
22118,760.07,753.49,748.39,754.84,754.20,172.85,-960.45,272.46,-1.39,3.69,0.06,-60.44
22156,760.10,753.39,748.38,754.84,754.18,155.76,-955.57,272.46,1.29,-0.39,1.70,-59.77
22195,760.12,753.46,748.38,754.79,754.19,166.50,-952.64,277.83,-2.08,0.21,1.29,-59.64
22233,760.07,753.46,748.37,754.84,754.19,164.55,-973.14,267.09,0.54,0.81,1.44,-60.79
22273,760.12,753.43,748.37,754.86,754.19,172.85,-979.49,260.74,-0.11,1.04,0.69,-60.94
22314,760.13,753.50,748.33,754.78,754.19,170.90,-975.10,265.62,-0.06,0.70,1.82,-61.92
22352,760.12,753.59,748.31,754.84,754.21,155.27,-958.01,259.77,-0.89,1.69,0.47,-65.03
22390,760.16,753.57,748.37,754.89,754.25,156.25,-954.59,280.27,0.81,1.11,-0.79,-63.20
22429,760.19,753.50,748.32,754.85,754.22,168.95,-965.82,274.41,0.72,0.82,-0.04,-63.91
22468,760.15,753.49,748.33,754.84,754.20,164.06,-978.03,271.48,-0.02,0.50,-0.35,-62.93
22506,760.10,753.38,748.34,754.86,754.17,157.23,-969.73,267.58,0.08,2.84,0.51,-61.85
22547,760.16,753.54,748.34,754.86,754.23,156.25,-977.54,270.02,1.66,0.11,1.03,-63.56
22586,760.08,753.55,748.35,754.91,754.22,164.06,-967.77,268.07,1.88,0.82,0.02,-64.04
22624,760.09,753.54,748.39,754.94,754.24,162.11,-959.96,273.44,-1.23,0.76,1.62,-62.87
22662,760.12,753.51,748.32,754.83,754.19,172.85,-973.14,272.46,1.11,1.24,-0.48,-63.50
22706,760.08,753.54,748.31,754.87,754.20,156.74,-962.40,275.88,-1.31,1.76,2.19,-64.70
22745,760.17,753.56,748.32,754.80,754.21,162.11,-957.03,267.09,1.66,-1.53,-0.15,-63.49
22786,760.20,753.54,748.33,754.83,754.23,170.41,-968.26,272.95,1.80,2.82,1.01,-63.34
22824,760.16,753.52,748.35,754.80,754.21,166.02,-972.17,274.41,0.49,1.39,-0.60,-61.76
22863,760.15,753.52,748.35,754.85,754.22,156.74,-974.12,274.90,0.21,1.73,1.53,-63.01
22901,760.13,753.49,748.38,754.84,754.21,154.30,-961.91,271.97,-0.53,2.50,0.01,-60.80
22939,760.20,753.49,748.37,754.87,754.23,161.13,-954.10,276.86,-0.91,2.92,-0.02,-62.12
22978,760.13,753.55,748.33,754.80,754.20,160.64,-970.70,265.14,1.51,3.21,-2.27,-62.69
23019,760.19,753.53,748.35,754.82,754.22,162.60,-963.87,274.90,-1.43,1.76,0.85,-62.38
23057,760.20,753.55,748.39,754.84,754.24,159.67,-969.24,275.39,1.13,0.27,1.66,-61.33
23096,760.17,753.55,748.31,754.82,754.21,157.23,-967.29,269.04,0.44,0.05,1.17,-64.22
23134,760.12,753.55,748.36,754.83,754.21,159.18,-965.82,270.02,1.17,-0.79,-0.68,-62.14
23173,760.11,753.56,748.34,754.90,754.23,166.99,-966.80,278.32,-0.44,-0.02,0.76,-64.24
23211,760.10,753.54,748.37,754.88,754.22,150.39,-972.66,269.04,0.69,3.48,0.27,-62.66
23252,760.13,753.58,748.42,754.90,754.25,157.71,-967.29,279.79,-0.07,-0.15,1.31,-61.22
23291,760.07,753.56,748.38,754.82,754.21,146.97,-968.26,271.00,0.08,2.08,-1.08,-61.32
23329,760.10,753.44,748.40,754.87,754.20,165.53,-967.77,291.50,-0.18,0.79,-0.66,-60.19
23368,760.16,753.52,748.33,754.84,754.21,149.90,-956.05,280.76,-1.09,2.21,-1.27,-63.38
23406,760.02,753.49,748.40,754.85,754.19,158.20,-969.24,271.00,0.08,0.21,1.02,-59.88
23445,760.12,753.59,748.39,754.88,754.25,150.39,-967.29,281.74,-0.93,1.79,-1.82,-62.10
23485,760.21,753.59,748.41,754.86,754.27,148.93,-965.33,280.76,-0.20,4.17,1.56,-61.34
23524,760.14,753.52,748.37,754.85,754.22,173.34,-975.59,270.02,-0.03,1.78,-2.07,-61.86
23562,760.15,753.57,748.40,754.88,754.25,162.11,-971.68,269.04,1.15,0.66,1.79,-61.38
23600,760.15,753.51,748.45,754.84,754.24,166.02,-963.87,277.34,2.28,3.53,0.89,-58.66
23643,760.14,753.55,748.38,754.80,754.22,160.64,-964.84,260.74,0.92,1.37,-1.98,-60.68
23684,760.13,753.49,748.30,754.84,754.19,151.37,-966.31,276.37,-0.89,0.00,0.75,-64.25
23725,760.09,753.49,748.38,754.81,754.19,161.13,-969.73,266.60,2.14,1.04,-2.82,-60.41
23763,760.11,753.52,748.46,754.83,754.23,158.20,-958.50,269.04,1.15,1.58,0.19,-58.12
23801,760.13,753.49,748.40,754.89,754.23,154.79,-963.87,264.16,1.22,2.02,0.91,-60.87
23839,760.14,753.56,748.39,754.78,754.22,153.81,-969.24,260.74,-0.18,3.34,-0.53,-60.25
23877,760.15,753.48,748.41,754.84,754.22,157.71,-980.47,265.62,0.63,1.01,0.20,-59.48
23916,760.08,753.56,748.33,754.85,754.20,155.27,-968.75,283.20,-0.46,2.52,0.60,-64.01
23957,760.18,753.55,748.35,754.86,754.24,166.99,-965.33,272.46,1.62,0.15,-1.29,-63.10
23995,760.13,753.41,748.35,754.85,754.19,147.46,-965.33,261.72,0.83,0.18,0.72,-61.40
24034,760.11,753.54,748.37,754.83,754.21,158.20,-959.96,283.69,1.66,3.24,1.03,-61.67
24072,760.08,753.50,748.33,754.87,754.20,150.88,-979.00,275.39,-0.52,-3.57,0.96,-63.48
24111,760.11,753.45,748.37,754.84,754.19,157.23,-971.19,279.79,-0.11,3.05,-1.20,-60.96
24149,760.14,753.42,748.36,754.84,754.19,152.83,-960.94,267.58,-0.52,4.76,-1.12,-61.05
24190,760.16,753.52,748.44,754.85,754.24,163.09,-961.43,275.88,-1.90,2.02,-0.08,-59.13
24229,760.16,753.53,748.35,754.88,754.23,162.11,-967.77,281.25,-0.66,4.00,0.37,-63.30
24267,760.10,753.50,748.40,754.82,754.21,158.69,-960.45,264.16,0.10,1.19,0.89,-59.95
24306,760.04,753.52,748.40,754.89,754.21,152.34,-964.84,271.97,0.56,0.33,0.52,-60.70
24344,760.12,753.49,748.38,754.95,754.23,166.50,-979.00,265.14,0.73,2.14,3.92,-62.70
24385,760.11,753.44,748.33,754.87,754.19,159.18,-981.93,268.07,0.69,-0.92,0.82,-63.17
24424,760.10,753.50,748.36,754.88,754.21,159.67,-964.84,273.93,-0.43,1.35,1.54,-62.49
24462,760.15,753.54,748.41,754.89,754.25,145.51,-972.17,259.77,-1.40,1.93,0.59,-61.05
24500,760.15,753.57,748.39,754.83,754.24,156.25,-967.77,268.07,-0.67,1.15,0.18,-61.41
24539,760.11,753.57,748.40,754.84,754.23,156.74,-973.14,266.11,-0.32,0.73,3.89,-60.79
24584,760.14,753.46,748.34,754.86,754.20,157.71,-973.14,271.97,-1.22,2.40,-1.02,-62.77
24627,760.16,753.55,748.39,754.84,754.24,149.41,-961.91,279.79,1.79,1.77,1.39,-61.19
24665,760.18,753.58,748.39,754.89,754.26,151.86,-968.26,263.18,1.51,4.35,-0.21,-62.30
24704,760.14,753.53,748.41,754.80,754.22,158.69,-962.89,260.25,-2.60,1.28,-3.47,-59.30
24742,760.18,753.48,748.40,754.84,754.22,166.50,-958.98,271.97,0.79,1.60,-0.34,-59.98
24781,760.10,753.48,748.41,754.84,754.21,155.27,-971.19,269.04,0.38,2.34,-0.17,-59.57
24819,760.18,753.50,748.47,754.89,754.26,161.62,-968.75,283.69,-0.89,0.54,2.11,-58.49
24860,760.11,753.49,748.41,754.90,754.23,169.43,-962.40,263.67,2.40,1.65,-2.90,-60.56
24899,760.12,753.54,748.41,754.90,754.24,158.20,-978.52,273.93,0.24,1.01,-0.92,-61.24
24937,760.12,753.51,748.39,754.86,754.22,152.34,-974.12,286.62,1.82,1.44,0.44,-60.91
24975,760.10,753.55,748.34,754.89,754.22,155.27,-962.89,271.97,0.08,1.44,2.92,-64.04
25014,760.09,753.53,748.44,754.83,754.22,158.20,-955.57,263.67,-1.52,-0.97,0.44,-58.82
25052,760.17,753.54,748.39,754.85,754.24,165.53,-976.56,252.44,1.69,2.04,-0.39,-61.09
25093,760.09,753.50,748.41,754.82,754.20,162.11,-965.82,269.04,1.53,1.00,0.59,-59.23
25132,760.18,753.55,748.39,754.86,754.24,153.81,-973.14,279.79,1.07,0.51,-1.09,-61.45
25170,760.10,753.57,748.35,754.96,754.25,154.79,-971.19,253.42,0.74,3.03,-0.60,-65.12
25209,760.14,753.58,748.43,754.93,754.27,158.20,-973.63,270.51,-0.69,-0.34,0.82,-61.37
25247,760.19,753.50,748.40,754.87,754.24,164.55,-976.56,276.86,0.66,0.87,2.01,-60.81
25286,760.10,753.52,748.49,754.85,754.24,162.11,-956.54,271.97,0.09,1.28,0.35,-57.48
25326,760.20,753.55,748.41,754.87,754.26,172.85,-951.66,273.93,0.93,1.24,3.61,-60.90
25365,760.13,753.49,748.40,754.90,754.23,166.50,-972.66,264.16,2.66,1.61,-2.15,-60.83
25403,760.21,753.61,748.43,754.94,754.30,167.97,-974.61,260.25,-0.93,1.07,0.39,-62.07
25441,760.15,753.48,748.35,754.93,754.23,151.37,-956.05,283.69,0.95,0.79,-0.39,-63.58
25480,760.17,753.52,748.39,754.88,754.24,166.02,-969.24,270.02,-0.66,3.36,0.63,-61.65
25523,760.18,753.54,748.42,754.97,754.28,154.30,-963.38,275.88,-0.98,2.37,0.18,-62.07
25564,760.15,753.55,748.47,754.93,754.28,157.23,-957.03,262.70,-0.83,4.83,0.33,-59.39
25602,760.19,753.58,748.39,754.93,754.27,168.95,-960.45,278.32,2.30,1.89,1.89,-63.16
25641,760.12,753.54,748.36,754.93,754.24,152.34,-970.70,275.88,0.32,3.11,1.91,-63.95
25679,760.16,753.55,748.38,754.92,754.25,165.04,-969.24,260.74,0.11,1.97,0.18,-62.74
25717,760.14,753.51,748.36,754.94,754.24,156.25,-961.43,259.77,0.77,4.65,0.81,-63.71
25755,760.19,753.57,748.43,754.93,754.28,153.32,-984.37,268.07,0.48,0.92,-2.56,-61.12
25796,760.14,753.49,748.36,754.96,754.24,160.64,-970.21,263.67,-0.40,1.82,0.58,-63.96
25834,760.15,753.48,748.38,754.84,754.21,157.71,-969.24,275.88,-0.18,1.69,2.15,-60.77
25873,760.18,753.54,748.32,754.91,754.24,159.67,-977.54,275.39,1.70,-1.53,-2.12,-65.66
25912,760.05,753.57,748.39,754.86,754.22,156.74,-967.29,276.37,-0.34,2.00,0.38,-61.23
25950,760.13,753.57,748.47,754.83,754.25,159.18,-965.82,274.41,0.68,0.20,1.12,-58.25
25988,760.06,753.52,748.48,754.94,754.25,161.13,-966.31,273.44,0.18,2.29,1.69,-58.82
26030,760.13,753.44,748.42,754.95,754.24,146.00,-972.17,261.23,0.15,0.97,-0.15,-60.77
26068,760.10,753.53,748.44,754.85,754.23,158.20,-979.98,275.88,0.73,0.71,-0.85,-59.16
26106,760.08,753.53,748.44,754.94,754.25,162.11,-970.70,258.30,1.55,2.89,-3.64,-60.14
26145,760.04,753.59,748.44,754.90,754.24,158.20,-971.68,266.60,-1.01,2.21,0.45,-60.24
26184,760.15,753.51,748.44,754.87,754.24,154.79,-966.31,253.91,1.75,-0.34,-1.44,-59.00
26222,760.11,753.55,748.44,754.91,754.25,159.67,-973.63,268.07,2.01,-0.40,-0.66,-60.23
26263,760.10,753.53,748.42,754.90,754.24,158.69,-970.21,272.95,-0.62,-0.19,0.32,-60.46
26301,760.05,753.57,748.44,754.87,754.24,166.99,-975.59,268.07,2.50,2.70,2.82,-59.41
26340,760.09,753.51,748.45,754.89,754.24,159.67,-968.26,264.16,-0.78,3.82,1.37,-58.96
26378,760.09,753.64,748.47,754.86,754.27,170.90,-969.24,265.62,-0.39,0.85,-0.96,-58.96
26417,760.13,753.57,748.42,754.85,754.24,166.02,-967.29,258.79,0.88,1.21,0.59,-60.39
26462,760.11,753.57,748.38,754.88,754.24,158.20,-971.68,266.11,0.33,2.84,-0.09,-62.27
26502,760.11,753.57,748.48,754.87,754.26,169.92,-967.29,262.21,0.19,3.93,0.98,-58.48
26540,760.14,753.56,748.46,754.95,754.28,163.09,-965.33,268.55,0.50,2.21,0.40,-60.01
26579,760.17,753.65,748.46,754.92,754.30,164.06,-967.77,271.00,1.30,1.95,-0.19,-60.68
26617,760.15,753.62,748.44,754.95,754.29,158.69,-968.75,272.46,0.76,2.90,-0.39,-61.33
26656,760.11,753.60,748.40,754.86,754.24,152.34,-965.82,270.51,-0.47,0.79,2.06,-61.63
26700,760.10,753.51,748.46,754.92,754.25,170.90,-972.66,264.16,-1.44,3.10,2.19,-59.04
26738,760.13,753.57,748.36,754.88,754.23,151.37,-968.75,268.07,0.61,2.82,1.30,-63.45
26776,760.08,753.67,748.38,754.93,754.26,156.74,-984.86,278.81,-0.27,0.71,0.92,-64.31
26815,760.11,753.63,748.45,754.91,754.27,153.81,-972.17,263.67,0.46,1.63,-0.47,-60.68
26853,760.09,753.54,748.46,754.91,754.25,160.64,-969.24,260.25,0.05,2.63,-0.40,-59.11
26892,760.16,753.58,748.45,754.93,754.28,159.67,-971.19,279.79,-1.40,0.40,-0.40,-60.54
26933,760.12,753.54,748.47,754.93,754.26,166.50,-970.70,266.11,-0.57,2.49,0.56,-59.05
26971,760.16,753.57,748.42,754.91,754.27,156.25,-968.75,279.79,-1.44,-0.27,1.62,-61.19
27010,760.11,753.58,748.44,754.92,754.26,155.76,-966.80,264.65,1.17,1.48,0.52,-60.70
27048,760.08,753.50,748.41,754.90,754.22,161.13,-969.24,271.48,-1.12,1.85,-1.23,-60.46
27087,760.14,753.64,748.42,754.96,754.29,171.39,-972.17,268.55,-1.09,1.00,-2.22,-62.88
27125,760.12,753.67,748.56,754.89,754.31,161.62,-969.73,280.76,1.08,2.66,0.08,-56.98
27166,760.11,753.51,748.42,754.89,754.23,161.13,-963.87,260.74,-0.11,2.77,1.44,-59.94
27204,760.11,753.62,748.51,754.91,754.29,160.16,-966.80,265.62,-0.87,-2.21,1.69,-58.27
27242,760.09,753.58,748.42,754.91,754.25,153.81,-972.66,271.48,-1.66,2.34,-0.89,-61.19
27280,760.15,753.60,748.41,754.97,754.28,162.11,-974.61,266.60,-0.34,3.49,-0.62,-63.00
27319,760.14,753.61,748.40,754.91,754.26,161.62,-966.80,276.86,1.36,2.15,1.18,-62.67
27357,760.10,753.60,748.45,754.98,754.28,170.41,-966.80,267.09,-0.89,4.11,-0.82,-61.43
27402,760.07,753.56,748.47,754.88,754.25,160.64,-975.10,270.51,1.05,0.11,1.33,-58.56
27440,760.13,753.60,748.44,754.91,754.27,158.69,-982.91,270.51,0.02,2.07,1.79,-60.52
27478,760.11,753.58,748.41,754.90,754.25,165.04,-962.89,278.81,-0.79,-0.24,1.53,-61.60
27516,760.15,753.51,748.38,754.92,754.24,170.41,-965.33,262.21,-0.50,0.42,1.31,-62.56
27555,760.09,753.59,748.46,754.95,754.27,165.04,-965.82,270.51,1.60,-1.27,-1.91,-60.39
27593,760.13,753.61,748.43,754.87,754.26,154.30,-957.52,268.55,-0.01,-0.21,-0.69,-60.63
27633,760.08,753.54,748.43,754.89,754.24,156.25,-963.38,275.39,-0.57,1.15,-0.17,-60.04
27672,760.08,753.61,748.40,754.94,754.26,165.04,-968.75,269.04,0.77,3.11,1.89,-62.85
27710,760.17,753.60,748.48,754.88,754.28,154.79,-963.87,262.70,0.98,0.67,-1.52,-58.78
27749,760.08,753.55,748.45,754.99,754.27,154.30,-977.54,266.11,0.11,1.71,1.00,-61.01
27787,760.13,753.64,748.46,754.95,754.29,144.53,-962.40,276.37,-1.89,-0.65,-1.25,-61.00
27825,760.07,753.66,748.41,754.97,754.28,158.69,-967.29,269.53,-1.69,2.02,1.60,-63.54
27866,760.02,753.56,748.44,754.96,754.24,164.55,-951.66,264.16,-0.62,2.94,2.02,-61.03
27905,760.10,753.52,748.42,754.93,754.24,172.36,-976.07,264.65,-0.66,-0.06,-0.66,-60.88
27943,760.17,753.59,748.35,754.85,754.24,159.18,-982.91,271.97,-0.72,1.02,1.46,-63.23
27982,760.13,753.56,748.36,754.92,754.24,155.76,-964.84,266.60,0.19,-0.50,-1.48,-63.92
28020,760.11,753.58,748.43,754.95,754.26,164.06,-976.56,275.39,1.32,3.81,1.19,-61.52
28059,760.10,753.53,748.44,754.99,754.27,162.11,-964.36,267.09,-0.17,1.32,-0.68,-61.20
28099,760.11,753.48,748.46,754.89,754.24,166.02,-962.40,276.86,0.21,1.31,0.00,-58.59
28138,760.07,753.55,748.43,754.86,754.23,162.60,-964.84,270.02,0.57,0.89,-0.28,-59.54
28176,760.07,753.57,748.46,754.90,754.25,159.67,-964.84,270.51,-0.72,2.62,-1.37,-59.17
28215,759.98,753.57,748.47,754.93,754.24,157.71,-960.94,265.62,-0.61,-1.22,1.46,-59.11
28253,760.05,753.55,748.43,754.96,754.25,150.88,-977.54,251.46,0.48,2.84,-0.45,-61.16
28300,760.00,753.59,748.43,754.96,754.25,154.30,-967.77,257.81,-0.37,0.49,-1.10,-61.65
28338,760.05,753.58,748.50,754.96,754.27,149.41,-959.47,259.77,-0.79,2.67,2.18,-58.91
28377,760.05,753.57,748.41,754.91,754.23,158.69,-962.40,267.58,-0.05,2.79,-1.06,-61.58
28415,760.01,753.55,748.44,754.98,754.25,154.79,-968.26,265.14,1.46,1.49,1.15,-61.15
28455,760.02,753.54,748.44,754.93,754.24,169.43,-976.07,271.00,-0.08,3.18,0.35,-60.11
28493,760.06,753.58,748.46,755.03,754.28,173.83,-959.47,271.48,1.62,-2.21,1.09,-61.58
28534,760.10,753.57,748.50,754.94,754.28,160.64,-968.26,251.95,0.37,1.46,1.60,-58.54
28573,760.05,753.55,748.43,755.00,754.26,167.48,-971.19,269.53,-1.11,1.01,0.41,-61.83
28611,760.07,753.54,748.42,754.98,754.25,151.37,-970.21,267.58,-1.53,1.49,0.77,-62.21
28651,759.96,753.51,748.41,754.95,754.21,161.13,-971.68,263.67,1.57,1.77,-0.63,-61.12
28690,760.09,753.57,748.47,754.98,754.28,171.87,-962.40,269.53,0.76,0.24,0.66,-60.37
28728,760.07,753.55,748.39,754.96,754.24,156.74,-971.68,264.65,-0.45,1.48,-0.85,-63.00
28769,759.97,753.57,748.37,754.98,754.23,167.48,-976.56,267.09,1.79,0.50,1.21,-64.24
28807,760.03,753.62,748.43,754.95,754.26,176.27,-968.75,270.51,-1.08,1.09,-0.65,-61.76
28846,759.99,753.51,748.44,754.96,754.23,150.39,-957.52,263.67,-0.16,3.38,0.47,-60.21
28884,760.03,753.60,748.38,754.97,754.25,159.67,-972.17,273.44,-1.34,3.33,0.85,-63.90
28923,759.97,753.60,748.48,755.05,754.27,164.55,-972.17,276.37,0.91,1.69,1.81,-60.88
28961,760.00,753.50,748.41,754.99,754.23,155.76,-973.14,279.30,-0.65,3.08,0.79,-61.93
29002,759.97,753.54,748.37,755.01,754.22,159.67,-960.45,263.67,2.02,-0.69,0.66,-64.30
29040,759.95,753.58,748.42,754.98,754.23,148.44,-966.31,265.62,-0.06,1.15,1.35,-62.16
29079,759.94,753.55,748.38,754.97,754.21,166.50,-965.33,257.32,-0.02,1.92,-1.60,-63.44
29117,759.97,753.58,748.47,755.02,754.26,156.74,-976.56,274.90,-0.11,0.56,-0.18,-60.96
29155,760.04,753.54,748.42,754.95,754.24,159.18,-970.70,265.62,0.93,0.56,-1.27,-61.67
29194,759.95,753.60,748.45,754.97,754.24,157.23,-964.84,266.11,0.17,2.87,-0.02,-60.82
29239,759.99,753.63,748.48,754.99,754.27,164.55,-950.68,263.67,-1.85,5.26,2.40,-60.40
29277,759.99,753.52,748.44,754.96,754.23,166.02,-969.24,264.65,0.72,2.93,-2.56,-60.30
29316,759.95,753.53,748.50,755.03,754.25,162.11,-966.31,260.74,1.36,1.14,1.39,-59.26
29354,760.00,753.60,748.46,754.96,754.26,147.95,-970.21,271.48,0.78,-0.37,1.34,-60.40
29392,759.98,753.64,748.44,754.97,754.25,142.58,-971.19,261.23,1.72,3.20,-0.47,-61.53
29430,760.03,753.57,748.48,754.94,754.25,157.23,-961.43,254.88,-1.11,0.74,0.08,-59.12
29471,759.95,753.66,748.47,754.96,754.26,170.90,-962.40,266.60,0.90,-0.33,0.61,-60.59
29509,759.99,753.63,748.47,754.95,754.26,154.79,-972.17,274.90,0.03,2.95,-2.73,-60.29
29548,760.01,753.67,748.44,754.95,754.27,170.41,-962.89,265.62,-0.24,2.75,0.34,-61.72
29586,760.03,753.70,748.44,754.94,754.28,149.41,-962.89,254.39,0.70,1.44,2.60,-61.88
29625,760.05,753.60,748.43,754.93,754.25,156.25,-966.31,270.51,0.92,1.24,0.86,-61.44
29663,760.03,753.65,748.46,754.97,754.28,164.06,-980.96,276.86,1.06,3.20,-2.14,-61.10
29706,760.07,753.66,748.42,754.97,754.28,161.62,-974.61,258.30,0.34,3.56,1.04,-63.14
29745,760.13,753.62,748.45,754.99,754.30,161.62,-964.84,282.23,-0.66,1.76,-2.56,-61.98
29783,760.07,753.67,748.41,754.96,754.28,155.76,-962.40,268.55,0.44,0.51,1.92,-63.38
29821,760.08,753.61,748.47,754.87,754.26,147.46,-970.70,254.88,-0.35,0.63,2.11,-58.97
29860,760.04,753.57,748.47,755.01,754.27,162.11,-966.80,270.51,-0.50,2.93,1.44,-60.51
29898,760.08,753.64,748.46,755.04,754.31,157.71,-970.21,268.07,1.08,2.47,-3.01,-62.25
29939,760.16,753.64,748.47,755.01,754.32,163.57,-975.10,267.09,-0.96,0.33,0.54,-61.57
29978,760.12,753.60,748.36,755.03,754.28,161.13,-974.12,258.30,0.71,2.45,1.21,-66.44
30016,760.18,753.60,748.48,755.02,754.32,150.39,-960.45,274.90,-0.92,0.92,1.50,-61.10
30055,760.11,753.69,748.47,755.03,754.32,165.04,-967.77,274.41,1.87,-1.31,1.16,-62.21
30093,760.13,753.55,748.41,755.02,754.28,147.95,-965.33,263.67,0.59,3.33,1.44,-63.55
30131,760.24,753.59,748.44,755.01,754.32,162.60,-967.77,271.00,0.56,0.08,-0.24,-62.73
30178,760.17,753.64,748.45,755.05,754.33,153.32,-964.84,271.48,0.95,0.59,0.88,-63.05
30217,760.14,753.66,748.45,755.03,754.32,165.53,-968.75,272.46,-0.08,1.70,-3.66,-63.01
30256,760.11,753.65,748.48,755.09,754.33,166.99,-964.36,262.21,-0.26,-0.97,0.06,-62.79
30294,760.20,753.59,748.47,754.99,754.31,161.62,-969.24,271.00,-0.57,2.26,0.93,-60.95
30333,760.14,753.64,748.42,755.04,754.31,169.43,-980.96,279.30,0.63,1.39,-1.26,-64.29
30374,760.20,753.65,748.43,754.96,754.31,158.20,-958.98,273.93,0.08,-0.27,1.02,-62.61
30412,760.14,753.65,748.48,754.95,754.30,166.99,-977.05,264.65,-1.70,0.93,0.22,-60.29
30450,760.16,753.67,748.46,754.93,754.31,153.32,-964.36,267.58,1.86,0.72,-0.80,-61.09
30489,760.11,753.63,748.44,755.02,754.30,155.76,-973.63,264.16,-0.32,2.26,0.60,-62.77
30527,760.06,753.62,748.45,755.05,754.30,169.92,-980.47,269.04,0.98,0.41,0.66,-62.97
30566,760.11,753.65,748.48,754.98,754.31,160.16,-972.17,263.67,-1.02,3.86,1.60,-60.52
30607,760.05,753.62,748.46,755.10,754.31,157.23,-964.84,280.27,1.13,0.10,-1.76,-62.95
30645,760.10,753.63,748.45,755.06,754.31,162.11,-971.19,277.83,-1.49,1.41,-1.89,-63.29
30684,760.09,753.65,748.45,755.02,754.30,158.20,-960.45,273.44,0.33,0.73,0.34,-62.64
30722,760.14,753.64,748.41,755.01,754.30,166.02,-966.80,269.53,-0.04,1.67,-0.90,-64.29
30761,760.05,753.63,748.43,755.01,754.28,166.99,-962.89,262.70,-1.17,3.20,2.45,-62.82
30799,760.14,753.65,748.40,754.92,754.28,168.46,-963.38,270.51,-0.66,0.37,-0.93,-63.40
30840,760.05,753.73,748.39,754.91,754.27,161.62,-960.45,262.70,2.58,2.57,-2.05,-63.91
30878,760.14,753.65,748.45,754.93,754.29,149.41,-970.70,265.14,0.07,1.05,-1.21,-61.00
30917,760.12,753.66,748.44,754.92,754.28,157.71,-965.33,266.60,0.36,1.50,0.61,-61.47
30955,760.10,753.61,748.43,754.98,754.28,160.64,-971.68,280.76,2.34,2.97,-1.33,-62.47
30993,760.05,753.61,748.46,754.98,754.27,156.25,-955.57,266.60,0.33,1.42,2.07,-61.00
31031,760.07,753.66,748.39,754.99,754.28,166.99,-970.70,259.77,1.65,4.12,-0.19,-64.67
31073,760.09,753.61,748.40,755.00,754.27,163.57,-960.45,269.53,1.88,0.67,-1.08,-64.26
31116,760.04,753.66,748.57,754.93,754.30,157.23,-977.54,271.97,-0.37,0.11,0.73,-56.84
31155,760.04,753.63,748.45,754.91,754.26,155.76,-959.96,273.44,-0.79,-0.47,3.85,-60.12
31193,760.04,753.66,748.42,755.05,754.29,165.04,-963.38,256.84,0.60,-0.18,-1.62,-64.40
31231,760.10,753.65,748.44,755.00,754.30,155.76,-973.14,260.74,-0.94,0.95,-1.02,-62.67
31270,760.06,753.59,748.45,754.95,754.26,159.18,-955.08,255.37,0.59,0.26,1.03,-60.76
31310,760.10,753.66,748.46,755.01,754.31,158.69,-973.14,273.93,-0.01,2.35,1.88,-62.18
31349,760.11,753.60,748.44,755.07,754.30,168.46,-968.26,269.53,-1.29,3.37,-3.20,-63.20
31388,760.03,753.63,748.39,755.02,754.27,167.97,-955.57,270.02,0.56,1.15,0.77,-64.81
31426,760.05,753.63,748.36,754.99,754.26,157.71,-975.59,269.04,0.44,-1.12,2.02,-65.53
31465,760.02,753.69,748.40,754.96,754.27,171.39,-970.70,263.18,0.66,1.18,-0.69,-64.14
31503,760.03,753.68,748.41,754.95,754.27,156.74,-958.50,269.53,2.08,2.37,0.75,-63.32
31544,759.98,753.59,748.43,754.96,754.24,167.97,-964.36,255.37,-0.17,3.02,-1.07,-61.60
31583,760.01,753.60,748.48,754.97,754.26,166.50,-968.75,260.74,-0.52,-0.93,0.86,-59.78
31621,760.04,753.61,748.39,754.97,754.25,158.69,-976.07,262.70,-0.18,3.02,-0.50,-63.85
31660,760.00,753.57,748.38,755.04,754.25,153.32,-970.21,267.58,-0.21,0.37,-0.68,-64.74
31698,760.10,753.60,748.46,755.01,754.29,154.79,-972.17,273.44,-0.08,2.50,0.83,-61.40
31737,760.12,753.70,748.34,754.99,754.29,159.18,-964.36,253.42,1.01,2.53,1.20,-67.28
31778,760.02,753.70,748.49,755.07,754.32,157.71,-967.77,255.86,-0.50,3.18,2.02,-61.88
31816,760.10,753.66,748.40,754.98,754.28,158.69,-960.45,259.77,0.47,1.09,2.51,-63.96
31855,760.05,753.70,748.54,754.95,754.31,159.18,-979.49,272.46,-0.31,0.92,0.21,-58.19
31893,760.07,753.68,748.44,755.06,754.31,164.06,-977.05,265.62,1.82,2.28,1.95,-64.14
31932,760.02,753.74,748.47,754.94,754.29,161.62,-972.66,248.05,-0.97,2.00,1.11,-61.25
31970,759.99,753.69,748.48,754.97,754.28,152.34,-979.00,264.16,0.57,2.21,0.81,-60.79
32011,760.04,753.67,748.47,754.97,754.29,155.27,-977.54,270.02,-0.08,3.39,-0.51,-60.97
32055,760.02,753.69,748.42,755.08,754.30,165.53,-966.31,272.46,0.23,-0.20,0.45,-65.14
32094,760.04,753.69,748.49,755.04,754.32,159.67,-979.98,257.81,3.89,2.63,-1.92,-61.80
32132,760.05,753.73,748.43,754.98,754.30,160.16,-972.17,268.55,0.86,0.23,0.47,-63.44
32171,760.06,753.68,748.45,754.91,754.28,158.20,-970.21,256.84,0.90,0.82,0.56,-60.98
32209,760.09,753.62,748.44,755.00,754.29,153.81,-962.89,276.86,-0.37,1.76,1.02,-62.33
32250,760.02,753.68,748.47,754.95,754.28,150.39,-976.56,248.54,-0.40,-0.10,1.84,-60.49
32289,760.01,753.66,748.46,754.99,754.28,165.53,-959.96,263.67,1.10,1.28,1.98,-61.59
32327,760.04,753.70,748.48,754.96,754.29,159.18,-966.80,271.48,0.88,0.11,-0.82,-60.56
32365,759.97,753.65,748.50,755.02,754.28,166.99,-971.19,269.04,-1.55,0.70,0.98,-60.26
32404,759.99,753.62,748.42,755.04,754.27,165.53,-967.29,276.86,-1.11,1.69,1.88,-63.86
32445,759.96,753.58,748.52,754.99,754.26,175.78,-967.77,275.88,0.50,2.49,-0.82,-58.52
32483,759.95,753.69,748.42,754.99,754.26,151.86,-971.19,267.58,-0.44,1.11,1.34,-63.40
32522,759.93,753.64,748.44,754.95,754.24,164.06,-967.29,266.11,-0.73,1.56,-0.73,-61.30
32561,760.00,753.52,748.53,755.00,754.26,161.13,-964.36,263.18,0.24,-1.40,0.43,-57.90
32599,759.93,753.66,748.44,755.06,754.27,162.11,-960.45,271.97,0.04,3.71,2.11,-63.39
32638,759.93,753.61,748.45,755.03,754.26,157.71,-973.63,270.02,-1.90,1.95,-1.84,-61.92
32681,760.01,753.67,748.46,755.00,754.28,156.25,-979.00,273.44,-0.69,0.68,0.98,-61.68
32720,759.96,753.67,748.48,755.10,754.30,159.18,-977.05,265.14,2.31,0.34,-1.49,-62.79
32758,759.93,753.62,748.43,754.98,754.24,158.20,-969.73,272.46,1.75,0.98,1.46,-62.03
32796,759.95,753.71,748.44,754.96,754.27,159.18,-972.17,267.58,-0.16,0.80,0.13,-62.17
32835,759.94,753.64,748.47,755.02,754.27,166.99,-964.84,263.67,-1.02,1.74,-0.47,-61.21
32873,759.92,753.61,748.48,755.04,754.26,166.50,-968.75,272.95,0.02,2.53,2.80,-60.90
32914,759.94,753.65,748.45,754.99,754.26,164.55,-974.12,272.46,-0.43,1.48,0.25,-61.71
32952,759.94,753.64,748.38,754.97,754.23,151.37,-966.31,274.90,-0.58,4.76,1.39,-64.08
32996,759.95,753.61,748.53,754.97,754.26,149.90,-978.03,262.70,0.31,0.87,-2.63,-57.90
33034,759.91,753.66,748.49,755.03,754.27,157.71,-968.75,275.39,-0.91,2.37,-1.69,-60.70
33073,759.94,753.65,748.42,755.09,754.28,150.88,-962.89,266.11,0.60,0.21,-0.68,-64.70
33111,759.96,753.65,748.48,754.96,754.26,159.67,-973.14,275.88,1.34,0.19,1.47,-60.01
33153,759.98,753.70,748.46,755.00,754.29,157.71,-982.91,274.90,-1.44,1.92,0.60,-61.81
33192,759.93,753.67,748.39,755.04,754.26,154.30,-963.38,269.04,-0.51,0.46,-0.95,-65.31
33231,759.87,753.67,748.46,755.01,754.25,163.09,-964.84,265.14,1.13,1.95,3.24,-61.53
33270,759.88,753.74,748.48,755.03,754.28,168.46,-967.29,258.79,-1.86,1.00,-0.70,-61.84
33308,759.88,753.72,748.39,755.02,754.25,167.48,-982.42,251.95,-1.23,2.22,0.47,-65.25
33347,759.92,753.68,748.47,755.02,754.27,163.57,-972.17,262.21,-0.80,2.49,-0.30,-61.80
33388,759.90,753.68,748.47,755.00,754.26,155.76,-984.37,270.51,-0.89,1.29,-1.02,-61.32
33428,759.98,753.70,748.46,755.08,754.31,158.20,-963.38,272.46,-0.84,0.52,1.93,-63.49
33466,759.84,753.69,748.41,755.10,754.26,165.04,-977.54,269.53,1.40,0.21,1.17,-65.42
33505,759.87,753.70,748.45,755.10,754.28,161.13,-958.98,267.09,0.60,2.40,0.63,-64.05
33543,759.86,753.66,748.40,754.96,754.22,155.27,-978.03,275.88,1.27,0.61,-0.13,-63.27
33582,759.89,753.69,748.44,754.98,754.25,146.00,-968.26,259.77,-0.18,3.09,-1.26,-62.10
33622,759.90,753.68,748.45,754.95,754.25,160.16,-970.21,258.30,-0.15,3.08,-1.15,-61.30
33661,759.90,753.68,748.45,754.98,754.25,156.74,-977.05,275.39,1.65,2.33,0.38,-61.78
33699,759.89,753.64,748.50,754.99,754.25,158.20,-976.07,261.72,-0.38,1.24,-2.72,-59.47
33738,759.97,753.58,748.46,754.99,754.25,166.50,-972.17,262.70,2.40,3.94,1.50,-60.35
33776,759.87,753.70,748.51,755.05,754.28,168.95,-968.75,261.72,-0.87,-0.18,0.31,-60.71
33815,759.99,753.65,748.44,755.06,754.28,147.95,-969.73,261.23,0.76,0.79,1.63,-63.77
33856,759.94,753.66,748.45,755.04,754.27,160.64,-973.14,274.90,-1.40,2.24,0.92,-62.69
33894,759.88,753.63,748.47,754.98,754.24,146.97,-958.50,259.77,1.33,3.98,-1.08,-60.09
33939,759.88,753.68,748.45,755.07,754.27,156.74,-974.12,262.21,-1.23,4.02,-0.01,-63.36
33977,759.96,753.69,748.42,755.08,754.28,163.57,-966.31,266.60,-0.32,0.90,-0.16,-65.24
34016,759.97,753.65,748.44,755.07,754.28,156.74,-971.19,271.00,0.44,-0.18,1.79,-63.91
34054,759.97,753.68,748.42,754.99,754.27,175.29,-961.43,255.86,2.30,2.50,0.05,-63.20
34095,759.97,753.76,748.48,755.07,754.32,174.80,-971.19,270.02,0.89,2.01,-2.22,-63.17
34133,759.87,753.74,748.47,755.09,754.29,153.32,-964.84,265.14,-0.90,3.24,-0.94,-63.35
34172,759.97,753.68,748.52,755.09,754.31,163.09,-968.75,261.72,0.38,0.11,0.40,-60.83
34210,759.93,753.66,748.46,755.06,754.28,166.99,-973.14,258.79,-0.81,1.18,-0.13,-62.71
34249,759.93,753.69,748.49,755.03,754.28,165.53,-968.75,266.60,0.30,-0.37,0.27,-61.32
34287,759.94,753.69,748.47,755.01,754.28,161.62,-981.45,267.09,1.80,-0.34,-0.16,-61.71
34328,759.96,753.70,748.47,755.05,754.30,164.06,-965.82,269.53,0.40,2.14,0.10,-62.73
34367,759.88,753.71,748.47,754.95,754.25,146.97,-971.19,264.16,1.26,2.79,1.24,-60.68
34405,759.93,753.63,748.47,755.02,754.26,159.67,-970.70,258.30,-0.56,0.96,2.57,-61.33
34443,759.94,753.65,748.48,755.01,754.27,154.79,-959.96,262.21,1.15,3.75,1.73,-60.80
34482,759.87,753.70,748.49,755.03,754.27,161.62,-967.29,270.51,-0.28,3.31,-0.73,-60.90
34523,759.98,753.69,748.48,755.04,754.29,167.97,-961.91,255.86,0.81,1.73,0.48,-61.74
34560,759.94,753.73,748.46,755.04,754.29,158.69,-952.15,265.62,-1.62,2.47,-0.68,-63.15
34599,759.95,753.72,748.43,755.04,754.28,159.67,-959.96,265.14,0.58,0.98,0.94,-64.42
34637,759.95,753.73,748.52,755.10,754.33,165.53,-973.14,269.04,-0.35,1.25,-3.20,-61.61
34675,759.94,753.74,748.45,755.09,754.31,161.62,-952.64,250.98,-1.00,1.36,0.30,-64.52
34713,759.91,753.73,748.47,755.08,754.30,166.50,-964.36,250.49,0.60,2.49,2.80,-63.04
34754,759.96,753.64,748.49,755.10,754.30,156.74,-978.03,270.02,0.34,1.79,2.59,-62.16
34793,759.92,753.75,748.47,755.07,754.30,155.76,-966.80,255.86,-0.46,4.02,0.37,-63.04
34831,759.90,753.70,748.49,755.02,754.28,160.64,-969.73,265.14,-1.38,0.48,0.34,-61.15
34874,759.96,753.66,748.44,755.07,754.28,163.09,-962.89,266.11,-0.37,0.33,-0.76,-63.79
34912,759.95,753.71,748.41,755.08,754.29,158.20,-966.31,265.62,1.16,0.98,-0.17,-65.79
34950,759.94,753.69,748.53,755.03,754.30,158.20,-972.17,261.72,3.33,-1.95,-0.10,-59.58
34991,759.87,753.63,748.54,755.07,754.28,157.23,-968.75,268.55,1.50,0.15,1.20,-58.96
35029,759.91,753.70,748.46,755.05,754.28,164.55,-960.94,260.25,-0.98,1.51,2.55,-62.90
35068,759.95,753.69,748.47,755.12,754.31,155.76,-970.70,262.21,-0.98,2.30,1.93,-63.78
35106,759.94,753.71,748.46,755.13,754.31,175.29,-968.75,260.25,1.12,2.02,-0.35,-64.27
35144,759.95,753.75,748.47,755.09,754.31,166.50,-962.89,262.70,-0.29,0.70,0.57,-63.64
35183,759.93,753.70,748.51,755.04,754.29,166.99,-963.87,253.91,-0.21,0.04,0.61,-60.48
35224,759.93,753.72,748.46,755.09,754.30,168.95,-973.63,251.95,-1.02,1.95,-0.69,-64.07
35262,759.95,753.78,748.48,755.10,754.32,155.27,-969.73,266.11,-0.15,1.93,-1.39,-63.81
35301,759.93,753.69,748.40,755.11,754.28,157.23,-972.17,259.28,-2.29,5.37,-2.18,-66.63
35339,759.88,753.77,748.47,755.06,754.29,162.11,-973.14,264.65,-1.37,-1.96,0.57,-63.13
35378,759.92,753.75,748.46,755.10,754.31,170.41,-971.68,268.55,1.89,2.51,-0.61,-64.09
35416,759.93,753.71,748.51,755.03,754.29,153.32,-976.56,262.21,-1.76,1.42,-0.84,-60.41
35457,759.97,753.74,748.47,755.09,754.32,158.69,-974.61,270.02,-0.85,0.89,2.56,-63.54
35495,759.92,753.77,748.47,755.13,754.32,143.55,-981.45,264.65,-1.66,1.24,-1.41,-64.67
35534,759.93,753.77,748.43,755.09,754.30,158.20,-970.70,267.58,0.63,1.17,0.53,-65.55
35572,759.92,753.71,748.46,755.00,754.27,161.62,-966.80,257.32,-0.03,1.40,1.13,-61.91
35611,760.01,753.71,748.50,755.00,754.30,170.41,-974.61,279.30,-1.08,2.05,-0.50,-60.38
35649,759.97,753.82,748.47,755.11,754.34,164.06,-961.91,260.25,0.11,2.21,-1.49,-64.39
35698,759.94,753.74,748.49,755.00,754.29,166.02,-970.70,270.02,1.66,0.48,-1.62,-61.21
35737,759.96,753.83,748.48,755.05,754.33,167.97,-972.66,258.30,-0.66,-0.46,0.38,-63.27
35780,760.02,753.69,748.48,755.08,754.32,151.86,-969.73,261.72,-1.20,2.90,1.29,-62.41
35818,759.97,753.66,748.57,754.94,754.29,166.99,-964.36,261.72,-1.17,2.53,2.95,-56.77
35857,759.99,753.64,748.49,755.02,754.29,168.46,-966.80,272.95,-1.04,1.53,0.24,-60.75
35896,759.97,753.62,748.45,755.06,754.27,153.81,-972.17,262.21,1.37,2.57,1.31,-62.74
35937,759.93,753.71,748.47,755.06,754.29,148.44,-959.47,271.48,1.02,0.31,0.33,-62.88
35976,760.01,753.70,748.48,755.09,754.32,170.41,-969.73,251.46,-1.21,1.88,1.56,-63.08
36014,760.02,753.70,748.48,755.07,754.32,159.67,-978.52,258.79,0.94,1.82,1.13,-62.31
36053,760.01,753.70,748.46,755.08,754.31,152.83,-958.50,265.62,1.11,1.89,0.78,-63.57
36092,759.99,753.73,748.45,755.05,754.30,155.76,-978.03,258.79,0.55,2.53,-0.21,-63.88
36131,759.95,753.71,748.41,755.11,754.30,158.69,-962.89,264.65,0.29,0.06,-1.19,-66.18
36172,760.02,753.74,748.54,755.07,754.34,163.09,-950.68,258.79,0.04,0.55,-0.96,-60.66
36210,759.98,753.71,748.50,755.11,754.32,167.97,-968.26,266.11,-0.92,0.58,1.37,-62.34
36249,759.97,753.74,748.56,755.07,754.33,157.71,-969.73,248.05,-0.02,3.29,-0.01,-59.61
36287,759.89,753.71,748.43,755.06,754.27,161.13,-965.33,268.55,-1.85,1.87,0.11,-64.58
36326,759.98,753.68,748.48,755.04,754.30,158.69,-967.77,262.21,-0.01,0.98,2.97,-61.87
36367,760.01,753.73,748.49,755.10,754.33,159.18,-973.14,268.55,0.95,4.26,-0.62,-62.79
36405,760.01,753.68,748.46,755.05,754.30,161.62,-979.00,260.25,0.11,1.31,-1.83,-62.87
36443,759.92,753.68,748.49,755.14,754.31,168.46,-980.96,257.81,-0.27,-1.35,-0.63,-63.01
36481,759.98,753.72,748.46,755.05,754.30,169.43,-960.94,266.60,0.32,1.71,1.21,-63.05
36520,759.95,753.74,748.48,755.01,754.29,161.13,-971.68,265.62,-1.13,0.35,-1.39,-61.81
36558,760.01,753.74,748.44,755.05,754.31,163.57,-973.14,257.32,-1.08,0.79,-1.31,-64.40
36599,760.07,753.69,748.47,755.04,754.32,162.11,-981.93,259.28,0.70,1.74,-0.31,-62.62
36638,760.03,753.73,748.51,755.05,754.33,160.64,-956.05,258.30,0.66,3.02,-0.21,-61.02
36676,759.98,753.70,748.50,755.08,754.31,154.30,-967.29,266.11,0.56,1.00,1.68,-61.86
36720,759.94,753.76,748.49,755.05,754.31,148.93,-976.56,270.51,-0.17,0.77,3.26,-62.37
36759,760.00,753.70,748.45,755.07,754.31,167.48,-972.17,263.67,0.40,2.35,0.72,-63.65
36797,760.05,753.72,748.45,755.06,754.32,162.11,-975.10,262.21,3.49,1.82,0.54,-64.17
36837,759.98,753.73,748.46,755.07,754.31,166.02,-964.84,260.74,-1.39,2.22,-1.01,-63.58
36876,759.99,753.69,748.43,755.09,754.30,161.62,-980.96,263.18,-0.09,1.33,1.63,-64.77
36914,760.00,753.65,748.49,755.13,754.32,166.02,-978.52,262.21,2.99,2.93,-1.01,-62.81
36953,759.98,753.67,748.51,755.06,754.30,170.90,-982.42,258.79,1.60,0.39,-1.53,-60.89
36991,760.02,753.67,748.44,755.10,754.31,162.60,-969.24,261.72,1.10,-1.60,0.93,-64.64
37030,760.02,753.71,748.47,755.10,754.33,170.41,-965.82,257.32,-0.57,-0.92,1.18,-63.88
37071,760.00,753.74,748.46,755.07,754.32,160.16,-972.17,257.81,-1.18,1.24,1.10,-63.76
37109,760.05,753.69,748.45,755.15,754.34,158.20,-970.21,269.04,-1.02,0.40,0.41,-65.42
37148,759.98,753.69,748.53,755.11,754.33,169.92,-970.70,268.55,1.05,-0.02,-1.34,-60.73
37186,759.94,753.78,748.55,755.13,754.35,160.16,-980.47,254.39,-1.70,2.71,2.89,-61.19
37225,759.94,753.69,748.50,755.07,754.30,154.79,-965.82,265.14,-1.51,-1.08,2.54,-61.44
37263,760.03,753.78,748.49,755.12,754.36,164.06,-958.50,263.67,1.41,4.00,-3.28,-63.77
37304,760.05,753.73,748.41,755.13,754.33,161.13,-974.61,268.07,1.19,3.57,0.96,-66.89
37343,760.02,753.74,748.51,755.04,754.33,164.55,-962.40,245.12,0.70,0.19,0.83,-61.24
37381,760.00,753.64,748.50,755.09,754.31,165.53,-968.26,259.28,0.73,2.11,-0.93,-61.53
37420,759.94,753.71,748.43,755.12,754.30,165.53,-978.52,256.84,-0.58,-0.30,-0.33,-65.55
37458,759.92,753.71,748.51,755.15,754.32,155.76,-980.96,258.79,-0.67,0.14,-1.83,-62.82
37497,759.96,753.79,748.49,755.14,754.35,164.06,-967.77,256.84,-0.32,-0.04,0.78,-64.38
37538,759.99,753.69,748.47,755.09,754.31,163.57,-964.36,262.70,-1.59,0.57,-1.76,-63.32
37576,760.04,753.69,748.48,755.12,754.33,165.04,-980.47,266.11,-0.05,1.01,-0.35,-63.34
37617,759.98,753.72,748.55,755.07,754.33,175.78,-968.75,267.09,-0.73,1.76,-1.05,-59.64
37656,760.07,753.71,748.52,755.08,754.35,155.27,-962.89,267.58,1.63,1.11,-0.02,-61.01
37695,760.05,753.75,748.54,755.07,754.35,151.37,-977.05,264.16,3.49,2.86,1.11,-60.88
37735,759.99,753.78,748.45,755.11,754.33,155.27,-980.47,270.51,-0.37,4.51,1.30,-65.09
37775,759.97,753.81,748.51,755.11,754.35,155.76,-969.24,251.95,1.01,0.92,-0.37,-63.09
37814,759.96,753.83,748.54,755.16,754.37,161.62,-965.33,270.51,-0.76,1.89,0.14,-62.79
37853,759.96,753.78,748.57,755.12,754.36,159.67,-965.82,262.21,-1.15,3.47,2.51,-60.41
37891,759.96,753.82,748.49,755.14,754.35,159.67,-978.52,257.32,-1.13,0.84,-0.63,-64.48
37929,760.05,753.79,748.54,755.07,754.36,148.44,-957.52,263.18,-0.18,2.35,1.10,-60.95
37968,759.99,753.69,748.56,755.13,754.34,170.90,-976.07,265.14,0.85,4.12,-1.69,-60.12
38009,760.01,753.74,748.52,755.07,754.34,147.95,-976.07,249.51,0.15,0.79,-1.93,-61.26
38047,759.99,753.70,748.52,755.17,754.34,163.57,-973.63,266.11,1.75,-1.45,3.44,-62.36
38086,760.00,753.76,748.45,755.09,754.33,166.02,-980.47,271.97,0.74,0.45,0.39,-64.81
38124,760.05,753.70,748.54,755.17,754.37,168.46,-979.49,262.21,0.58,2.93,0.32,-61.74
38163,760.01,753.69,748.58,755.13,754.35,159.18,-969.73,258.79,0.02,-0.95,2.82,-59.49
38204,760.04,753.72,748.54,755.14,754.36,163.57,-975.59,262.70,-0.20,-0.30,2.29,-61.51
38242,759.99,753.76,748.47,755.14,754.34,168.46,-962.89,271.48,0.88,5.01,0.92,-64.97
38280,760.03,753.67,748.58,755.17,754.36,168.95,-952.64,254.39,0.10,1.75,1.36,-59.94
38318,760.04,753.73,748.56,755.20,754.38,167.97,-977.54,256.84,1.47,0.37,2.54,-61.66
38357,760.00,753.72,748.55,755.19,754.36,151.86,-973.63,266.60,0.33,3.62,1.29,-62.08
38395,759.99,753.70,748.52,755.12,754.33,161.62,-967.29,260.74,0.79,0.70,0.00,-61.73
38436,759.94,753.66,748.61,755.19,754.35,151.86,-957.52,251.95,0.47,3.06,2.03,-58.81
38475,760.03,753.76,748.54,755.11,754.36,147.95,-977.54,268.07,0.29,1.98,2.54,-61.49
38513,759.98,753.76,748.52,755.12,754.34,161.62,-964.84,261.72,-0.10,0.71,-1.01,-62.53
38556,759.97,753.71,748.53,755.13,754.34,155.27,-966.80,265.62,2.95,0.34,1.19,-61.65
38594,759.94,753.77,748.54,755.21,754.37,162.11,-968.26,261.72,0.16,1.02,0.63,-63.15
38633,759.97,753.79,748.51,755.16,754.36,163.09,-967.29,254.39,0.18,0.80,-1.70,-63.67
38677,760.00,753.79,748.58,755.19,754.39,158.20,-963.87,262.21,1.13,-0.40,-0.34,-61.15
38716,760.01,753.77,748.55,755.22,754.39,161.62,-961.43,255.86,-1.64,3.03,0.50,-63.25
38754,759.99,753.75,748.53,755.23,754.38,173.83,-972.66,265.62,0.98,3.45,3.41,-63.72
38793,759.98,753.78,748.52,755.19,754.37,170.41,-976.07,258.30,-1.82,0.89,2.92,-63.96
38831,760.01,753.83,748.51,755.20,754.39,154.79,-973.14,258.79,0.96,0.91,-0.39,-64.91
38869,760.00,753.76,748.55,755.18,754.37,162.60,-978.03,259.28,1.88,1.98,-2.31,-62.02
38911,759.98,753.77,748.54,755.21,754.38,145.51,-973.63,270.02,1.27,1.08,-0.61,-63.08
38950,760.00,753.79,748.55,755.17,754.38,171.39,-977.54,258.79,1.66,0.69,0.66,-62.43
38989,759.98,753.74,748.47,755.16,754.34,157.23,-974.61,254.39,0.47,3.19,1.53,-65.00
39027,760.03,753.75,748.53,755.09,754.35,162.11,-968.26,267.09,-0.75,1.24,0.27,-61.19
39066,759.97,753.72,748.55,755.17,754.35,156.74,-965.82,267.09,1.48,3.21,1.44,-61.47
39105,760.06,753.72,748.50,755.15,754.36,158.20,-974.12,270.51,0.07,1.15,1.04,-63.42
39146,760.06,753.70,748.53,755.12,754.35,169.92,-978.52,260.25,-0.18,0.96,2.05,-61.19
39185,760.10,753.75,748.49,755.18,754.38,159.67,-963.38,255.37,-0.85,1.18,0.68,-64.70
39223,760.12,753.75,748.53,755.18,754.39,166.50,-979.98,257.81,1.76,4.11,-2.35,-63.37
39262,760.05,753.81,748.51,755.24,754.40,160.16,-966.80,272.95,1.82,-0.30,2.63,-65.39
39300,760.07,753.80,748.52,755.14,754.38,171.39,-972.17,262.21,-1.01,1.14,-2.22,-63.30
39338,760.08,753.79,748.57,755.09,754.38,155.76,-972.17,265.14,1.15,3.37,-1.86,-60.32
39379,760.08,753.79,748.50,755.15,754.38,156.74,-963.38,261.72,-0.26,1.59,0.92,-64.13
39418,760.05,753.80,748.53,755.12,754.38,159.67,-965.33,270.02,-2.39,0.71,-0.96,-62.24
39461,760.02,753.78,748.55,755.15,754.37,155.76,-963.38,253.42,-0.20,1.05,-0.03,-61.89
39499,760.04,753.80,748.60,755.11,754.39,157.23,-965.82,269.53,1.03,0.53,0.26,-59.49
39537,759.99,753.81,748.52,755.15,754.37,163.09,-957.03,258.79,1.30,-0.24,-0.06,-63.43
39576,760.03,753.77,748.51,755.20,754.38,151.86,-969.73,261.23,-0.32,3.12,-1.02,-64.28
39616,760.04,753.75,748.54,755.18,754.38,165.53,-973.63,262.70,1.82,1.61,-1.60,-62.82
39655,760.07,753.82,748.58,755.22,754.42,175.78,-976.07,263.18,0.19,0.91,-1.40,-62.43
39693,760.07,753.76,748.64,755.20,754.42,164.06,-953.12,258.79,0.61,0.49,-0.19,-59.25
39732,760.02,753.76,748.60,755.21,754.40,162.60,-974.61,267.09,0.82,2.25,0.46,-60.33
39771,760.06,753.72,748.53,755.19,754.38,152.34,-977.54,262.21,-1.38,0.29,-0.70,-62.80
39809,760.06,753.71,748.57,755.17,754.38,155.27,-968.75,260.25,-0.63,1.36,-1.51,-60.90
39850,760.04,753.77,748.54,755.04,754.35,152.34,-977.54,272.95,1.45,2.02,-0.16,-60.62
39888,760.04,753.80,748.60,755.13,754.39,163.09,-970.21,261.23,0.38,2.11,0.57,-59.66
39926,760.03,753.79,748.49,755.14,754.36,166.99,-958.50,259.77,0.12,3.57,-0.61,-64.55
39965,760.06,753.81,748.51,755.12,754.37,174.80,-965.82,255.86,-0.98,1.92,0.88,-63.37
40004,760.04,753.84,748.55,755.23,754.42,146.97,-963.38,275.39,-0.57,1.05,0.60,-63.82
40042,760.06,753.72,748.51,755.20,754.37,156.25,-961.43,261.23,0.34,1.58,1.50,-63.96
40083,760.08,753.84,748.59,755.17,754.42,168.46,-956.54,271.97,1.35,0.74,1.16,-61.44
40121,760.04,753.76,748.55,755.18,754.38,158.20,-966.31,259.28,-0.11,2.31,-0.74,-62.30
40160,760.10,753.81,748.58,755.17,754.41,148.93,-970.21,269.04,1.25,0.00,0.82,-61.45
40198,760.01,753.79,748.55,755.16,754.38,163.09,-973.63,265.62,0.95,0.88,0.22,-61.86
40236,760.08,753.79,748.52,755.18,754.39,150.39,-970.70,269.04,0.04,2.49,0.69,-63.91
40275,760.11,753.80,748.60,755.11,754.41,149.90,-968.75,262.70,-1.96,0.99,1.15,-59.62
40316,760.09,753.70,748.53,755.12,754.36,163.57,-962.40,268.07,0.27,2.53,0.82,-61.68
40354,760.09,753.75,748.58,755.19,754.40,179.20,-972.17,258.79,0.10,4.04,-0.80,-61.08
40397,760.09,753.77,748.55,755.14,754.39,164.06,-970.70,259.28,-0.69,0.71,0.61,-61.54
40435,760.10,753.89,748.52,755.19,754.43,164.55,-979.98,260.74,-0.71,0.36,0.40,-64.62
40473,760.02,753.77,748.59,755.19,754.39,161.13,-958.98,247.07,1.31,2.49,-1.76,-60.54
40514,760.04,753.78,748.54,755.17,754.38,160.16,-961.91,246.58,-1.18,0.78,-1.69,-62.85
40552,760.00,753.71,748.58,755.17,754.36,163.57,-960.45,263.18,-1.79,0.82,-1.78,-60.31
40591,760.04,753.79,748.55,755.19,754.39,178.71,-962.89,268.07,-0.12,2.11,0.27,-62.70
40629,760.13,753.76,748.51,755.20,754.40,161.62,-971.19,265.62,1.52,0.57,-1.52,-64.32
40668,760.09,753.81,748.51,755.21,754.41,151.37,-983.89,256.35,0.40,-0.11,-0.02,-64.95
40706,760.10,753.80,748.59,755.26,754.44,150.39,-970.70,256.84,0.82,0.78,-0.74,-62.70
40747,760.06,753.84,748.63,755.15,754.42,166.50,-968.75,271.00,-0.15,0.11,1.67,-59.35
40786,760.08,753.81,748.51,755.20,754.40,151.37,-968.26,259.77,1.09,2.44,-0.27,-65.01
40824,760.08,753.83,748.57,755.28,754.44,155.76,-974.61,261.23,-0.99,-0.45,-0.36,-63.95
40863,760.13,753.80,748.54,755.26,754.43,166.50,-963.38,270.02,0.32,1.66,0.31,-64.69
40901,760.04,753.75,748.54,755.30,754.41,166.02,-971.19,266.60,0.18,-0.70,2.08,-64.89
40940,760.04,753.79,748.52,755.28,754.40,171.87,-964.84,258.79,0.45,3.11,-0.05,-65.74
40981,760.14,753.84,748.59,755.22,754.45,166.50,-969.24,255.86,0.82,2.10,-0.73,-62.40
41019,760.06,753.75,748.56,755.22,754.40,143.07,-966.80,269.53,-0.94,-0.35,0.05,-62.37
41058,760.13,753.78,748.52,755.23,754.42,160.64,-972.17,252.93,-1.44,0.26,2.99,-64.77
41096,760.05,753.75,748.55,755.16,754.38,182.13,-969.24,258.30,-0.12,0.87,-2.24,-61.84
41135,760.10,753.77,748.56,755.17,754.40,155.76,-973.63,254.88,-0.70,1.31,1.73,-61.86
41173,760.07,753.84,748.64,755.26,754.45,155.76,-963.87,263.18,0.44,1.05,1.15,-61.04
41214,760.08,753.82,748.62,755.16,754.42,167.48,-961.91,258.30,0.44,0.42,-0.44,-59.78
41252,760.10,753.80,748.57,755.20,754.42,152.34,-971.68,268.55,0.89,0.51,1.26,-62.54
41295,760.12,753.86,748.51,755.25,754.44,175.78,-966.80,262.70,0.12,0.00,-1.11,-66.53
41334,760.16,753.72,748.52,755.26,754.42,165.04,-974.12,264.65,0.85,1.23,-0.63,-65.13
41373,760.10,753.81,748.53,755.20,754.41,155.27,-970.21,253.42,1.88,1.06,0.44,-64.11
41411,760.09,753.77,748.55,755.24,754.41,166.99,-966.31,253.91,0.73,1.97,0.76,-63.68
41452,760.05,753.76,748.59,755.22,754.41,162.60,-973.63,270.02,-1.86,0.29,0.34,-61.10
41491,760.08,753.80,748.67,755.21,754.44,153.32,-970.70,257.81,0.39,1.21,-0.47,-58.81
41529,760.11,753.81,748.61,755.20,754.43,169.92,-980.96,260.25,1.53,1.57,-1.50,-60.76
41568,760.14,753.80,748.61,755.20,754.44,171.87,-965.33,261.23,1.26,0.98,-0.47,-60.89
41606,760.04,753.77,748.54,755.19,754.39,158.20,-969.24,269.53,-0.34,1.77,0.73,-63.14
41645,760.08,753.78,748.53,755.13,754.38,166.99,-975.10,255.37,-3.15,2.23,2.21,-62.41
41688,760.12,753.77,748.51,755.25,754.41,174.32,-970.70,256.35,-1.51,0.65,0.85,-65.31
41726,760.10,753.80,748.56,755.23,754.42,161.13,-968.75,248.54,-0.08,-0.50,-1.82,-63.12
41765,760.06,753.74,748.55,755.25,754.40,166.50,-970.70,263.67,0.80,-0.65,1.56,-63.38
41803,760.09,753.77,748.55,755.26,754.42,155.27,-969.24,271.48,0.31,3.00,-1.38,-63.74
41842,760.08,753.80,748.58,755.17,754.41,168.95,-972.17,257.32,1.11,-2.07,1.19,-61.47
41880,760.09,753.79,748.58,755.19,754.41,159.18,-976.07,237.30,-1.69,1.09,-0.55,-61.66
41921,760.10,753.83,748.59,755.23,754.44,160.16,-974.12,264.65,-1.85,2.30,-3.25,-62.15
41960,760.07,753.74,748.62,755.13,754.39,158.69,-962.40,253.42,1.47,1.75,0.01,-58.23
41997,760.14,753.82,748.57,755.20,754.43,156.25,-971.19,262.70,0.92,2.31,-0.64,-62.35
42036,760.10,753.77,748.58,755.21,754.41,153.81,-973.63,257.32,-1.05,0.64,3.11,-61.63
42074,760.06,753.80,748.55,755.21,754.40,157.23,-959.96,259.77,-0.94,1.77,1.60,-62.99
42112,760.11,753.81,748.53,755.21,754.41,163.57,-966.31,256.84,-0.54,-0.14,2.80,-64.11
42153,760.08,753.81,748.55,755.20,754.41,153.32,-966.31,264.16,0.61,0.77,-1.24,-63.23
42191,760.17,753.84,748.56,755.19,754.44,151.86,-959.96,261.72,-0.98,2.27,-0.20,-63.08
42235,760.18,753.81,748.56,755.23,754.44,171.87,-975.59,255.86,-0.11,1.43,-0.31,-63.66
42274,760.16,753.79,748.58,755.25,754.45,144.04,-978.52,261.72,0.57,1.05,-1.40,-62.55
42312,760.16,753.81,748.59,755.22,754.44,158.20,-966.80,256.35,-1.29,0.54,1.12,-62.20
42353,760.15,753.79,748.60,755.17,754.43,146.97,-973.63,262.70,0.70,3.17,-0.70,-60.66
42391,760.02,753.84,748.56,755.22,754.41,168.95,-969.24,261.23,0.08,2.47,1.38,-63.58
42430,760.10,753.82,748.57,755.23,754.43,165.53,-964.36,253.42,1.15,-0.11,0.85,-62.97
42469,760.08,753.78,748.61,755.24,754.43,144.04,-974.12,263.18,2.17,-1.61,-1.02,-60.99
42507,760.13,753.87,748.57,755.28,754.46,158.20,-972.17,269.53,0.39,0.59,1.64,-64.51
42545,760.15,753.82,748.54,755.15,754.41,151.86,-960.94,260.25,0.63,-0.50,0.68,-63.00
42586,760.12,753.83,748.60,755.16,754.43,168.46,-969.24,252.44,-1.64,2.18,0.49,-60.49
42625,760.13,753.80,748.57,755.16,754.41,160.64,-968.26,253.91,2.77,3.96,0.30,-61.74
42663,760.09,753.77,748.58,755.23,754.42,165.53,-975.59,270.51,-1.92,-0.44,0.68,-62.14
42702,760.12,753.80,748.59,755.21,754.43,155.27,-973.14,266.11,0.53,2.69,0.99,-61.69
42741,760.11,753.83,748.56,755.23,754.43,152.83,-977.05,262.70,0.74,2.10,1.98,-63.77
42780,760.09,753.90,748.62,755.26,754.47,166.99,-970.21,258.79,-0.26,0.34,0.04,-62.15
42821,760.09,753.86,748.60,755.30,754.46,161.62,-973.63,248.05,0.34,-1.89,0.79,-63.39
42859,760.14,753.81,748.55,755.16,754.41,153.81,-975.10,260.25,0.33,1.86,0.52,-62.68
42898,760.22,753.84,748.59,755.23,754.47,161.13,-967.29,258.79,-0.24,2.90,1.01,-62.73
42936,760.13,753.81,748.51,755.22,754.42,169.92,-963.38,248.54,0.95,-0.43,1.32,-65.26
42975,760.12,753.85,748.59,755.22,754.44,164.55,-973.14,260.25,1.05,1.11,0.37,-62.20
43013,760.11,753.84,748.55,755.26,754.44,174.80,-973.14,261.72,0.51,3.17,-1.37,-64.54
43054,760.15,753.84,748.55,755.28,754.45,166.50,-972.17,260.25,0.95,2.40,-0.85,-65.19
43092,760.13,753.83,748.56,755.25,754.44,157.23,-966.80,253.91,1.21,0.98,0.56,-63.98
43136,760.19,753.82,748.59,755.21,754.45,144.04,-967.29,258.79,-0.44,-0.04,0.33,-61.97
43176,760.10,753.81,748.63,755.19,754.43,164.55,-953.61,257.81,0.89,1.79,-0.26,-59.91
43215,760.14,753.85,748.69,755.22,754.47,175.78,-975.10,262.70,0.62,2.09,-0.92,-58.62
43253,760.17,753.95,748.66,755.22,754.50,152.34,-974.61,266.11,-0.27,2.22,1.11,-60.78
43294,760.05,753.90,748.58,755.27,754.45,158.69,-968.75,266.60,0.13,0.73,0.49,-63.90
43332,760.13,753.76,748.55,755.23,754.41,162.11,-973.63,264.16,-0.39,-0.08,-0.76,-63.36
43371,760.12,753.83,748.60,755.20,754.44,155.27,-964.36,259.28,-0.32,1.05,0.51,-61.41
43409,760.14,753.88,748.50,755.32,754.46,162.60,-983.40,261.72,-0.11,2.15,0.47,-68.23
43448,760.07,753.84,748.46,755.22,754.40,167.97,-971.68,265.14,1.65,-1.66,0.84,-67.48
43486,760.18,753.85,748.57,755.24,754.46,163.57,-969.73,258.79,0.38,0.98,-1.34,-63.69
43527,760.13,753.83,748.58,755.17,754.43,166.99,-975.59,268.07,2.66,0.23,-2.23,-61.58
43566,760.11,753.83,748.54,755.21,754.42,158.20,-964.84,254.88,0.75,2.32,0.24,-64.12
43604,760.06,753.80,748.62,755.22,754.42,160.64,-968.75,267.09,2.03,2.06,2.42,-60.60
43643,760.11,753.83,748.56,755.24,754.43,150.39,-959.96,261.23,-0.61,-2.18,-0.23,-63.78
43681,760.07,753.79,748.58,755.25,754.42,165.53,-972.66,248.54,0.84,0.24,-1.61,-62.61
43720,760.13,753.86,748.57,755.14,754.42,158.20,-960.94,262.21,-0.59,-0.08,-1.07,-61.99
43760,760.12,753.82,748.58,755.21,754.43,157.71,-983.40,263.18,-0.85,2.18,3.10,-62.30
43799,760.13,753.83,748.60,755.21,754.44,161.62,-988.77,255.86,-0.67,0.75,2.53,-61.68
43837,760.08,753.82,748.61,755.23,754.43,162.60,-973.63,248.54,-0.37,2.08,-0.14,-61.17
43876,760.12,753.79,748.59,755.21,754.43,165.53,-966.31,253.91,-2.60,0.63,2.33,-61.48
43914,760.14,753.78,748.54,755.24,754.42,162.11,-968.75,271.97,-0.67,2.66,0.42,-64.00
43952,760.11,753.91,748.54,755.22,754.45,152.34,-957.03,260.25,-0.26,0.63,-0.02,-64.86
43993,760.11,753.79,748.55,755.23,754.42,168.46,-969.73,258.30,-0.66,1.85,0.53,-63.43
44032,760.09,753.83,748.54,755.25,754.43,155.27,-975.59,255.37,-1.58,0.60,1.35,-64.54
44075,760.13,753.87,748.57,755.30,754.47,173.34,-965.82,253.42,1.63,3.04,1.21,-65.12
44113,760.20,753.89,748.56,755.25,754.47,171.87,-967.29,263.18,0.59,4.24,0.49,-64.98
44151,760.23,753.85,748.62,755.27,754.49,166.99,-969.73,248.05,1.37,1.86,2.06,-62.02
44191,760.12,753.78,748.60,755.28,754.44,150.39,-981.45,280.27,1.10,1.84,-1.75,-62.04
44232,760.05,753.84,748.62,755.26,754.44,151.37,-964.84,250.49,-0.29,0.05,0.85,-61.43
44270,760.09,753.89,748.58,755.23,754.45,173.83,-968.75,262.70,-0.92,0.95,0.43,-63.16
44308,760.16,753.85,748.53,755.30,754.46,165.53,-975.10,261.72,-0.04,0.62,2.36,-66.41
44347,760.17,753.82,748.54,755.28,754.45,161.13,-962.89,256.84,-0.71,2.74,2.63,-65.45
44385,760.23,753.83,748.60,755.24,754.48,158.20,-974.61,259.28,0.47,2.49,-2.28,-62.25
44426,760.12,753.87,748.59,755.32,754.47,147.95,-961.43,254.88,-1.03,1.93,0.76,-64.32
44465,760.12,753.85,748.54,755.26,754.44,163.09,-972.66,255.37,0.82,2.79,-0.25,-65.22
44503,760.17,753.83,748.64,755.31,754.49,158.20,-977.54,260.25,-0.79,1.29,1.35,-61.66
44542,760.19,753.81,748.65,755.28,754.48,164.06,-966.80,268.07,0.22,3.02,-0.68,-60.84
44581,760.11,753.83,748.57,755.25,754.44,160.16,-959.47,265.14,0.70,0.34,-0.70,-63.74
44620,760.14,753.82,748.58,755.31,754.46,162.60,-969.24,255.37,1.00,2.31,1.42,-64.21
44663,760.10,753.88,748.61,755.33,754.48,167.48,-969.73,252.44,1.30,1.26,-3.14,-63.93
44702,760.13,753.80,748.61,755.31,754.46,158.69,-953.12,267.58,0.91,5.25,2.89,-62.46
44740,760.11,753.85,748.56,755.27,754.45,153.32,-966.80,263.67,0.97,1.78,1.66,-64.36
44780,760.11,753.80,748.60,755.38,754.47,161.62,-981.45,247.07,1.08,2.77,0.95,-64.41
44818,760.13,753.90,748.56,755.30,754.47,160.64,-978.52,254.88,1.56,5.18,2.31,-65.62
44857,760.12,753.78,748.53,755.27,754.43,154.30,-970.21,266.60,0.50,1.50,0.82,-65.26
44898,760.04,753.85,748.56,755.20,754.41,157.71,-964.84,252.93,-2.29,1.14,1.24,-62.97
44936,760.17,753.84,748.57,755.27,754.46,162.60,-973.14,259.77,0.75,0.40,0.57,-64.25
44979,760.21,753.91,748.58,755.27,754.49,166.50,-966.31,260.74,1.44,2.61,0.27,-64.30
45017,760.13,753.91,748.60,755.28,754.48,171.87,-957.52,264.16,0.63,4.11,-2.67,-63.70
45055,760.07,753.87,748.54,755.21,754.42,161.13,-966.31,262.21,1.27,2.76,-0.36,-64.39
45094,760.14,753.97,748.62,755.32,754.51,163.57,-971.19,257.32,-0.59,1.30,1.33,-63.78
45134,760.11,753.88,748.60,755.29,754.47,154.30,-962.89,263.67,-1.91,1.50,0.24,-63.45
45173,760.15,753.87,748.57,755.28,754.47,165.53,-974.12,268.07,0.37,2.43,0.80,-64.69
45211,760.15,753.93,748.65,755.27,754.50,158.69,-960.94,250.00,0.12,1.18,-0.37,-61.58
45250,760.20,753.84,748.56,755.36,754.49,169.92,-972.66,258.30,-0.92,1.13,-0.01,-66.41
45289,760.19,753.86,748.61,755.24,754.48,160.16,-970.70,256.35,1.87,3.99,2.27,-62.23
45327,760.13,753.90,748.56,755.31,754.47,171.39,-971.68,257.81,-1.53,2.13,0.49,-65.89
45368,760.19,753.88,748.57,755.28,754.48,172.36,-974.61,264.16,-0.63,1.21,-0.16,-64.98
45406,760.15,753.91,748.61,755.32,754.50,158.69,-967.77,273.44,0.59,0.92,-0.47,-63.87
45445,760.17,753.87,748.58,755.31,754.49,161.13,-964.84,263.18,-0.51,0.29,0.94,-64.72
45483,760.20,753.85,748.57,755.30,754.48,166.50,-972.66,257.81,-0.07,2.11,0.02,-64.68
45522,760.17,753.84,748.57,755.25,754.46,149.90,-978.52,254.88,-0.94,1.50,0.18,-63.58
45560,760.22,753.92,748.51,755.24,754.47,157.71,-981.93,255.37,-1.31,-1.68,-1.40,-66.85
45601,760.23,753.85,748.57,755.22,754.47,169.92,-968.26,253.91,-2.40,-0.49,-1.52,-63.42
45639,760.21,753.86,748.56,755.16,754.45,159.67,-965.33,262.70,0.76,-0.40,1.19,-62.78
45677,760.21,753.93,748.55,755.27,754.49,146.48,-967.77,251.46,-0.84,-0.35,0.39,-65.68
45715,760.18,753.80,748.58,755.24,754.45,151.86,-979.98,250.00,-0.27,0.89,0.82,-62.81
45753,760.12,753.91,748.59,755.24,754.47,158.20,-979.00,260.25,1.52,2.00,1.81,-63.01
45792,760.20,753.87,748.51,755.31,754.47,165.53,-960.45,258.30,0.04,2.86,-1.28,-67.84
45843,760.21,753.87,748.63,755.24,754.48,161.62,-976.07,253.91,2.21,0.37,-0.37,-61.51
45882,760.18,753.86,748.60,755.30,754.48,171.39,-980.47,256.84,0.74,1.71,-0.56,-63.65
45922,760.19,753.88,748.56,755.22,754.46,170.41,-971.19,269.53,1.66,1.18,0.54,-64.22
45960,760.26,753.95,748.59,755.25,754.51,150.88,-973.14,250.98,-0.18,-1.21,-0.49,-63.83
45998,760.19,753.86,748.56,755.29,754.47,158.20,-966.80,256.35,1.50,-2.84,-0.05,-65.28
46036,760.15,753.82,748.59,755.22,754.44,158.20,-958.98,269.53,-0.82,0.71,0.23,-62.31
46081,760.21,753.88,748.60,755.33,754.51,153.32,-970.21,250.49,1.40,1.53,-0.46,-64.51
46120,760.13,753.93,748.60,755.27,754.48,160.64,-974.12,263.67,2.79,2.71,2.23,-63.62
46158,760.14,753.83,748.63,755.29,754.47,151.37,-975.10,256.35,-0.05,0.53,-0.44,-61.72
46197,760.21,753.89,748.60,755.28,754.49,170.41,-971.19,263.18,-2.07,3.14,-1.94,-63.83
46235,760.20,753.87,748.60,755.30,754.49,153.32,-971.68,259.28,1.08,-0.56,0.34,-63.79
46274,760.17,753.93,748.57,755.30,754.49,146.97,-974.61,258.30,2.32,0.67,-0.53,-65.24
46315,760.19,753.91,748.58,755.33,754.50,159.67,-961.91,255.37,-0.08,2.38,0.21,-65.44
46353,760.15,753.87,748.65,755.24,754.48,170.41,-964.36,264.65,-1.05,1.52,1.13,-60.50
46392,760.14,753.92,748.61,755.33,754.50,160.16,-980.96,245.12,0.36,1.82,0.92,-64.17
46430,760.17,753.88,748.60,755.33,754.50,166.99,-972.66,254.39,-0.78,2.76,0.60,-64.26
46469,760.16,753.96,748.57,755.32,754.50,164.06,-970.70,274.90,2.29,0.55,-0.06,-65.74
46510,760.20,753.96,748.57,755.28,754.50,165.04,-984.86,255.37,1.34,0.37,0.06,-65.41
46548,760.19,753.97,748.59,755.34,754.52,172.36,-975.59,259.77,-0.15,0.58,0.31,-65.38
46587,760.14,753.84,748.60,755.35,754.48,162.60,-965.33,252.44,1.87,2.42,-0.11,-64.38
46625,760.20,753.97,748.60,755.33,754.52,155.76,-958.50,268.55,-0.70,3.24,1.96,-64.90
46664,760.21,753.93,748.62,755.28,754.51,166.02,-967.29,262.70,0.11,1.39,0.70,-63.00
46702,760.17,753.89,748.57,755.31,754.49,165.53,-971.68,253.42,1.47,2.50,2.88,-65.28
46748,760.16,753.93,748.57,755.36,754.50,159.18,-982.91,256.35,1.26,2.65,-0.70,-66.59
46786,760.23,753.89,748.59,755.35,754.51,158.69,-962.89,273.44,1.19,1.89,0.29,-65.24
46825,760.18,753.96,748.59,755.32,754.51,163.09,-980.47,252.93,1.41,0.72,-1.69,-65.10
46865,760.19,753.92,748.54,755.28,754.48,161.13,-973.14,255.37,-1.30,0.77,0.32,-66.05
46904,760.23,754.00,748.59,755.31,754.54,163.57,-977.54,269.04,0.19,1.65,-0.72,-65.16
46942,760.15,753.84,748.62,755.30,754.48,149.90,-960.94,250.49,-1.03,1.19,1.02,-62.35
46983,760.18,753.88,748.60,755.33,754.49,152.34,-958.98,262.70,1.12,0.60,0.52,-64.53
47021,760.13,753.92,748.63,755.26,754.49,164.55,-978.03,260.74,0.05,1.45,0.66,-62.45
47060,760.22,753.92,748.62,755.30,754.51,159.67,-967.77,253.91,-1.03,0.36,0.18,-63.40
47098,760.18,753.94,748.55,755.37,754.51,166.99,-963.87,266.60,1.46,2.00,0.12,-67.50
47137,760.20,753.94,748.58,755.29,754.50,163.09,-975.59,254.88,0.09,2.01,2.55,-64.85
47175,760.08,753.94,748.54,755.34,754.48,145.51,-965.33,262.70,-0.32,1.87,-0.26,-67.13
47216,760.17,753.90,748.64,755.32,754.51,152.83,-968.26,262.21,2.35,1.05,-0.98,-62.84
47255,760.19,753.90,748.59,755.26,754.49,149.41,-969.73,262.70,0.82,1.84,1.34,-63.65
47293,760.15,753.94,748.60,755.30,754.50,161.62,-971.68,249.02,0.79,-0.44,0.67,-64.03
47332,760.13,753.90,748.60,755.33,754.49,153.81,-960.94,259.77,-0.20,1.21,2.22,-64.48
47370,760.17,753.90,748.56,755.34,754.49,163.57,-962.40,256.35,-0.13,1.01,-0.36,-66.67
47409,760.12,753.87,748.56,755.35,754.47,166.99,-978.52,257.32,0.87,1.83,-0.79,-66.18
47449,760.21,753.85,748.65,755.28,754.49,171.39,-975.59,251.46,-2.53,0.54,2.66,-61.31
47488,760.21,753.91,748.65,755.35,754.53,162.11,-962.89,253.91,-1.45,2.28,0.65,-63.18
47526,760.15,753.95,748.62,755.36,754.52,158.20,-974.61,242.68,1.52,1.01,0.30,-64.48
47564,760.18,753.93,748.58,755.30,754.50,160.64,-982.42,263.67,0.89,1.65,0.79,-65.12
47602,760.10,753.96,748.54,755.29,754.47,165.53,-961.91,256.84,0.05,1.63,-0.68,-66.19
47643,760.17,753.96,748.59,755.36,754.52,154.79,-968.75,267.09,-0.85,1.68,1.44,-65.80
47689,760.14,753.89,748.64,755.32,754.50,149.41,-960.45,250.00,-0.58,1.34,1.80,-62.54
47727,760.19,753.86,748.57,755.31,754.48,163.09,-961.43,268.55,1.11,-1.02,0.00,-65.17
47765,760.24,753.98,748.66,755.38,754.56,159.67,-974.12,259.28,-1.37,-0.49,0.24,-63.81
47803,760.15,753.93,748.61,755.29,754.50,160.16,-971.68,255.86,1.03,0.79,2.97,-63.57
47841,760.24,753.90,748.60,755.31,754.51,168.46,-960.45,259.77,0.92,3.23,0.06,-64.45
47880,760.12,753.94,748.58,755.31,754.49,152.34,-971.19,255.37,-1.47,1.01,-0.49,-65.06
47921,760.21,753.88,748.63,755.30,754.50,170.90,-973.63,262.70,-2.08,2.15,-0.60,-62.70
47960,760.20,753.92,748.60,755.37,754.52,162.60,-971.19,263.18,-1.34,0.42,-0.87,-65.74
47998,760.16,753.99,748.65,755.43,754.56,174.32,-975.59,248.05,-0.15,1.69,-0.64,-65.07
48037,760.20,753.91,748.61,755.29,754.50,151.37,-973.63,265.62,1.48,-1.73,0.53,-63.63
48075,760.17,753.96,748.59,755.38,754.52,154.79,-969.73,254.88,1.10,0.92,2.17,-66.13
48113,760.17,753.91,748.62,755.33,754.51,171.39,-981.93,259.77,-1.91,0.47,1.03,-63.91
48156,760.14,753.89,748.60,755.37,754.50,168.95,-970.70,257.32,-0.97,-0.76,0.97,-65.05
48195,760.15,753.92,748.60,755.37,754.51,148.44,-975.10,263.18,-0.71,2.26,-1.38,-65.37
48233,760.11,753.96,748.60,755.30,754.49,173.34,-970.70,238.77,0.53,4.66,1.52,-64.42
48271,760.09,753.90,748.62,755.37,754.49,167.97,-968.75,247.07,-0.39,1.08,-1.36,-64.35
48310,760.15,753.98,748.63,755.35,754.53,171.87,-964.84,252.44,-0.46,0.60,1.04,-64.16
48348,760.13,753.96,748.63,755.37,754.52,168.95,-974.12,256.35,0.75,3.30,-0.86,-64.65
48389,760.18,753.97,748.62,755.38,754.54,166.50,-975.59,257.81,0.07,2.60,1.99,-65.29
48428,760.16,753.87,748.62,755.33,754.50,146.97,-961.43,264.65,0.09,-0.47,1.06,-63.39
48466,760.13,753.99,748.67,755.34,754.53,158.69,-955.57,250.98,-0.79,1.85,0.98,-62.57
48504,760.19,753.90,748.63,755.35,754.52,161.13,-967.29,252.93,0.78,-0.73,-0.27,-63.51
48543,760.15,753.96,748.57,755.36,754.51,162.60,-966.31,254.39,-1.58,0.92,-1.53,-66.66
48588,760.16,753.92,748.62,755.28,754.49,150.88,-982.91,259.28,0.72,2.16,0.80,-63.09
48627,760.16,753.93,748.59,755.33,754.50,153.81,-979.49,248.54,0.17,2.95,-0.30,-65.33
48665,760.12,753.89,748.63,755.30,754.48,153.32,-966.31,263.67,0.50,1.96,1.39,-62.44
48703,760.19,753.95,748.67,755.32,754.53,167.97,-974.12,264.16,-1.00,1.97,-0.63,-61.97
48742,760.18,753.89,748.61,755.29,754.49,162.60,-970.70,263.18,0.91,0.97,1.26,-63.11
48780,760.21,753.94,748.68,755.36,754.55,164.06,-968.26,269.04,2.57,3.37,-0.66,-62.38
48821,760.15,753.95,748.66,755.41,754.54,169.43,-970.21,259.28,0.56,4.15,2.37,-64.13
48859,760.23,753.93,748.66,755.37,754.55,148.93,-963.87,254.88,-0.86,0.88,0.57,-63.22
48898,760.26,754.01,748.62,755.32,754.55,159.18,-966.31,263.67,-1.47,-1.00,3.69,-64.55
48937,760.21,754.03,748.58,755.42,754.56,162.11,-969.24,264.16,-0.41,1.20,0.57,-67.99
48976,760.19,754.00,748.66,755.39,754.56,174.32,-977.54,245.61,0.34,-1.18,-0.80,-63.79
49014,760.30,754.01,748.68,755.33,754.58,154.30,-967.77,265.62,-0.73,2.77,0.31,-62.59
49055,760.22,754.03,748.57,755.30,754.53,155.27,-963.87,252.93,0.10,2.20,-1.66,-65.94
49094,760.20,754.02,748.59,755.32,754.53,163.09,-978.03,256.84,1.47,1.47,-1.06,-65.70
49132,760.24,753.97,748.59,755.26,754.52,145.02,-954.10,247.07,-0.97,1.21,-0.67,-64.36
49171,760.28,753.97,748.60,755.41,754.57,164.55,-964.36,265.62,1.24,2.76,-0.81,-66.97
49210,760.28,753.97,748.66,755.38,754.57,159.67,-961.91,262.70,-0.31,1.50,-1.34,-64.00
49249,760.24,753.98,748.60,755.35,754.54,160.16,-972.17,252.44,0.56,0.33,-0.18,-65.64
49289,760.26,753.95,748.61,755.43,754.56,149.90,-981.45,263.18,0.03,3.33,2.00,-66.79
49327,760.32,753.91,748.61,755.39,754.56,159.18,-978.03,274.41,0.40,1.48,-1.31,-65.74
49365,760.26,754.09,748.54,755.43,754.58,166.50,-971.68,271.97,0.86,1.27,0.01,-70.33
49403,760.26,754.05,748.62,755.33,754.57,171.87,-968.75,256.84,0.63,1.47,0.69,-64.93
49442,760.33,753.98,748.64,755.38,754.58,166.02,-966.31,266.60,-0.50,-0.45,1.55,-65.14
49480,760.27,753.94,748.62,755.43,754.57,170.90,-976.56,257.32,-0.39,3.66,-0.50,-66.04
49527,760.27,753.95,748.63,755.33,754.55,161.13,-977.54,256.84,0.29,0.76,1.63,-63.99
49566,760.31,753.91,748.57,755.39,754.54,155.27,-961.43,259.77,-1.56,0.24,-0.24,-67.55
49604,760.29,754.00,748.56,755.35,754.55,154.30,-976.56,253.91,-0.24,0.50,0.44,-67.35
49643,760.29,754.00,748.58,755.38,754.56,155.76,-962.40,260.74,0.08,2.85,2.18,-67.43
49681,760.25,753.96,748.61,755.29,754.53,158.69,-963.38,261.72,1.58,1.24,-2.13,-63.83
49719,760.31,753.94,748.61,755.42,754.57,155.27,-967.29,252.93,0.89,0.85,0.72,-66.86
49760,760.24,754.01,748.65,755.42,754.58,158.69,-981.45,261.23,-0.18,0.82,-0.92,-65.21
49799,760.29,753.97,748.63,755.42,754.58,161.62,-968.26,258.79,-1.23,1.51,-1.55,-65.98
49837,760.33,754.00,748.61,755.41,754.59,149.90,-965.82,258.79,0.66,3.74,2.56,-66.56
49875,760.24,753.98,748.64,755.32,754.55,164.06,-969.24,256.35,1.14,-0.89,1.87,-63.43
49914,760.24,754.01,748.60,755.36,754.55,159.67,-975.59,252.93,-0.21,0.86,-1.47,-65.97
49952,760.30,753.95,748.61,755.34,754.55,171.87,-974.61,258.79,0.36,0.51,1.93,-64.91
49993,760.23,753.99,748.60,755.40,754.56,148.44,-960.45,266.60,1.60,2.02,-2.98,-66.53
50032,760.18,753.92,748.60,755.31,754.50,178.22,-969.73,264.16,1.15,-0.63,-0.15,-64.27
50071,760.24,754.00,748.62,755.42,754.57,169.92,-972.17,257.81,-0.02,2.95,0.40,-66.22
50109,760.21,754.02,748.68,755.36,754.57,149.41,-957.03,262.70,-0.77,3.18,-1.72,-62.96
50148,760.24,753.91,748.72,755.34,754.55,158.69,-969.73,263.18,0.65,1.98,-0.03,-60.25
50186,760.24,753.98,748.63,755.36,754.55,163.09,-965.33,265.62,1.24,1.31,-0.36,-64.85
50227,760.24,753.94,748.66,755.34,754.54,168.95,-981.45,257.32,1.67,0.21,-0.21,-62.65
50266,760.27,754.00,748.62,755.35,754.56,162.60,-959.96,263.18,0.11,1.32,1.23,-64.91
50304,760.26,753.91,748.60,755.38,754.54,158.69,-961.43,255.86,1.71,0.84,1.21,-65.70
50342,760.30,753.97,748.60,755.37,754.56,155.76,-972.66,259.77,-0.48,1.91,1.14,-66.02
50381,760.29,753.98,748.66,755.40,754.58,157.71,-980.47,254.88,-0.60,0.96,0.66,-64.46
50419,760.33,753.94,748.63,755.38,754.57,167.97,-970.70,264.65,0.37,0.60,-1.19,-64.87
50465,760.16,754.01,748.61,755.33,754.53,146.00,-963.87,266.11,-1.66,0.49,0.02,-64.79
50504,760.21,753.94,748.65,755.39,754.55,154.30,-971.19,256.84,0.24,2.50,-1.82,-63.73
50543,760.21,753.92,748.58,755.35,754.52,165.53,-966.31,256.84,0.40,2.15,-1.37,-65.93
50581,760.27,754.01,748.58,755.38,754.56,162.60,-973.63,264.65,0.30,-1.79,0.95,-67.08
50619,760.23,754.00,748.60,755.36,754.55,163.09,-981.93,261.72,-2.50,1.95,-0.26,-65.98
50662,760.27,753.99,748.65,755.36,754.57,172.36,-969.24,252.93,0.03,2.13,0.18,-63.74
50701,760.26,754.02,748.59,755.35,754.56,158.69,-960.45,251.95,-1.15,1.88,0.21,-66.13
50739,760.14,753.96,748.62,755.36,754.52,153.81,-978.52,257.32,0.16,1.80,2.17,-64.72
50777,760.24,753.97,748.65,755.45,754.58,155.76,-960.45,261.23,-0.76,1.16,-0.95,-65.22
50816,760.24,754.07,748.62,755.37,754.58,153.81,-976.56,252.44,1.53,1.53,1.55,-65.41
50854,760.23,753.98,748.59,755.49,754.57,157.23,-959.47,259.28,0.69,1.21,0.13,-68.99
50895,760.25,754.01,748.61,755.37,754.56,153.32,-962.89,252.93,0.69,2.56,-0.96,-65.88
50933,760.21,753.99,748.59,755.40,754.55,166.02,-974.12,259.28,1.63,2.35,0.07,-66.94
50972,760.30,753.98,748.54,755.41,754.56,156.74,-962.89,255.37,2.07,0.47,1.44,-69.48
51010,760.27,754.03,748.57,755.43,754.58,162.11,-958.98,251.95,-1.06,0.69,2.05,-68.96
51048,760.26,754.10,748.63,755.43,754.61,163.57,-974.61,258.30,-0.91,5.19,0.32,-66.85
51087,760.24,754.03,748.64,755.40,754.58,165.04,-966.31,253.42,0.40,0.02,-1.01,-65.25
51128,760.23,754.05,748.65,755.33,754.56,156.25,-971.68,260.74,-0.06,1.69,0.61,-63.71
51166,760.19,754.04,748.68,755.34,754.56,160.64,-972.66,264.65,0.10,2.24,0.55,-62.51
51204,760.21,753.99,748.66,755.36,754.56,156.25,-978.52,254.39,1.11,2.37,-0.85,-63.55
51242,760.27,753.99,748.60,755.32,754.55,158.20,-972.66,265.14,-0.93,1.47,-0.27,-65.28
51280,760.25,753.95,748.62,755.34,754.54,166.99,-969.73,260.25,0.09,1.93,0.24,-64.56
51318,760.34,754.00,748.65,755.35,754.59,166.50,-968.75,257.32,-0.01,-0.16,-0.40,-64.04
51362,760.20,753.99,748.69,755.41,754.58,165.53,-956.54,268.55,-1.53,3.05,1.26,-63.19
51400,760.22,753.97,748.62,755.31,754.53,159.67,-979.00,263.18,-0.76,2.62,1.79,-63.93
51438,760.21,754.00,748.65,755.35,754.55,176.76,-967.77,258.30,0.65,3.43,0.08,-63.58
51477,760.24,753.95,748.65,755.39,754.56,176.76,-959.47,263.18,-0.72,0.84,0.58,-64.05
51515,760.24,753.98,748.60,755.34,754.54,157.71,-980.96,256.35,-1.42,2.50,0.18,-65.46
51553,760.29,754.02,748.62,755.37,754.58,159.18,-950.68,263.18,0.87,0.96,0.05,-65.77
51594,760.28,753.97,748.68,755.35,754.57,163.57,-967.29,263.18,0.50,1.31,0.82,-62.61
51633,760.33,754.00,748.66,755.38,754.59,165.04,-972.17,268.07,-0.74,1.31,0.09,-64.20
51671,760.25,754.00,748.68,755.43,754.59,166.02,-964.84,264.16,0.44,4.69,-1.47,-64.38
51709,760.26,754.00,748.65,755.35,754.56,154.79,-964.84,255.37,0.45,2.59,-1.33,-63.52
51748,760.27,754.00,748.65,755.38,754.58,156.25,-975.59,264.16,0.02,-1.92,-0.98,-64.30
51787,760.26,753.93,748.69,755.39,754.57,167.48,-978.52,252.93,1.33,1.64,-0.58,-62.41
51827,760.26,754.02,748.66,755.37,754.58,166.50,-968.75,252.44,0.85,2.02,0.07,-63.71
51866,760.31,753.99,748.67,755.40,754.59,159.18,-981.93,253.42,0.23,0.30,-0.73,-64.25
51905,760.33,753.99,748.60,755.40,754.58,152.83,-958.01,260.25,0.73,1.54,-1.11,-66.79
51943,760.34,753.99,748.60,755.42,754.59,167.97,-975.59,255.37,0.89,2.00,0.82,-67.35
51981,760.40,754.04,748.69,755.45,754.65,169.92,-963.38,251.46,0.69,1.63,-0.05,-64.66
52020,760.44,753.96,748.65,755.41,754.61,149.90,-967.29,255.37,0.89,-0.70,-0.44,-64.86
52061,760.32,754.06,748.57,755.45,754.60,168.95,-968.75,268.55,-2.29,-0.02,3.42,-69.34
52099,760.36,754.02,748.59,755.36,754.58,164.06,-970.70,259.28,0.60,2.47,-0.09,-66.71
52138,760.35,753.98,748.66,755.36,754.59,161.62,-965.33,261.72,-0.11,0.94,-0.27,-63.82
52177,760.41,754.04,748.58,755.38,754.60,155.76,-964.84,252.44,1.63,1.58,1.52,-67.66
52215,760.34,754.03,748.69,755.47,754.63,167.97,-974.61,254.39,-0.22,0.44,-0.24,-64.99
52253,760.41,754.02,748.63,755.42,754.62,165.04,-965.82,239.26,0.55,2.28,-1.50,-66.50
52298,760.38,754.06,748.59,755.40,754.61,157.71,-966.31,260.25,-0.86,-0.44,-0.61,-67.81
52337,760.39,754.10,748.63,755.46,754.65,151.37,-971.19,260.25,1.23,1.71,-0.87,-67.42
52375,760.39,753.97,748.61,755.42,754.60,147.46,-976.56,261.72,-0.11,-0.24,-1.94,-66.93
52414,760.41,754.01,748.66,755.37,754.61,158.20,-975.59,244.63,0.24,3.50,2.02,-64.11
52452,760.42,754.03,748.61,755.45,754.63,163.09,-971.19,245.61,-0.79,0.93,-0.31,-67.91
52493,760.42,754.07,748.66,755.46,754.65,171.39,-970.21,263.67,0.25,2.40,-1.44,-66.20
52548,760.40,754.09,748.63,755.44,754.64,162.60,-981.93,257.32,0.90,-0.23,0.88,-67.17
52587,760.34,754.00,748.57,755.45,754.59,156.25,-972.17,250.00,-1.32,0.93,0.90,-69.39
52625,760.35,754.04,748.59,755.41,754.60,155.76,-974.12,266.60,-1.14,0.85,0.97,-68.05
52664,760.41,753.98,748.64,755.44,754.62,167.48,-969.73,263.67,0.69,0.19,-1.64,-66.24
52702,760.40,754.03,748.66,755.41,754.63,154.79,-967.29,259.77,-0.82,0.47,-1.82,-65.24
52743,760.40,754.05,748.69,755.40,754.64,157.23,-971.19,258.30,1.55,3.63,-0.80,-63.77
52781,760.40,754.01,748.65,755.43,754.62,169.43,-954.10,247.07,-0.30,0.57,-2.05,-66.08
52819,760.40,754.05,748.66,755.42,754.63,148.93,-979.00,254.88,0.24,0.67,0.47,-65.23
52857,760.41,754.01,748.62,755.45,754.62,162.11,-967.29,271.00,0.03,0.71,-1.10,-67.66
52895,760.41,754.00,748.70,755.46,754.64,153.81,-967.77,249.51,-0.38,2.55,0.26,-64.34
52934,760.47,754.03,748.67,755.41,754.64,156.74,-979.49,261.23,-0.37,1.10,-0.54,-64.79
52974,760.39,754.02,748.63,755.54,754.65,159.67,-971.68,262.21,0.51,1.78,-2.05,-68.80
53012,760.46,754.08,748.71,755.52,754.69,164.55,-983.89,258.30,1.62,1.93,-0.40,-65.82
53050,760.40,754.04,748.65,755.50,754.65,153.32,-965.33,264.16,-0.17,-1.40,1.00,-67.30
53088,760.42,754.06,748.66,755.53,754.67,160.64,-967.77,255.86,3.12,1.03,2.62,-67.66
53126,760.46,754.01,748.62,755.47,754.64,161.13,-971.19,268.55,-0.31,1.19,3.28,-67.76
53165,760.38,754.04,748.68,755.44,754.64,157.23,-967.77,250.49,-0.77,1.31,0.37,-65.01
53205,760.38,754.06,748.70,755.42,754.64,165.53,-963.38,252.44,-2.85,3.99,-0.27,-63.98
53243,760.37,754.02,748.70,755.42,754.63,156.25,-977.05,258.79,1.18,-0.73,1.67,-63.65
53281,760.41,754.04,748.63,755.44,754.63,164.06,-977.54,250.49,-0.02,1.57,1.15,-66.98
53319,760.32,753.99,748.59,755.40,754.57,158.20,-974.12,255.37,0.68,0.43,-1.56,-67.43
53357,760.41,754.06,748.59,755.48,754.64,150.88,-973.63,251.95,1.33,-0.08,4.60,-69.65
53395,760.36,754.10,748.63,755.51,754.65,153.81,-958.01,254.88,-0.42,2.42,0.91,-68.38
53436,760.34,754.02,748.66,755.42,754.61,153.81,-964.84,253.42,-0.93,0.44,0.18,-65.07
53479,760.37,754.10,748.65,755.52,754.66,164.06,-968.26,266.11,0.40,2.89,2.56,-67.84
53518,760.30,754.11,748.63,755.45,754.62,166.02,-962.89,257.81,-1.08,0.37,-0.78,-67.32
53556,760.37,754.10,748.61,755.53,754.65,164.55,-974.12,259.77,-0.09,3.08,1.84,-69.65
53595,760.36,754.18,748.63,755.51,754.67,165.53,-970.21,264.65,-0.03,-0.79,0.95,-68.90
53635,760.41,754.14,748.61,755.51,754.67,177.25,-967.29,253.42,-1.24,2.40,2.50,-69.56
53676,760.41,754.05,748.56,755.45,754.62,173.34,-955.57,252.93,0.18,2.11,-1.21,-69.80
53715,760.37,753.99,748.63,755.50,754.62,158.20,-979.49,252.93,-0.11,4.06,-0.57,-67.86
53753,760.37,754.00,748.67,755.51,754.64,170.90,-977.05,257.32,-1.73,1.46,1.89,-66.47
53792,760.36,754.00,748.62,755.52,754.63,156.25,-966.80,251.95,0.84,0.55,-0.90,-68.57
53830,760.39,754.08,748.68,755.51,754.66,159.18,-967.29,256.35,0.73,1.44,0.08,-66.48
53869,760.37,754.05,748.62,755.48,754.63,153.32,-973.14,258.79,1.03,0.75,1.58,-68.26
53910,760.36,754.06,748.66,755.47,754.63,166.99,-967.29,246.09,1.58,0.16,-0.21,-66.40
53948,760.29,754.11,748.65,755.51,754.64,174.80,-978.03,258.30,1.02,-0.06,1.27,-67.35
53986,760.34,754.01,748.60,755.40,754.59,162.60,-964.84,262.21,0.12,2.18,-1.62,-66.98
54025,760.37,754.08,748.61,755.44,754.63,172.36,-963.38,247.56,0.37,3.11,-0.30,-67.64
54063,760.30,754.18,748.62,755.47,754.65,164.55,-958.50,247.56,1.00,1.63,0.13,-68.15
