currTime,s1,s2,s3,s4,s,AccX,AccY,AccZ,GyroX,GyroY,GyroZ,GRF
24,761.40,764.80,749.91,752.25,757.09,-74.22,-1005.37,177.73,-0.20,0.69,-0.35,-57.34
59,761.46,764.70,749.91,752.24,757.08,-70.31,-1000.00,183.59,-0.60,-0.79,-0.05,-55.96
94,761.54,764.71,749.88,752.19,757.08,-79.10,-992.68,175.29,0.18,1.19,-1.12,-57.13
128,761.45,764.74,749.92,752.26,757.09,-64.94,-997.07,171.39,-0.98,-0.13,-4.13,-56.30
163,761.47,764.76,749.88,752.22,757.08,-64.94,-1008.30,192.87,1.04,2.39,0.15,-57.46
198,761.50,764.78,749.83,752.15,757.07,-65.92,-996.09,191.89,0.79,-1.50,1.21,-58.75
233,761.51,764.67,749.89,752.27,757.09,-80.08,-991.21,191.89,0.05,-2.40,0.85,-55.65
269,761.53,764.65,749.91,752.22,757.08,-73.73,-999.51,180.18,1.40,-1.30,0.15,-55.66
304,761.57,764.60,749.89,752.21,757.07,-68.36,-998.05,184.08,1.58,-2.91,-2.08,-55.28
339,761.66,764.47,749.95,752.21,757.07,-72.75,-1003.91,196.78,-2.21,0.27,0.08,-51.93
374,761.68,764.51,749.87,752.27,757.08,-59.08,-992.68,188.96,-0.39,-1.60,0.46,-53.86
410,761.71,764.51,749.84,752.17,757.06,-75.68,-1014.16,185.55,0.88,-0.27,0.77,-55.02
445,761.74,764.43,749.85,752.19,757.05,-67.38,-994.63,190.92,-2.50,1.34,-1.05,-53.48
480,761.68,764.48,749.88,752.18,757.06,-69.34,-1010.74,187.50,1.39,0.82,0.27,-53.97
515,761.79,764.46,749.88,752.18,757.08,-64.94,-1003.91,189.94,-0.36,0.97,-2.04,-53.87
551,761.76,764.48,749.90,752.15,757.07,-69.82,-1011.23,193.85,-0.82,1.72,-0.06,-53.75
586,761.89,764.49,749.88,752.14,757.10,-76.66,-990.72,174.80,-0.69,1.37,-1.66,-54.95
621,761.80,764.45,749.91,752.13,757.07,-69.82,-1008.79,196.29,0.11,2.53,-2.04,-52.94
656,761.79,764.54,749.92,752.22,757.12,-70.80,-992.68,188.48,0.84,2.39,1.40,-54.71
692,761.85,764.58,749.89,752.22,757.13,-57.62,-1003.91,175.29,-1.73,-0.18,1.34,-55.64
727,761.75,764.46,749.81,752.24,757.07,-78.12,-997.07,186.52,-0.37,1.54,1.21,-54.29
762,761.76,764.62,749.89,752.20,757.12,-63.96,-1007.81,177.25,-1.56,-0.02,0.68,-56.12
797,761.82,764.62,749.91,752.30,757.16,-71.78,-1012.21,188.96,-1.23,-1.56,-0.86,-55.29
833,761.81,764.56,749.83,752.20,757.10,-55.66,-996.58,176.76,1.13,-2.08,-0.20,-55.98
868,761.86,764.52,749.96,752.26,757.15,-65.92,-998.54,172.85,-0.15,0.97,-0.14,-53.53
903,761.95,764.44,749.91,752.25,757.14,-58.11,-990.23,180.18,0.65,1.00,-0.50,-52.67
942,761.83,764.27,749.92,752.21,757.06,-72.27,-999.02,180.18,-1.50,-2.40,-0.71,-47.68
977,761.85,764.29,749.88,752.19,757.05,-63.48,-1000.49,185.06,1.00,1.33,2.82,-49.18
1012,761.93,764.23,749.91,752.21,757.07,-68.36,-1001.46,181.64,1.11,1.40,-1.74,-47.17
1048,761.98,764.13,749.91,752.19,757.05,-72.27,-995.61,196.78,1.15,-2.48,0.05,-44.80
1083,762.07,764.10,749.91,752.19,757.07,-52.73,-996.58,191.89,1.75,1.84,-0.02,-44.41
1119,761.96,764.11,749.94,752.22,757.06,-60.06,-1002.44,179.69,-0.67,0.18,0.50,-43.86
1154,761.83,764.16,749.90,752.22,757.03,-76.17,-994.63,176.27,1.39,-0.98,0.39,-45.30
1189,762.00,764.03,749.90,752.24,757.04,-65.92,-1002.44,192.38,2.40,-0.37,0.18,-43.52
1225,761.95,764.09,749.89,752.15,757.02,-67.87,-997.56,195.31,0.89,1.53,-0.85,-44.26
1260,762.00,764.16,749.90,752.22,757.07,-73.24,-996.09,185.55,2.09,-0.11,-0.27,-45.79
1296,762.16,764.21,749.93,752.30,757.15,-70.80,-987.30,190.43,0.13,-1.97,1.40,-47.07
1331,762.20,764.16,749.86,752.23,757.11,-80.57,-990.72,187.01,2.11,-0.34,1.27,-47.83
1367,762.25,764.22,749.94,752.21,757.15,-60.06,-999.51,193.36,-0.53,-0.52,-1.92,-47.06
1402,762.31,764.22,749.94,752.20,757.16,-71.78,-997.07,196.78,1.85,2.97,0.70,-47.24
1437,762.39,764.21,749.99,752.25,757.21,-72.75,-992.68,201.17,2.78,-0.45,-0.56,-46.07
1472,762.60,764.20,749.92,752.21,757.23,-62.99,-984.86,206.54,0.80,-2.33,-2.70,-47.98
1508,762.85,764.33,749.94,752.15,757.32,-70.80,-994.63,212.89,2.24,0.85,-0.49,-51.83
1543,763.13,764.35,749.99,752.12,757.40,-66.89,-1000.49,187.01,0.20,2.80,1.11,-52.08
1578,763.31,764.32,749.96,752.16,757.44,-81.05,-997.56,175.78,1.50,-0.75,0.52,-52.11
1613,763.36,764.21,749.94,752.13,757.41,-69.82,-996.09,203.61,1.88,-2.27,0.87,-49.92
1648,763.67,764.06,749.90,752.09,757.43,-75.68,-1007.32,196.29,5.05,-0.01,-1.02,-48.02
1686,764.01,763.67,749.92,752.02,757.41,-76.66,-999.02,198.24,6.38,-1.53,-0.88,-41.21
1721,763.90,763.38,749.89,752.09,757.31,-84.96,-1005.37,201.66,5.40,-2.24,-1.12,-37.70
1756,763.82,763.00,749.97,752.09,757.22,-87.89,-1000.49,207.03,8.54,-2.89,0.37,-26.52
1791,763.65,762.70,749.82,752.17,757.09,-80.57,-983.89,213.38,12.53,-4.36,1.35,-27.66
1826,763.71,762.39,749.99,752.25,757.08,-71.78,-988.28,223.14,14.49,-2.31,0.47,-18.90
1862,763.64,762.05,749.96,752.46,757.03,-76.17,-999.02,242.19,14.07,-4.82,0.16,-19.43
1897,763.56,761.67,750.01,752.52,756.94,-63.48,-981.45,252.93,15.67,-2.70,0.22,-16.75
1938,763.54,761.16,749.96,752.68,756.83,-103.52,-977.05,266.11,15.00,-5.18,-1.13,-16.38
1973,763.34,760.77,750.06,752.84,756.75,-49.32,-1005.86,270.51,11.96,-5.32,-2.99,-14.34
2008,763.12,760.30,750.04,753.01,756.62,-62.01,-989.26,288.09,11.15,-2.02,0.45,-14.67
2044,763.08,759.95,750.10,753.31,756.61,-50.78,-993.16,288.09,11.43,-5.19,-0.75,-15.66
2079,763.10,759.58,750.06,753.40,756.53,-69.82,-988.77,291.99,15.11,-5.32,1.53,-16.64
2114,763.02,759.16,750.09,753.57,756.46,-56.15,-998.05,301.76,15.44,-3.58,-1.63,-16.92
2150,763.04,758.83,750.12,753.72,756.43,-74.22,-987.79,302.25,17.27,-4.19,-2.78,-17.23
2185,762.84,758.54,750.14,753.71,756.31,-55.66,-984.86,299.32,25.89,-2.72,-2.40,-15.77
2221,762.80,758.56,750.26,753.92,756.39,-62.99,-948.24,363.77,25.42,-2.50,-0.65,-15.75
2256,762.84,758.41,750.23,753.90,756.35,-60.06,-951.17,375.98,18.76,-2.21,0.69,-15.75
2291,762.81,758.34,750.21,753.94,756.33,-62.01,-931.15,400.39,17.69,-0.35,-1.25,-16.34
2327,762.84,758.25,750.22,753.93,756.31,-44.92,-916.50,398.93,10.02,-4.47,-1.52,-15.78
2362,762.74,758.15,750.26,754.12,756.32,-81.05,-945.80,378.42,8.99,-0.40,-0.88,-16.97
2397,762.98,758.13,750.27,754.22,756.40,-75.20,-896.48,400.39,7.46,-2.95,-0.62,-17.95
2433,763.13,758.13,750.30,754.16,756.43,-69.82,-923.34,400.88,2.31,-1.58,-1.79,-16.88
2468,763.28,758.15,750.31,754.27,756.50,-53.22,-916.02,395.51,0.15,0.85,1.49,-18.10
2503,763.27,758.13,750.28,754.42,756.52,-53.22,-920.90,407.71,-2.24,1.44,1.61,-20.42
2539,763.30,758.20,750.28,754.67,756.61,-64.94,-935.55,393.07,-2.22,0.29,0.44,-24.57
2574,763.46,758.38,750.35,754.87,756.77,-71.78,-932.62,395.02,-4.51,-0.56,-3.63,-27.03
2610,763.50,758.47,750.32,755.03,756.83,-65.92,-949.22,373.54,-9.15,-0.85,-2.60,-29.66
2645,763.64,758.51,750.40,755.18,756.93,-73.73,-931.15,383.30,-8.10,0.54,-2.06,-30.20
2680,763.71,758.57,750.35,755.34,756.99,-73.24,-935.06,399.90,-8.85,-0.16,-1.73,-33.18
2716,763.67,758.66,750.40,755.53,757.06,-64.45,-958.98,368.65,-10.14,2.08,1.12,-34.65
2751,763.95,758.76,750.45,755.67,757.21,-64.45,-946.29,384.28,-11.43,2.59,-1.21,-35.86
2786,764.17,758.82,750.44,755.71,757.29,-72.75,-930.18,369.63,-11.21,1.70,-1.25,-37.24
2821,764.52,759.01,750.48,755.64,757.41,-48.83,-986.33,364.26,-14.09,-1.82,-0.25,-36.24
2857,764.84,759.11,750.46,755.58,757.50,-116.70,-966.31,348.14,-6.16,3.98,3.29,-36.46
2893,764.96,759.25,750.39,755.45,757.51,-62.50,-976.56,344.73,-2.56,0.95,-0.75,-36.96
2931,765.07,759.20,750.41,755.34,757.50,-70.31,-966.31,349.12,-0.66,1.50,-0.31,-35.31
2966,765.10,759.20,750.43,755.30,757.50,-77.64,-958.98,356.93,-0.54,-0.92,-1.90,-34.49
3002,765.25,759.33,750.46,755.34,757.59,-47.36,-981.45,354.00,-1.81,1.54,-0.37,-34.94
3037,765.20,759.34,750.51,755.26,757.58,-44.92,-956.54,349.12,-1.21,0.02,0.27,-33.00
3075,765.35,759.42,750.39,755.26,757.61,-74.71,-946.29,341.80,-0.66,1.02,-1.82,-35.59
3110,765.39,759.52,750.49,755.23,757.66,-46.39,-953.61,337.40,0.06,-0.36,2.12,-33.64
3146,765.51,759.59,750.46,755.23,757.70,-83.50,-961.91,343.26,1.43,0.65,2.27,-34.50
3181,765.80,759.65,750.50,755.34,757.82,-81.05,-934.57,351.56,0.96,2.53,-2.64,-35.46
3216,765.89,759.78,750.47,755.38,757.88,-56.15,-955.08,350.10,-1.15,-1.87,-3.06,-37.53
3252,765.50,759.92,750.60,755.50,757.88,-28.32,-980.96,349.12,1.27,-0.80,7.28,-36.35
3287,765.86,760.15,750.57,755.66,758.06,-119.14,-983.89,329.59,1.56,-3.19,1.27,-41.13
3322,765.80,760.36,750.65,755.75,758.14,-81.54,-957.03,370.61,0.42,2.11,1.50,-41.47
3360,765.97,760.65,750.63,755.95,758.30,-65.43,-960.45,344.24,-2.44,-2.34,-3.33,-47.97
3395,766.04,760.90,750.67,756.11,758.43,-58.59,-957.52,334.96,-1.83,-0.80,-1.91,-52.00
3430,766.06,761.09,750.71,756.28,758.54,-57.13,-961.43,353.03,-2.13,-1.44,-0.69,-55.65
3465,765.85,761.32,750.71,756.32,758.55,-63.96,-910.16,369.14,-4.92,-3.88,-1.11,-57.05
3500,765.92,761.39,750.61,756.47,758.60,-49.32,-961.43,349.61,-0.68,-2.79,-2.19,-65.70
3535,765.89,761.47,750.71,756.51,758.65,-77.15,-944.34,351.56,-0.28,-0.02,-1.76,-62.96
3571,765.97,761.53,750.76,756.46,758.68,-62.01,-962.89,353.03,-0.68,0.73,-0.44,-59.67
3606,766.04,761.53,750.74,756.41,758.68,-62.50,-965.82,335.94,-1.37,0.82,1.02,-59.72
3641,766.17,761.47,750.73,756.34,758.68,-68.36,-940.43,347.66,0.85,0.24,-1.21,-58.73
3677,766.30,761.45,750.70,756.40,758.71,-64.94,-953.12,344.24,0.17,0.73,-0.20,-62.05
3712,766.45,761.42,750.75,756.46,758.77,-58.59,-960.45,351.07,0.99,-1.88,-1.23,-61.98
3747,766.62,761.55,750.72,756.42,758.82,-69.34,-951.66,354.98,0.39,-0.58,0.56,-63.23
3783,766.87,761.62,750.78,756.45,758.93,-59.57,-950.68,333.98,-0.12,-1.61,-0.58,-62.74
3819,767.09,761.72,750.71,756.56,759.02,-55.18,-961.91,346.19,1.53,-0.18,-2.17,-70.12
3854,767.22,761.85,750.78,756.60,759.12,-63.96,-970.21,359.86,0.22,0.77,-1.76,-69.18
3889,767.44,761.88,750.83,756.64,759.20,-59.57,-954.59,350.10,1.47,-0.92,-1.64,-69.25
3931,767.57,762.08,750.85,756.69,759.30,-53.22,-957.03,349.12,0.61,-0.76,-1.18,-70.12
3967,767.66,762.17,750.82,756.77,759.35,-52.25,-958.01,344.73,-0.66,1.32,0.95,-73.37
4002,767.68,762.23,750.77,756.77,759.36,-65.43,-970.70,354.98,-1.89,2.24,0.21,-74.87
4037,767.65,762.31,750.76,756.83,759.39,-57.13,-957.03,360.35,-0.64,0.47,-0.03,-76.30
4073,767.62,762.40,750.73,756.90,759.41,-72.27,-962.40,347.17,-1.12,1.00,-2.72,-78.45
4108,767.65,762.52,750.86,756.95,759.50,-58.59,-955.08,354.49,-0.98,1.70,-0.56,-75.94
4143,767.58,762.61,750.85,757.00,759.51,-64.94,-968.75,365.23,-0.69,0.05,0.33,-77.20
4179,767.59,762.79,750.89,757.10,759.59,-61.04,-962.40,346.19,0.43,1.12,-1.67,-78.23
4214,767.41,762.90,750.89,757.13,759.58,-62.99,-958.01,343.75,-0.60,-1.21,-0.89,-78.49
4250,767.36,762.98,750.85,757.19,759.60,-59.57,-958.98,353.03,-3.18,1.40,-1.72,-80.78
4285,767.15,763.02,750.90,757.22,759.57,-65.43,-956.54,354.98,-2.39,0.89,0.82,-79.39
4320,767.10,763.02,750.93,757.24,759.57,-75.20,-954.10,346.19,-0.63,3.35,0.42,-78.55
4356,767.10,762.90,750.93,757.19,759.53,-62.99,-962.40,347.66,-0.35,2.03,0.36,-77.60
4391,767.11,762.93,750.86,757.26,759.54,-59.08,-960.94,357.42,-0.76,-1.47,0.03,-80.63
4426,767.05,763.05,750.93,757.21,759.56,-77.15,-959.96,345.21,-1.48,-2.76,0.44,-78.04
4461,766.91,763.03,750.95,757.34,759.56,-70.80,-959.47,349.12,-2.07,-1.43,-0.96,-79.01
4497,766.85,763.03,751.02,757.35,759.56,-62.99,-951.17,357.42,-0.21,-0.50,-0.27,-76.66
4532,766.82,763.13,750.99,757.33,759.57,-64.94,-947.27,350.59,0.58,-0.05,0.83,-77.62
4568,766.77,763.10,750.92,757.35,759.54,-66.41,-945.31,343.26,0.83,-0.98,-0.25,-79.99
4603,766.66,763.11,750.99,757.32,759.52,-76.66,-957.52,340.33,0.37,-2.49,-0.64,-76.88
4639,766.49,763.09,750.91,757.29,759.45,-69.34,-947.75,358.89,-1.17,2.92,-3.21,-78.57
4674,766.42,763.25,750.92,757.26,759.46,-57.62,-952.15,348.14,-2.02,3.23,-0.34,-77.80
4709,766.43,763.24,750.96,757.31,759.48,-60.55,-975.59,354.00,-0.60,-0.57,-2.34,-77.41
4745,766.37,763.38,750.95,757.33,759.51,-53.22,-961.91,346.68,-1.94,-0.14,-0.34,-78.24
4780,766.23,763.51,751.02,757.27,759.51,-73.73,-966.80,353.03,-0.79,-0.95,-0.03,-74.70
4816,766.02,763.60,750.98,757.28,759.47,-67.38,-960.94,339.36,-2.03,1.69,-0.18,-75.73
4850,765.69,763.63,750.98,757.33,759.41,-64.45,-964.36,341.31,-3.77,1.63,-1.40,-75.67
4885,765.44,763.83,750.97,757.35,759.40,-64.94,-955.08,351.56,-1.18,-0.39,-0.08,-75.81
4923,765.26,764.07,750.99,757.45,759.44,-53.22,-957.52,351.07,0.08,1.15,-2.35,-76.26
4959,765.06,764.41,751.02,757.46,759.48,-44.92,-957.52,337.40,-1.34,1.89,-2.47,-75.48
4993,764.89,764.78,751.06,757.64,759.59,-69.82,-955.08,348.63,-3.60,1.76,1.40,-76.14
5031,764.43,765.43,751.08,757.82,759.69,-60.55,-965.82,349.12,-0.47,2.46,-1.50,-76.87
5066,764.14,765.88,751.14,757.99,759.79,-63.48,-960.45,329.59,-2.81,-0.53,-0.13,-77.48
5101,763.76,766.38,751.16,757.99,759.82,-59.08,-977.54,342.77,-2.93,1.08,0.21,-77.52
5136,763.49,766.68,751.20,757.96,759.83,-61.04,-957.52,340.82,-3.08,2.47,-1.48,-76.45
5171,763.36,766.99,751.08,757.94,759.84,-55.66,-973.63,343.26,-2.98,3.78,-0.31,-81.09
5206,763.38,767.43,751.18,757.92,759.98,-61.52,-969.24,329.10,-3.59,3.74,-2.10,-80.89
5242,763.37,767.65,751.14,757.90,760.01,-53.71,-958.01,333.01,-3.64,1.11,-1.11,-84.28
5277,763.28,767.94,751.13,757.79,760.03,-58.59,-966.80,339.84,-3.24,5.19,0.96,-86.36
5313,763.26,768.16,751.19,757.75,760.09,-53.22,-968.26,335.94,-0.08,1.91,-2.52,-86.41
5348,763.52,768.43,751.09,757.75,760.20,-62.50,-962.89,341.31,-2.01,2.71,0.91,-95.98
5383,763.84,769.08,751.13,757.82,760.47,-52.73,-960.45,331.54,1.86,0.58,-1.49,-112.16
5418,764.37,769.85,751.31,757.96,760.87,-61.04,-972.17,342.29,-0.78,1.79,-0.41,-136.17
5454,764.95,770.65,751.16,758.05,761.20,-50.78,-973.63,317.38,0.83,1.56,-0.56,-166.32
5489,765.83,771.33,751.28,757.97,761.60,-54.20,-972.17,331.54,0.88,-1.60,-0.02,-237.58
5525,766.98,771.85,751.25,757.75,761.96,-51.27,-978.52,325.68,-2.75,0.44,-0.02,-293.77
5560,767.82,771.58,751.17,757.24,761.95,-60.55,-963.38,316.89,-3.08,2.87,-0.45,-285.53
5596,767.71,770.63,750.98,756.36,761.42,-56.15,-977.05,317.38,-5.88,-1.07,1.75,-217.75
5631,767.02,768.31,750.65,754.71,760.17,-62.01,-989.75,315.43,-15.34,-2.89,4.31,-121.68
5666,764.94,763.98,750.17,752.84,757.98,-85.94,-997.07,311.52,-23.52,-1.18,6.94,-43.99
5702,761.77,759.70,749.91,751.67,755.76,-71.78,-1018.55,271.48,-23.63,-4.12,9.42,-3.87
5737,757.53,757.24,749.75,751.26,753.94,50.29,-1324.71,271.48,-10.66,25.43,-7.36,3.21
5772,755.64,756.77,749.75,751.27,753.36,-210.94,-970.70,131.84,28.74,77.79,14.36,4.46
5808,755.39,756.40,749.77,751.25,753.20,-271.48,-1045.90,220.21,11.63,102.55,-14.62,4.71
5843,755.30,756.29,749.77,751.27,753.16,-433.11,-1054.69,328.61,19.50,118.53,-22.78,4.94
5879,755.22,756.27,749.81,751.30,753.15,-555.66,-984.37,331.54,23.57,109.92,-20.37,4.51
5920,755.24,756.17,749.72,751.29,753.10,-663.57,-812.01,296.87,11.50,88.89,-13.40,5.81
5955,755.12,756.14,749.68,751.39,753.09,-726.07,-844.73,309.08,-4.14,71.20,3.85,6.23
5990,755.07,756.03,749.68,751.43,753.05,-707.03,-759.28,319.82,-31.02,48.26,15.67,6.53
6026,754.89,755.94,749.73,751.55,753.03,-659.18,-847.17,395.51,-32.79,43.03,40.09,6.54
6061,754.74,755.92,749.74,751.63,753.01,-567.87,-841.80,371.58,-16.18,53.58,51.95,6.66
6097,754.49,755.88,749.72,751.77,752.97,-462.89,-856.45,343.75,1.57,64.21,47.40,7.11
6132,754.14,755.79,749.82,751.82,752.89,-338.87,-833.50,306.64,14.81,76.73,32.73,6.69
6170,753.87,755.68,749.72,751.78,752.76,-208.98,-923.34,298.34,6.08,83.37,4.44,7.83
6205,753.79,755.63,749.65,751.69,752.69,-5.37,-910.64,364.75,-10.82,89.68,-7.18,8.21
6241,753.77,755.70,749.66,751.72,752.71,201.66,-970.70,432.62,15.88,96.44,32.29,8.06
6276,753.57,755.85,749.65,751.67,752.68,200.20,-925.29,456.54,23.63,102.00,42.61,7.99
6312,753.67,755.86,749.65,751.42,752.65,316.89,-804.20,407.71,29.45,64.99,5.28,7.64
6347,756.99,755.34,749.63,750.97,753.23,1654.30,-703.12,147.95,-0.02,11.65,-222.24,7.27
6382,770.54,755.14,749.72,750.98,756.60,-191.89,-1479.49,6.35,-27.76,-66.54,-129.35,4.19
6417,785.56,756.22,749.76,751.35,760.72,68.36,-1968.26,313.48,-15.51,-15.87,-129.89,-16.49
6453,792.94,757.19,749.79,751.67,762.90,-49.32,-1006.35,276.37,31.05,-22.96,-64.49,-35.94
6488,802.61,759.45,749.88,753.07,766.25,-10.74,-1130.37,237.79,18.32,-17.38,-51.88,-111.68
6523,818.06,763.43,750.28,755.50,771.82,-152.83,-1005.37,204.59,8.40,-13.11,-12.53,-307.35
6559,833.59,767.68,750.65,757.42,777.33,-79.59,-987.79,267.58,7.98,-0.66,-5.78,-421.15
6594,843.37,771.30,750.82,758.38,780.97,-65.43,-975.59,281.25,-4.15,1.48,-1.79,-579.64
6629,847.50,774.62,750.96,758.14,782.80,-50.29,-972.17,312.01,-10.19,7.01,0.74,-637.79
6665,847.05,778.23,750.87,757.19,783.34,-49.32,-967.29,268.55,-27.72,7.08,0.62,-629.13
6702,842.41,781.86,750.70,755.64,782.65,-73.73,-980.47,225.59,-36.53,12.65,1.51,-599.69
6737,835.41,784.59,750.60,754.79,781.35,-57.62,-1001.46,197.27,-39.43,11.82,-2.17,-582.27
6772,826.85,787.10,750.42,754.29,779.67,-76.66,-999.51,163.57,-39.64,9.27,-3.22,-578.27
6807,817.78,790.24,750.43,754.12,778.14,-98.63,-1006.35,167.97,-37.87,16.03,-3.14,-594.23
6842,807.78,795.98,750.46,754.28,777.13,-94.73,-1025.88,91.31,-27.85,8.02,-8.35,-665.77
6881,797.23,807.59,750.81,755.49,777.78,-75.68,-1040.53,82.03,-8.39,5.72,-11.95,-791.37
6916,788.44,821.08,751.42,758.27,779.80,-84.96,-1013.18,118.16,-4.02,7.87,-12.04,-913.98
6951,779.69,833.23,752.05,761.41,781.59,-44.43,-993.65,147.95,-5.84,9.22,-10.06,-1025.67
6987,772.22,841.53,752.85,764.54,782.78,-44.92,-1030.76,106.93,2.29,11.27,-8.50,-1091.51
7022,766.61,847.31,753.66,767.84,783.86,-39.55,-1014.65,121.09,4.95,13.76,-9.56,-1132.76
7057,762.46,851.30,754.47,770.57,784.70,-34.67,-997.56,174.32,-1.92,10.82,-10.42,-1155.21
7093,759.17,853.08,754.95,772.92,785.03,-10.74,-1010.74,121.09,-1.14,9.10,-9.38,-1164.10
7128,757.17,854.52,755.69,775.92,785.83,-48.83,-1030.27,106.45,3.76,4.60,-10.60,-1163.96
7164,755.91,855.57,756.60,779.15,786.81,-33.69,-996.09,155.27,2.56,2.01,-6.31,-1163.94
7199,754.81,856.80,757.25,781.68,787.63,-20.51,-992.68,178.71,1.42,3.29,-7.97,-1172.48
7235,753.75,858.58,757.81,783.89,788.51,-19.53,-989.75,152.83,-7.79,-2.84,-9.50,-1186.51
7270,752.74,861.09,758.17,785.88,789.47,-39.55,-1040.04,104.98,-13.15,-7.24,-16.08,-1212.91
7305,751.88,862.30,758.74,788.00,790.23,-6.35,-1033.20,137.21,-13.21,-7.56,-23.95,-1222.44
7341,751.42,861.51,759.37,790.05,790.59,-26.37,-1044.92,89.36,-5.53,-12.73,-29.89,-1219.96
7376,751.03,857.37,759.51,789.56,789.37,58.11,-994.14,264.16,-2.16,-11.59,-42.98,-1184.83
7412,750.79,846.11,757.90,783.26,784.52,42.97,-1060.06,127.93,-21.71,-4.86,-51.26,-1056.15
7447,750.58,829.34,756.82,775.79,778.13,11.72,-1160.16,78.61,-19.39,-1.92,-71.37,-882.52
7482,750.39,807.97,755.48,766.77,770.15,26.37,-1165.53,209.96,-22.50,-16.98,-116.32,-709.26
7518,750.25,784.48,752.97,759.22,761.73,-455.57,-1981.93,440.43,-41.78,-24.30,-144.00,-471.85
7553,750.20,769.04,750.69,754.54,756.12,406.25,-1032.23,31.25,-20.97,-14.19,-147.45,-66.44
7589,750.55,762.38,750.03,752.70,753.91,-112.79,-1223.14,62.01,8.07,21.80,-47.60,-16.43
7624,750.44,760.86,749.87,752.23,753.35,-88.87,-729.00,286.13,56.89,133.45,17.83,-7.83
7659,750.49,760.00,749.83,752.06,753.09,-197.27,-740.23,245.61,94.04,188.42,25.98,-3.58
7695,750.59,759.69,749.81,752.07,753.04,-447.75,-706.05,226.07,79.13,165.50,10.66,-2.91
7730,750.63,759.50,749.83,752.06,753.01,-606.45,-723.63,310.55,24.44,118.01,36.88,-1.78
7765,750.50,759.36,749.87,752.14,752.97,-560.06,-829.10,429.20,-6.67,74.92,66.34,-1.41
7801,750.47,759.39,749.82,752.15,752.96,-534.67,-1046.39,500.00,-3.00,60.84,85.87,-2.25
7837,750.54,759.26,749.76,752.22,752.94,-517.58,-995.12,417.48,10.81,52.85,110.11,-3.41
7872,750.50,759.12,749.80,752.29,752.93,-393.55,-1123.05,436.52,-7.14,44.67,122.31,-2.99
7913,750.41,759.03,749.76,752.39,752.90,-152.34,-1206.54,460.45,-8.65,57.36,137.87,-4.11
7948,750.34,758.90,749.79,752.37,752.85,-52.25,-1170.90,415.53,-9.05,66.98,112.69,-3.05
7984,750.26,758.64,749.81,752.16,752.72,44.43,-1184.57,381.84,-24.68,52.77,87.11,-0.01
8019,750.25,758.53,749.74,752.06,752.65,254.39,-1266.11,352.54,-33.76,41.91,103.29,0.40
8054,750.10,758.38,749.78,752.02,752.57,406.74,-1125.49,246.09,-44.90,36.60,88.63,1.96
8090,750.22,758.12,749.70,751.92,752.49,491.70,-1175.29,296.39,-23.82,32.15,75.31,2.74
8125,750.19,757.84,749.63,751.71,752.34,413.09,-1066.89,349.61,-5.02,29.50,84.16,4.66
8160,750.21,757.54,749.68,751.46,752.22,332.52,-991.21,347.17,5.92,1.93,54.25,5.99
8195,750.23,757.33,749.64,751.29,752.12,231.45,-906.25,316.41,9.34,-37.66,18.66,6.71
8230,750.31,757.20,749.66,750.72,751.97,125.49,-914.06,275.88,-2.77,-60.41,-0.38,4.19
8265,756.24,756.08,749.64,750.35,753.08,-820.80,-1509.28,536.62,-13.24,-48.51,-100.19,3.10
8300,772.12,755.54,749.71,750.61,756.99,-255.37,-719.24,593.75,-36.29,-68.32,-142.63,2.50
8338,800.75,757.02,749.67,751.16,764.65,70.31,-1554.20,178.71,-5.79,84.78,-179.88,-50.78
8373,817.54,759.70,749.80,751.90,769.74,166.99,-1366.70,359.86,78.69,-9.46,-111.09,-216.17
8408,822.72,764.11,749.79,753.85,772.62,42.48,-1366.21,91.31,46.88,-36.47,-43.92,-331.59
8443,829.51,768.58,750.06,757.41,776.39,-113.77,-1058.59,251.46,37.40,-14.28,-10.06,-414.24
8479,835.26,772.33,750.56,760.41,779.64,-61.04,-924.80,390.62,21.78,-11.24,-6.39,-514.84
8514,835.43,777.54,751.08,762.43,781.62,-62.01,-943.36,356.93,-0.98,3.56,-8.08,-566.21
8549,832.61,784.32,751.62,764.71,783.31,-63.48,-969.24,314.94,-9.16,4.52,-8.98,-645.81
8584,827.93,790.21,752.10,766.61,784.21,-60.55,-983.89,305.66,-6.06,5.16,-4.61,-684.52
8620,822.91,794.18,752.49,767.86,784.36,-53.71,-966.31,332.52,-3.05,3.15,-3.83,-715.44
8655,817.83,796.74,752.88,769.13,784.15,-50.78,-979.00,301.27,-3.65,2.57,-2.11,-735.09
8690,813.41,798.46,753.27,770.56,783.92,-61.04,-972.17,304.20,-2.07,3.31,-1.50,-749.48
8726,810.70,799.04,753.76,772.49,784.00,-40.04,-971.68,316.89,6.04,0.82,-3.49,-751.41
8761,809.70,799.98,754.62,775.94,785.06,-53.22,-972.66,305.18,8.40,0.68,-1.95,-788.31
8797,807.92,800.61,755.74,780.17,786.11,-54.20,-962.40,323.24,17.47,-1.66,-0.20,-864.27
8832,806.86,800.57,756.84,784.63,787.23,-59.57,-946.29,356.45,15.77,0.99,-3.24,-1064.02
8871,805.77,800.21,757.86,788.79,788.16,-45.41,-968.75,352.54,12.96,1.48,-4.17,-1244.62
8907,803.24,800.73,758.63,791.93,788.63,-66.41,-942.38,357.91,6.85,1.89,-1.82,-1386.30
8942,798.60,801.76,759.40,795.21,788.74,-62.50,-965.33,329.10,1.50,3.24,-3.07,-1492.22
8977,792.21,803.28,760.22,798.64,788.59,-53.71,-953.12,332.52,1.17,-1.06,-4.01,-1589.28
9013,785.75,805.53,761.40,802.69,788.84,-55.66,-966.80,347.66,0.56,2.44,-5.13,-1746.57
9048,778.91,808.32,762.92,807.43,789.40,-42.48,-961.91,339.36,-1.79,1.83,-8.55,-1895.14
9083,771.28,811.11,764.56,812.09,789.76,-59.08,-972.66,354.98,-3.30,-2.02,-8.66,-2038.13
9119,763.46,812.21,766.16,816.10,789.48,-29.79,-997.56,344.24,-0.62,-0.39,-14.43,-2089.92
9154,756.91,810.48,767.43,818.28,788.28,-63.48,-965.33,369.63,7.14,-7.04,-18.33,-2035.94
9190,753.85,804.64,768.40,817.81,786.17,-97.66,-1078.13,451.17,4.84,-16.81,-31.63,-1832.91
9227,752.33,794.30,768.57,814.43,782.41,-83.01,-1130.37,416.02,0.38,-28.22,-80.58,-1445.02
9262,751.30,782.24,767.26,808.61,777.35,-187.99,-1291.50,370.61,-2.46,-34.69,-106.40,-1017.15
9298,750.73,771.06,763.58,797.43,770.70,-74.22,-1397.95,272.95,29.52,-44.66,-165.56,-625.30
9333,750.33,763.45,758.64,779.96,763.09,84.47,-1497.07,156.74,60.97,-38.63,-218.23,-419.25
9368,750.25,759.37,753.67,764.06,756.84,293.95,-2000.00,238.28,155.31,-37.37,-217.30,-71.52
9404,750.73,757.04,750.05,756.62,753.61,293.46,-739.26,366.70,77.98,11.01,-188.57,-36.53
9439,751.05,756.32,749.80,755.45,753.16,-443.36,-967.29,-11.72,-44.65,54.79,-29.96,-26.43
9475,750.87,755.87,749.76,754.67,752.79,-621.09,-773.44,21.48,-82.05,-14.08,61.53,-18.67
9510,750.80,755.64,749.81,754.33,752.64,-485.84,-449.22,295.41,-97.88,-5.84,104.73,-13.19
9545,750.69,755.74,749.77,754.27,752.62,-354.00,-554.20,648.44,-114.06,43.25,111.82,-13.65
9581,750.61,755.85,749.81,754.38,752.66,-164.06,-754.39,775.88,-49.91,98.62,117.68,-14.45
9616,750.56,756.01,749.69,754.42,752.67,-190.43,-858.89,712.89,-24.79,172.98,123.25,-17.68
9652,750.44,756.09,749.74,754.44,752.68,-237.79,-977.05,762.70,-25.72,149.93,115.27,-17.18
9687,750.40,756.11,749.74,754.66,752.73,-122.07,-1165.04,853.03,-52.85,117.10,130.30,-19.46
9722,750.32,756.19,749.77,755.09,752.84,142.58,-1313.48,927.73,-33.79,98.48,115.55,-23.57
9758,750.34,756.08,749.72,754.88,752.76,354.00,-1163.09,958.01,-16.31,116.85,66.15,-22.34
9793,750.25,755.71,749.70,754.61,752.57,268.55,-1122.07,732.42,-26.76,149.20,67.50,-18.34
9828,750.30,755.54,749.66,754.17,752.42,304.69,-1043.95,664.06,-43.05,161.96,75.04,-13.66
9863,750.27,755.23,749.67,753.80,752.24,249.02,-1006.35,669.43,-49.11,156.23,71.28,-8.41
9904,750.27,755.22,749.67,753.58,752.18,422.36,-885.25,745.61,-8.77,139.98,65.45,-5.82
9941,750.18,755.08,749.62,753.23,752.03,675.78,-835.94,700.68,4.51,126.91,16.39,-2.36
9977,752.00,754.82,749.63,752.48,752.23,-93.26,478.52,774.41,223.17,-119.95,-250.14,4.76
10013,764.91,754.52,749.70,752.56,755.42,-342.29,-880.37,-368.16,-34.06,-98.73,-113.67,-0.71
10048,792.24,755.97,749.78,753.52,762.88,81.05,-1662.60,103.52,-34.23,-22.60,-138.87,-73.13
10083,814.60,758.13,749.77,754.49,769.25,-80.08,-1298.83,173.34,64.63,-45.30,-88.48,-169.29
10118,824.01,760.50,749.77,756.80,772.77,32.71,-924.80,645.02,0.53,-12.31,-14.76,-286.73
10153,828.93,762.70,750.35,759.04,775.25,-47.85,-961.91,358.40,2.41,-0.56,-10.79,-346.24
10189,835.71,766.84,751.16,762.54,779.06,-111.82,-988.77,187.99,-4.54,2.56,-9.69,-465.98
10224,844.59,770.91,751.82,765.96,783.32,-68.36,-997.56,233.40,0.23,5.30,-7.70,-617.58
10260,850.62,774.12,752.14,768.39,786.32,-98.63,-1005.37,221.19,6.27,7.69,-2.42,-682.90
10295,850.78,777.62,752.51,769.22,787.53,-107.42,-1006.35,219.24,15.65,13.44,-6.50,-720.27
10331,847.74,781.34,752.60,768.31,787.50,-95.21,-989.26,249.02,18.98,14.89,-9.10,-717.25
10366,842.71,785.00,752.53,767.18,786.85,-95.21,-971.68,239.75,4.44,14.77,-9.07,-698.26
10402,837.16,789.10,752.61,766.52,786.35,-71.29,-975.59,240.72,-2.61,15.28,-10.21,-699.84
10437,833.50,794.73,752.65,766.42,786.82,-78.12,-995.12,245.12,-3.44,13.43,-7.50,-721.83
10472,830.04,801.41,752.68,766.41,787.64,-87.89,-979.98,242.19,-5.37,13.47,-10.35,-771.44
10508,823.66,808.62,752.83,766.57,787.92,-105.47,-943.85,251.95,-10.65,14.43,-11.33,-846.67
10543,815.61,814.88,752.94,766.74,787.54,-70.80,-999.02,227.05,-10.70,7.41,-16.02,-909.51
10579,807.22,821.13,752.98,766.41,786.94,-76.17,-993.65,216.31,-14.85,13.10,-8.72,-957.73
10614,799.39,826.92,752.95,766.43,786.42,-62.50,-1008.79,193.36,-15.76,12.47,-7.67,-1001.23
10650,795.50,830.69,753.24,768.73,787.04,-83.50,-1027.83,157.23,5.34,9.85,-4.53,-1041.51
10685,793.66,833.13,753.54,771.08,787.85,-58.11,-987.30,235.84,9.11,8.27,-6.14,-1072.67
10721,789.88,835.14,753.84,772.68,787.89,-56.64,-989.75,209.47,0.12,6.58,-5.72,-1087.29
10756,787.20,836.29,753.92,773.31,787.68,-44.43,-981.93,218.26,1.95,4.81,-5.21,-1095.22
10791,785.27,837.94,754.10,775.22,788.13,-69.34,-1009.77,170.41,2.58,6.85,-6.17,-1121.34
10827,783.87,838.96,754.47,777.60,788.72,-39.06,-979.98,219.24,12.28,3.27,-6.60,-1135.93
10866,782.09,840.47,755.03,780.53,789.53,-44.92,-993.16,233.89,5.35,4.87,-3.88,-1165.60
10902,777.85,842.79,755.70,783.88,790.05,-52.73,-1024.90,206.54,-1.21,3.69,-4.94,-1202.11
10937,772.89,845.05,756.46,787.57,790.49,-30.76,-986.33,232.91,-2.72,7.73,-6.50,-1240.13
10972,768.27,846.89,757.45,791.64,791.06,-30.27,-988.77,218.75,-2.30,8.76,-6.56,-1248.94
11008,763.58,848.19,758.39,794.95,791.28,-31.25,-1000.00,238.77,-4.46,2.53,-6.26,-1248.98
11043,759.27,849.12,759.12,797.91,791.35,-62.50,-991.70,236.82,-5.76,4.11,-8.11,-1304.21
11079,756.56,849.12,759.78,800.45,791.48,-44.43,-1022.46,259.77,-4.01,-4.73,-8.73,-1361.16
11114,754.66,847.43,760.54,802.11,791.19,-25.88,-1004.88,230.47,-9.85,-14.89,-14.11,-1404.11
11150,753.29,842.97,761.23,802.16,789.91,-56.15,-1104.00,249.02,-15.56,-22.57,-23.22,-1471.99
11185,752.25,832.77,761.64,799.83,786.62,-66.41,-1165.53,196.78,5.71,-16.92,-44.21,-1490.15
11221,751.52,816.54,761.71,796.14,781.48,12.21,-1100.10,150.39,3.81,-25.15,-63.49,-1390.83
11256,751.08,800.51,761.55,791.99,776.28,279.30,-1161.62,196.78,104.71,-56.36,-98.50,-1091.14
11292,750.72,787.92,760.35,785.95,771.23,-84.47,-1322.27,75.68,-25.11,-5.80,-99.46,-653.10
11327,750.52,778.82,757.78,776.83,765.99,169.43,-1092.29,198.73,-8.93,-14.79,-115.02,-441.47
11362,750.29,772.17,754.35,767.15,760.99,246.09,-1157.71,122.56,4.70,-6.85,-129.08,-244.66
11397,750.14,766.82,751.62,760.73,757.33,394.04,-1372.56,109.86,15.44,8.16,-144.32,-58.65
11433,750.18,762.08,750.18,755.50,754.48,662.11,-1346.68,51.76,-38.63,46.39,-131.83,-31.70
11468,750.14,759.06,749.78,753.62,753.15,619.63,-1401.86,347.17,-73.40,82.62,-85.98,-16.65
11503,750.13,757.89,749.65,753.01,752.67,470.21,-881.84,228.03,-39.31,78.57,-70.19,-7.24
11541,750.06,757.06,749.60,752.59,752.33,515.62,-958.01,324.71,-42.81,22.02,-71.28,-1.88
11576,750.10,756.71,749.62,752.36,752.20,672.36,-919.43,312.01,-30.85,30.60,-75.53,1.45
11611,750.08,756.51,749.61,752.32,752.13,629.88,-901.86,309.57,-5.16,55.63,-88.24,2.22
11646,750.12,756.50,749.68,752.28,752.15,540.53,-937.99,338.38,15.15,87.84,-90.85,3.62
11681,750.14,756.50,749.59,752.30,752.14,461.43,-845.70,410.64,26.76,80.05,-87.72,2.11
11716,750.24,756.60,749.66,752.29,752.20,219.24,-817.87,413.57,36.05,62.40,-58.94,2.92
11751,750.29,756.78,749.62,752.39,752.27,-4.39,-617.68,401.86,29.08,52.98,-9.03,0.88
11787,750.42,756.83,749.63,752.45,752.33,-137.70,-391.11,392.58,23.27,45.85,19.34,0.26
11822,750.51,756.94,749.66,752.45,752.39,-314.45,-280.27,325.68,23.77,58.13,66.78,0.27
11863,750.59,757.01,749.69,752.57,752.46,-364.26,-182.13,287.60,2.74,52.45,108.65,-0.61
11899,750.54,757.21,749.58,752.56,752.47,-331.54,-286.13,346.19,-25.61,41.14,146.31,-2.51
11937,750.49,757.23,749.63,752.63,752.50,-160.16,-493.16,363.28,-28.41,34.90,156.58,-2.51
11972,750.50,757.27,749.59,752.81,752.54,-71.29,-612.79,372.56,-28.07,18.16,188.37,-4.70
12007,750.28,757.38,749.68,753.19,752.63,20.51,-741.70,436.04,-62.37,-57.21,186.48,-6.96
12043,750.23,757.31,749.71,753.13,752.59,482.42,-1228.03,576.66,-64.06,-116.41,161.72,-5.81
12078,750.05,756.96,749.67,752.82,752.38,755.37,-1639.65,590.33,-52.76,-104.91,152.24,-2.62
12115,750.06,756.78,749.64,752.99,752.37,784.67,-1445.80,439.45,35.98,-113.24,129.22,-3.98
12151,750.05,756.40,749.56,752.82,752.21,272.95,-1313.96,252.44,43.03,-109.44,101.15,-2.55
12186,750.07,756.01,749.53,752.52,752.03,244.14,-1118.16,-30.27,-2.27,-177.51,79.91,0.67
12221,749.99,755.73,749.58,752.63,751.99,388.18,-1576.66,-46.39,-35.47,-250.14,40.83,1.26
12257,749.95,755.95,749.68,753.09,752.17,420.90,-1098.14,-231.45,29.69,-250.14,82.70,-2.03
12292,749.92,756.05,749.64,753.05,752.16,10.74,-786.13,-246.09,-89.18,-212.33,9.02,-2.48
12329,749.97,757.00,749.63,755.56,753.04,1190.92,-1165.53,-359.86,-87.29,-109.12,-26.16,-30.57
12365,750.08,763.43,749.82,760.19,755.88,-296.39,-629.88,-1509.28,153.85,24.81,51.90,-90.98
12400,749.95,780.84,750.63,764.34,761.44,-251.46,-1040.53,307.13,37.59,73.95,47.44,-476.92
12436,750.40,799.05,751.79,768.60,767.46,87.40,-1353.03,453.12,56.11,18.93,24.68,-700.35
12471,754.50,809.77,752.73,770.68,771.92,-319.34,-1035.16,522.95,70.92,-35.23,0.32,-764.10
12507,763.65,816.64,753.09,771.45,776.21,-239.26,-1008.30,438.48,15.24,-16.89,18.57,-830.97
12542,773.36,821.76,753.55,772.83,780.38,-92.29,-1012.70,222.17,8.31,-10.36,14.77,-917.78
12578,785.44,823.23,754.05,773.99,784.18,-58.59,-991.21,306.15,19.23,1.84,2.60,-958.23
12613,791.36,822.61,754.23,773.99,785.55,-56.64,-961.43,357.91,0.95,1.17,-0.27,-965.74
12648,791.47,821.12,754.22,773.26,785.02,-55.18,-968.26,317.87,-2.93,-0.79,0.53,-941.35
12684,791.63,819.36,753.99,772.35,784.33,-32.71,-960.94,343.75,-0.42,-2.27,1.44,-919.59
12719,793.82,817.63,753.80,771.49,784.18,-46.88,-951.17,338.38,-1.41,1.17,2.37,-906.56
12755,797.05,816.70,753.66,770.91,784.58,-46.39,-964.84,321.78,-0.02,2.72,4.03,-907.52
12790,799.04,816.12,753.64,770.75,784.89,-50.78,-950.20,333.01,-1.75,0.07,0.63,-909.17
12826,799.43,815.54,753.64,770.88,784.87,-57.62,-967.77,329.10,0.63,-0.51,-2.53,-907.52
12864,798.29,814.60,753.76,771.04,784.42,-70.31,-951.17,347.17,-0.64,-1.40,-0.77,-892.85
12900,793.79,813.19,753.82,771.21,783.00,-48.34,-980.47,326.17,-3.72,4.94,-3.43,-861.73
12935,787.99,811.64,753.86,771.28,781.19,-34.67,-952.64,335.45,-2.95,1.18,-2.19,-828.36
12970,783.14,810.82,753.99,771.30,779.81,-19.04,-939.94,353.03,-3.31,2.11,-1.93,-802.12
13005,779.70,809.58,754.01,771.33,778.66,-35.16,-961.91,319.82,-3.23,1.38,-0.82,-779.61
13041,777.76,808.43,753.98,771.29,777.87,-42.97,-963.38,326.66,0.90,1.89,-0.27,-763.97
13076,776.24,807.58,753.94,771.27,777.26,-37.60,-965.33,331.05,-1.56,1.82,-1.58,-754.01
13111,774.18,806.78,754.05,771.28,776.57,-32.23,-964.36,312.99,-2.66,0.76,-1.46,-738.07
13146,772.35,806.31,754.04,771.19,775.97,-37.60,-952.15,344.73,-5.50,0.74,-2.47,-727.80
13184,770.60,805.54,753.92,770.99,775.26,-33.69,-964.84,315.92,-4.73,-1.53,-0.85,-717.81
13219,769.44,804.29,753.88,770.91,774.63,-55.18,-986.33,318.36,-1.73,1.49,1.06,-704.08
13254,768.58,801.85,753.83,770.77,773.76,-30.27,-963.38,345.21,0.51,-5.08,0.89,-682.72
13289,767.27,799.20,753.84,770.80,772.77,-39.55,-966.80,298.34,-0.85,-3.95,-0.35,-663.27
13324,765.31,796.49,753.87,770.54,771.55,-47.85,-980.96,318.85,-4.20,-3.45,0.42,-639.82
13360,763.34,792.97,753.69,769.79,769.95,-42.48,-971.68,299.80,-7.11,-1.73,-2.30,-608.43
13395,761.83,789.28,753.44,768.92,768.37,-31.74,-944.82,338.87,-2.76,-4.41,1.94,-575.15
13430,760.36,785.90,753.24,767.87,766.84,-23.93,-968.75,315.43,-2.09,-3.81,1.69,-530.87
13465,760.55,783.72,753.08,767.84,766.30,-52.25,-951.17,321.78,8.60,0.33,3.04,-503.99
13501,762.10,784.60,753.35,768.63,767.17,-27.34,-948.24,362.79,7.88,-1.52,1.37,-515.33
13536,765.60,788.23,753.77,770.35,769.49,-22.46,-920.41,337.40,13.38,-0.10,1.67,-566.12
13571,774.15,795.29,754.46,773.12,774.26,-64.45,-962.40,340.82,19.53,2.96,-2.56,-653.48
13607,782.92,801.94,755.08,775.40,778.83,-47.36,-991.70,300.29,5.22,3.63,-4.43,-757.94
13642,789.88,805.59,755.42,776.55,781.86,-46.88,-981.45,333.98,2.29,-1.02,-4.13,-778.52
13678,792.22,807.54,755.40,776.89,783.01,-47.85,-966.31,348.14,-4.34,3.21,-1.34,-802.55
13713,791.32,808.20,755.22,775.93,782.67,-41.99,-954.59,335.94,-9.62,5.16,-2.18,-817.77
13749,790.66,807.54,754.75,774.46,781.85,-59.08,-945.31,336.43,-6.27,8.87,-1.97,-825.89
13784,790.92,806.11,754.13,772.15,780.83,-56.64,-988.28,322.75,-3.75,4.25,0.82,-796.77
13819,791.07,803.97,753.36,768.28,779.17,-61.52,-963.38,325.68,-5.55,2.83,-0.37,-745.48
13861,796.08,799.21,752.31,763.92,777.88,-87.89,-940.92,341.80,0.77,-0.98,3.41,-699.83
13896,801.77,795.24,751.67,761.87,777.64,-68.36,-1000.49,300.29,-5.89,-0.21,4.11,-667.22
13931,803.89,791.72,751.27,760.23,776.78,-21.48,-943.85,362.30,-2.57,-2.76,3.08,-624.62
13967,806.26,788.80,750.99,759.20,776.31,-57.62,-976.56,319.34,-4.92,-3.29,-0.12,-592.06
14002,803.47,786.83,750.93,758.55,774.94,-58.59,-959.96,312.50,-4.27,-1.08,0.85,-567.17
14038,805.06,785.53,750.85,758.03,774.87,-55.18,-986.82,307.62,-1.41,-3.53,2.89,-554.08
14073,806.03,782.86,750.55,757.28,774.18,-63.96,-973.63,303.71,-4.75,-7.13,2.63,-522.37
14108,804.74,784.21,750.80,759.18,774.73,-81.05,-974.12,329.59,5.42,-8.11,-2.02,-543.65
14144,799.86,788.18,751.09,760.93,775.01,-73.24,-949.71,335.45,3.20,-5.14,-4.00,-583.12
14179,796.65,790.21,751.36,762.50,775.18,-68.36,-959.96,347.66,5.63,-1.01,-2.27,-602.67
14214,795.07,790.88,751.40,762.58,774.98,-8.30,-994.14,304.69,5.88,0.31,-1.87,-607.50
14250,799.42,787.22,751.17,761.26,774.77,-36.13,-954.59,326.17,4.62,4.86,4.50,-572.95
14285,801.64,783.99,750.87,759.30,773.95,-38.57,-960.45,327.64,1.78,-0.89,1.99,-539.39
14320,803.74,781.02,750.62,758.08,773.36,-67.38,-957.52,356.45,-5.53,4.15,2.90,-500.91
14356,802.96,780.13,750.48,757.31,772.72,-55.18,-958.01,331.54,-8.66,5.27,-1.34,-487.98
14391,801.33,780.07,750.47,757.45,772.33,-80.08,-949.22,319.82,-7.27,3.34,-1.69,-487.46
14427,797.13,783.09,750.64,758.14,772.25,-55.18,-951.66,342.29,-8.69,5.78,-7.20,-527.48
14462,791.46,785.88,750.64,758.38,771.59,-41.02,-965.33,312.50,-12.40,0.85,-3.83,-557.35
14497,789.94,786.35,750.69,758.57,771.39,-44.92,-992.19,251.95,-0.01,-1.24,-2.00,-562.15
14533,791.48,787.60,750.82,759.01,772.23,-62.99,-942.87,339.36,5.60,1.94,-0.90,-577.56
14568,794.35,787.55,750.71,758.34,772.74,-48.34,-962.40,302.73,2.51,-0.85,0.47,-579.47
14603,799.65,785.34,750.58,757.09,773.16,-59.08,-963.38,323.73,2.83,-1.45,0.89,-556.58
14638,807.57,780.09,750.17,754.47,773.08,-38.09,-970.21,327.64,-4.68,-0.77,5.71,-489.58
14673,817.02,773.84,749.86,752.69,773.35,-61.52,-965.33,348.63,-10.82,-0.42,6.32,-416.05
14709,823.22,769.08,749.78,751.80,773.47,-99.61,-990.72,261.72,-19.17,7.05,6.59,-378.53
14744,825.78,766.59,749.70,751.56,773.41,-85.45,-980.47,251.95,-9.60,1.67,7.12,-358.24
14779,825.16,766.65,749.77,751.91,773.37,-91.80,-986.82,289.55,-2.48,-8.15,-2.37,-357.53
14819,818.00,770.35,749.79,753.39,772.88,-61.52,-982.91,264.65,11.37,-8.34,-7.22,-389.11
14854,811.01,774.18,750.06,755.32,772.64,-45.41,-968.26,306.64,6.10,-2.31,-5.89,-414.00
14889,805.87,777.36,750.32,756.94,772.62,-51.76,-984.37,283.20,2.73,-4.31,-4.47,-458.79
14924,800.54,781.36,750.67,758.67,772.81,-59.08,-967.29,337.40,1.34,-1.02,-5.31,-507.02
14959,795.98,784.86,750.95,759.66,772.86,-39.06,-985.35,308.11,-2.50,0.38,-3.58,-545.84
14995,793.40,787.62,751.22,760.87,773.28,-60.55,-978.03,295.41,2.18,4.23,-4.32,-571.28
15030,790.63,790.18,751.67,761.82,773.58,-49.32,-956.54,323.24,1.52,4.70,-3.40,-592.44
15065,788.63,791.44,752.06,762.74,773.72,-58.59,-979.49,310.55,1.82,2.04,-1.36,-604.35
15101,787.13,791.76,752.26,763.26,773.60,-54.69,-951.17,334.96,0.79,-1.53,-2.71,-606.80
15136,786.64,791.62,752.22,763.14,773.41,-34.18,-963.87,316.41,2.24,2.18,-1.88,-605.12
15171,787.70,790.47,752.09,762.47,773.18,-41.02,-957.52,324.71,4.31,4.52,-0.76,-595.18
15207,790.05,788.93,751.81,761.21,773.00,-43.46,-949.22,320.31,3.36,1.37,0.80,-580.40
15242,793.41,786.27,751.37,759.45,772.62,-33.20,-966.31,345.21,-0.31,-0.18,2.41,-554.03
15278,797.17,782.22,750.93,757.25,771.89,-46.88,-949.71,340.82,-1.92,-0.43,6.69,-513.62
15313,801.61,778.14,750.55,755.48,771.45,-66.89,-975.59,312.01,-3.68,-1.91,7.27,-461.80
15348,805.49,775.94,750.36,754.43,771.56,-76.66,-988.28,312.50,-4.84,-1.41,2.11,-428.09
15386,807.39,773.73,750.22,753.69,771.26,-50.29,-961.43,328.12,-5.49,1.01,4.44,-397.48
15422,808.53,772.13,750.03,753.03,770.93,-62.99,-971.68,310.06,-5.60,1.62,3.18,-390.26
15457,809.87,770.96,749.97,752.54,770.83,-45.90,-971.68,310.55,-7.65,-1.69,0.44,-380.27
15492,811.01,769.12,749.85,752.05,770.51,-54.20,-973.14,313.48,-8.19,-0.62,4.92,-365.31
15528,811.40,766.98,749.79,751.68,769.96,-89.36,-987.30,289.06,-9.95,3.48,6.76,-349.18
15563,811.78,765.31,749.75,751.39,769.56,-69.82,-980.47,281.25,-10.70,-1.66,2.88,-318.90
15599,811.32,764.23,749.73,751.37,769.16,-50.78,-984.37,305.18,-6.67,-1.60,4.18,-292.43
15634,810.27,763.15,749.70,751.29,768.60,-66.41,-977.05,294.43,-4.56,-3.34,4.15,-269.01
15669,808.58,762.83,749.64,751.31,768.09,-70.31,-1002.93,272.95,0.42,-6.50,3.04,-260.32
15705,806.01,763.15,749.69,751.60,767.61,-68.85,-981.45,296.39,10.13,-4.14,-1.95,-255.10
15740,803.11,763.19,749.76,751.57,766.91,-57.13,-954.59,336.43,0.37,-2.19,-2.13,-236.81
15775,798.07,762.69,749.73,751.51,765.50,-69.82,-967.29,304.20,-7.54,-1.54,-0.53,-176.76
15811,791.98,762.18,749.66,751.54,763.84,-79.59,-977.54,283.69,-9.87,-2.95,-1.05,-120.06
15852,785.36,761.62,749.69,751.63,762.07,-66.89,-977.54,282.23,-7.42,-2.72,-0.44,-86.91
15887,781.44,761.34,749.71,751.70,761.05,-76.17,-983.40,274.41,-4.61,-3.77,-2.33,-65.20
15922,778.10,760.89,749.76,751.67,760.11,-80.08,-976.56,262.21,-2.91,-1.23,-3.08,-33.49
15958,775.67,760.52,749.73,751.71,759.41,-56.64,-958.98,291.02,-1.60,1.94,-1.49,-25.56
15994,773.80,760.21,749.70,751.76,758.87,-71.78,-972.17,284.18,-4.05,1.84,0.13,-21.54
16029,771.81,759.82,749.73,751.69,758.26,-73.24,-971.19,286.62,-5.55,-0.59,-1.45,-13.46
16064,770.04,759.39,749.63,751.68,757.68,-66.89,-973.63,263.67,-3.27,-1.99,1.10,-12.33
16100,769.15,759.00,749.68,751.60,757.36,-62.01,-981.45,280.76,-3.34,-0.74,1.53,-8.87
16135,768.72,758.59,749.62,751.57,757.12,-74.71,-973.14,281.25,-4.84,1.37,-0.54,-8.32
16170,768.15,758.41,749.60,751.53,756.92,-86.91,-984.37,253.91,-5.18,2.04,0.19,-7.39
16205,767.67,758.19,749.66,751.56,756.77,-73.24,-977.05,272.46,-2.79,-0.08,1.37,-5.35
16241,767.16,758.08,749.64,751.48,756.59,-80.57,-972.17,252.44,-1.18,-0.26,-0.72,-4.42
16276,766.67,758.00,749.62,751.48,756.44,-72.75,-977.54,248.05,1.96,-0.37,-0.31,-4.44
16311,766.10,757.94,749.66,751.47,756.29,-61.52,-982.42,269.04,-0.27,-0.88,-0.74,-3.16
16346,765.84,757.77,749.65,751.51,756.19,-69.34,-980.96,248.54,-2.60,1.16,-0.05,-3.18
16382,765.55,757.71,749.61,751.40,756.07,-63.96,-973.63,264.65,-3.01,0.57,-1.46,-2.52
16417,765.25,757.61,749.63,751.41,755.98,-62.99,-991.21,248.05,-3.14,0.29,-0.64,-1.98
16455,765.06,757.57,749.68,751.40,755.93,-71.78,-984.37,258.79,-3.45,1.79,-1.14,-0.84
16490,764.92,757.58,749.60,751.40,755.88,-63.96,-982.91,255.37,-2.63,0.56,-2.18,-2.09
16525,764.66,757.57,749.67,751.36,755.82,-73.73,-990.23,244.14,-2.64,0.08,-1.35,-0.35
16560,764.53,757.51,749.64,751.39,755.77,-64.94,-990.23,256.35,0.13,-1.65,-0.94,-0.91
16595,764.24,757.46,749.53,751.34,755.64,-62.50,-991.21,253.42,-2.27,-0.41,-0.13,-2.01
16630,764.15,757.47,749.61,751.35,755.64,-71.78,-986.33,255.37,-0.47,-0.44,-1.73,-0.79
16665,763.93,757.39,749.62,751.36,755.58,-65.92,-979.49,254.88,-2.16,-0.44,0.88,-0.44
16701,763.85,757.41,749.61,751.32,755.55,-71.29,-987.30,240.23,-3.02,-1.01,-0.17,-0.23
16736,763.81,757.37,749.58,751.30,755.52,-82.03,-980.47,250.00,-3.40,-0.59,0.83,-0.44
16771,763.55,757.27,749.57,751.31,755.42,-74.71,-975.10,241.21,-1.66,0.64,1.44,-0.43
16811,763.41,757.32,749.58,751.21,755.38,-78.12,-987.30,241.21,-0.44,-1.21,-0.05,0.68
16846,763.28,757.24,749.62,751.28,755.36,-74.22,-989.75,242.19,-1.95,0.85,0.73,0.93
16882,763.13,757.16,749.60,751.25,755.28,-81.05,-979.98,230.47,-1.00,2.15,1.26,1.09
16917,763.02,757.14,749.65,751.22,755.26,-69.34,-977.05,247.07,-1.83,-2.56,-1.52,2.31
16952,762.97,757.17,749.66,751.23,755.26,-77.64,-990.72,227.54,0.55,-0.29,-2.61,2.24
16988,762.90,757.14,749.61,751.24,755.22,-84.47,-987.79,249.51,1.16,2.87,-0.86,1.65
17023,762.77,757.17,749.62,751.23,755.20,-67.87,-986.33,237.79,0.76,0.02,-0.31,1.84
17059,762.74,757.11,749.63,751.24,755.18,-73.24,-974.12,246.58,-1.07,0.73,-1.31,2.07
17094,762.83,757.12,749.49,751.20,755.16,-69.34,-980.47,229.49,-1.30,2.98,-0.43,-0.03
17129,762.80,757.10,749.54,751.23,755.17,-72.75,-981.93,257.32,-2.49,0.87,-0.66,0.57
17164,762.70,757.10,749.59,751.14,755.13,-75.68,-991.21,236.82,-0.42,-0.50,-1.65,2.33
17200,762.61,757.09,749.60,751.20,755.12,-74.22,-992.68,254.88,-1.78,2.43,-0.78,1.89
17235,762.65,757.19,749.57,751.21,755.15,-74.22,-985.35,246.58,-0.27,2.18,-1.29,1.28
17271,762.68,757.21,749.64,751.13,755.16,-65.43,-988.28,238.28,0.33,-0.29,-0.93,2.39
17306,762.57,757.17,749.62,751.21,755.14,-77.64,-988.28,242.68,-1.36,0.58,-1.38,2.14
17341,762.39,757.09,749.62,751.16,755.06,-82.52,-989.26,228.03,-2.89,-0.34,-2.23,2.75
17377,762.33,757.09,749.56,751.18,755.04,-77.64,-981.93,234.37,-0.14,-0.72,0.24,1.59
17412,762.40,757.10,749.60,751.16,755.06,-76.17,-967.29,236.82,-1.52,-0.47,-1.74,2.42
17447,762.51,757.15,749.68,751.16,755.12,-75.68,-973.63,239.26,-2.82,1.24,-2.42,2.26
17483,762.50,757.09,749.59,751.19,755.09,-69.82,-994.14,248.54,-0.21,-2.34,-2.44,1.96
17518,762.57,757.07,749.74,751.14,755.13,-83.01,-976.56,240.23,-0.75,-0.13,-1.41,1.94
17554,762.62,757.07,749.64,751.13,755.11,-74.22,-992.19,247.56,-3.29,0.47,-0.47,2.59
17589,762.66,757.11,749.66,751.10,755.13,-72.75,-990.72,227.05,-3.66,0.06,1.15,2.37
17624,762.63,757.13,749.61,751.10,755.12,-70.80,-990.72,239.75,-1.40,1.20,0.37,2.65
17660,762.55,757.20,749.62,751.13,755.13,-75.68,-984.86,239.75,-0.60,1.18,-2.91,2.54
17695,762.66,757.20,749.64,751.20,755.17,-73.24,-996.58,227.05,-0.70,-3.31,-0.19,2.36
17730,762.63,757.27,749.62,751.21,755.18,-78.61,-993.65,234.37,0.56,-1.08,-1.98,1.96
17766,762.68,757.23,749.57,751.16,755.16,-69.82,-986.82,239.75,-0.93,2.38,-3.17,1.56
17801,762.73,757.27,749.64,751.19,755.21,-63.48,-991.21,245.61,0.04,-0.62,-1.26,2.29
17842,762.72,757.27,749.58,751.22,755.20,-80.57,-974.61,238.28,-0.55,-0.92,0.75,1.08
17878,762.72,757.27,749.62,751.14,755.19,-76.17,-988.28,239.26,-0.21,-1.56,0.98,2.38
17915,762.62,757.26,749.58,751.23,755.17,-74.22,-981.45,228.52,0.13,-0.66,-1.66,0.96
17950,762.72,757.18,749.64,751.22,755.19,-81.54,-974.12,243.16,1.99,-1.07,-1.43,2.33
17985,762.68,757.23,749.67,751.17,755.19,-80.08,-984.86,237.30,-0.80,-1.62,0.59,2.12
18020,762.64,757.15,749.67,751.20,755.17,-70.31,-984.86,234.37,-0.92,-0.85,2.72,2.25
18056,762.70,757.18,749.64,751.19,755.18,-77.15,-992.68,242.68,-0.23,0.35,-1.11,2.38
18090,762.70,757.14,749.66,751.20,755.18,-72.75,-984.86,250.49,-1.48,0.73,-0.82,2.34
18126,762.72,757.23,749.64,751.18,755.19,-73.73,-987.79,245.61,1.36,-0.91,-3.50,2.32
18163,762.77,757.27,749.61,751.25,755.22,-87.89,-981.93,236.33,2.18,-2.21,0.48,1.34
18198,762.72,757.34,749.62,751.24,755.23,-78.12,-977.54,238.28,0.50,-2.53,1.67,1.50
18233,762.84,757.32,749.64,751.33,755.28,-75.20,-981.93,237.79,2.05,0.93,-0.62,0.95
18268,762.87,757.38,749.65,751.23,755.28,-84.96,-993.16,245.61,-1.04,-1.29,-1.29,1.81
18304,762.91,757.38,749.64,751.24,755.29,-69.82,-989.26,249.02,-2.53,1.40,-0.63,1.63
18339,762.88,757.45,749.69,751.22,755.31,-79.59,-988.28,242.68,-0.52,-2.01,1.56,1.65
18374,763.03,757.49,749.73,751.17,755.36,-84.96,-992.19,232.42,-1.21,0.17,1.25,1.28
18409,762.92,757.43,749.70,751.17,755.30,-64.94,-988.77,243.16,1.36,-0.07,-0.06,1.63
18445,763.03,757.32,749.67,751.24,755.32,-78.12,-981.93,245.61,0.92,-0.29,1.41,1.95
18483,762.91,757.28,749.66,751.23,755.27,-53.71,-993.65,233.89,1.58,-1.15,-2.03,2.09
18518,762.98,757.26,749.71,751.25,755.30,-72.27,-985.84,252.44,0.68,3.38,-0.78,1.77
18553,763.00,757.20,749.69,751.26,755.29,-57.13,-987.30,252.93,1.58,-1.57,0.99,1.99
18589,762.99,757.22,749.64,751.29,755.29,-68.85,-987.79,249.51,0.41,-0.43,-1.79,1.37
18624,763.08,757.22,749.67,751.25,755.31,-64.45,-987.79,251.95,0.37,0.84,0.66,2.08
18659,763.02,757.26,749.66,751.27,755.31,-78.61,-997.07,252.93,-0.95,1.64,-0.63,1.84
18695,763.05,757.19,749.73,751.28,755.31,-66.41,-995.12,238.28,0.47,-0.27,-1.45,1.77
18730,763.10,757.27,749.60,751.26,755.31,-84.96,-978.52,252.93,1.31,-0.63,1.28,0.81
18766,763.10,757.26,749.68,751.28,755.33,-81.54,-966.31,253.42,-0.60,-0.45,1.08,1.94
18804,763.09,757.35,749.71,751.26,755.35,-68.85,-985.35,259.28,-0.14,-3.32,-1.11,1.63
18842,763.08,757.31,749.72,751.32,755.36,-59.08,-996.58,251.95,-3.31,1.89,0.06,1.67
18878,763.14,757.26,749.66,751.32,755.34,-82.03,-984.37,248.05,-0.03,0.49,0.02,1.29
18913,763.10,757.24,749.73,751.26,755.33,-74.71,-986.33,248.54,0.37,0.29,-2.30,1.64
18948,763.16,757.22,749.61,751.34,755.33,-77.15,-984.86,241.21,0.24,1.55,1.87,0.33
18984,763.11,757.20,749.73,751.29,755.33,-81.05,-976.56,252.44,-0.71,1.89,-3.21,1.72
19019,763.12,757.16,749.70,751.25,755.31,-67.87,-972.17,241.70,-1.25,1.63,-1.63,1.93
19055,762.97,757.14,749.69,751.22,755.25,-67.38,-989.75,253.91,-0.74,2.27,1.53,2.10
19090,763.02,757.13,749.72,751.26,755.28,-83.50,-984.86,248.54,-1.22,0.55,-1.53,1.93
19126,762.98,757.17,749.66,751.22,755.26,-65.92,-995.12,234.37,0.49,-1.21,-0.53,2.21
19161,762.97,757.14,749.67,751.23,755.25,-71.78,-981.45,253.42,-0.06,0.05,-2.42,2.20
19196,762.94,757.16,749.67,751.21,755.25,-70.80,-996.09,252.44,-0.91,-0.09,-0.10,2.16
19231,762.84,757.23,749.68,751.21,755.24,-78.61,-983.40,251.46,-1.50,3.42,2.24,2.05
19267,762.81,757.21,749.68,751.23,755.23,-55.66,-979.49,244.63,-2.51,2.52,0.41,2.11
19302,762.86,757.13,749.67,751.22,755.22,-72.27,-975.59,252.93,-1.69,2.24,1.32,2.22
19338,762.69,757.18,749.68,751.19,755.19,-79.59,-979.00,236.82,-1.71,2.09,-0.01,2.17
19373,762.75,757.18,749.64,751.24,755.20,-64.94,-992.68,240.72,-0.29,1.21,-0.18,2.01
19409,762.72,757.15,749.66,751.15,755.17,-76.66,-975.59,240.23,-0.14,1.13,-0.48,2.32
19444,762.82,757.19,749.67,751.20,755.22,-77.15,-983.40,244.63,-1.28,-0.69,0.82,2.19
19479,762.72,757.05,749.63,751.19,755.15,-72.27,-969.24,235.35,-0.68,0.09,-0.81,2.53
19515,762.75,757.14,749.62,751.20,755.18,-68.36,-983.40,240.72,-2.11,-0.54,0.21,2.05
19550,762.71,757.16,749.65,751.13,755.16,-74.71,-985.35,241.70,0.03,1.33,-0.82,2.39
19586,762.74,757.10,749.65,751.22,755.18,-76.17,-990.23,242.68,-1.94,-0.02,-2.15,2.43
19621,762.60,757.13,749.59,751.19,755.13,-78.61,-994.63,241.21,-1.15,-0.33,-0.20,1.91
19656,762.67,757.17,749.72,751.18,755.18,-70.80,-992.68,246.09,-1.11,0.66,-2.80,1.94
19692,762.54,757.17,749.69,751.20,755.15,-70.80,-996.58,242.19,-1.31,0.16,-0.56,2.17
19727,762.69,757.07,749.70,751.15,755.15,-84.47,-991.21,237.79,-0.99,0.27,-2.34,2.17
19762,762.63,757.13,749.68,751.16,755.15,-78.12,-973.63,234.37,-1.56,-1.66,-1.44,2.24
19797,762.70,757.11,749.70,751.19,755.17,-64.94,-994.14,248.54,0.50,-0.44,-2.16,2.15
19840,762.69,757.12,749.72,751.17,755.18,-67.87,-978.03,239.26,-1.08,2.85,0.64,2.00
19875,762.70,757.18,749.70,751.18,755.19,-74.71,-993.16,242.68,0.08,-0.03,-1.58,2.05
19910,762.69,757.15,749.65,751.20,755.17,-70.31,-993.65,236.82,-0.77,2.19,-2.61,2.38
19945,762.59,757.15,749.63,751.14,755.13,-73.24,-983.89,243.65,-0.46,-0.71,1.05,2.55
19981,762.66,757.14,749.64,751.21,755.16,-83.50,-993.65,230.47,-2.08,2.46,-2.62,2.35
20016,762.69,757.18,749.68,751.21,755.19,-72.75,-993.65,240.23,-0.81,-0.01,-0.82,2.14
20051,762.64,757.16,749.66,751.21,755.17,-73.73,-987.30,247.56,0.83,2.03,0.58,2.36
20086,762.65,757.16,749.67,751.13,755.15,-72.27,-988.77,243.65,0.40,0.49,-0.41,2.24
20122,762.66,757.17,749.64,751.15,755.15,-90.82,-995.12,235.35,-0.73,0.73,-0.05,2.45
20157,762.68,757.19,749.61,751.21,755.17,-74.22,-992.19,237.30,0.12,-0.45,-0.82,1.86
20192,762.65,757.16,749.74,751.21,755.19,-74.22,-992.68,227.54,0.22,2.49,-0.53,1.79
20228,762.64,757.18,749.71,751.17,755.18,-72.75,-990.23,237.30,0.02,0.69,0.17,1.99
20263,762.62,757.14,749.69,751.19,755.16,-67.87,-982.42,243.65,0.15,-0.33,0.24,2.20
20299,762.60,757.14,749.72,751.18,755.16,-87.89,-994.14,235.84,1.18,-1.21,-0.40,1.98
20334,762.57,757.13,749.74,751.14,755.15,-83.98,-988.28,238.28,-1.24,0.49,0.28,1.85
20369,762.63,757.14,749.63,751.23,755.16,-86.43,-980.96,230.96,-1.05,-1.07,1.08,2.14
20405,762.63,757.12,749.70,751.19,755.16,-58.59,-990.23,237.79,0.09,1.27,-0.77,2.12
20440,762.64,757.21,749.70,751.18,755.18,-80.08,-986.82,238.77,-1.73,0.24,-0.82,2.02
20475,762.66,757.14,749.69,751.17,755.16,-75.20,-986.82,232.91,-0.16,2.27,-0.36,2.15
20511,762.67,757.17,749.68,751.17,755.17,-83.50,-987.79,240.23,-0.68,2.47,0.96,2.16
20546,762.60,757.15,749.64,751.19,755.14,-78.12,-987.30,229.49,0.03,0.67,-1.79,2.49
20581,762.61,757.15,749.73,751.26,755.19,-72.75,-994.63,235.35,-0.71,-0.23,0.25,1.94
20617,762.56,757.24,749.66,751.22,755.17,-77.64,-984.37,245.12,-1.62,0.79,-0.70,2.26
20652,762.58,757.18,749.68,751.25,755.17,-81.05,-981.45,233.40,-0.74,1.18,1.89,2.18
20688,762.53,757.21,749.64,751.17,755.14,-73.73,-989.26,236.82,-0.11,-0.26,-1.77,2.40
20723,762.46,757.19,749.72,751.17,755.13,-81.54,-995.61,219.24,-0.67,1.45,-0.76,1.92
20758,762.51,757.18,749.68,751.15,755.13,-60.55,-982.42,227.05,-0.66,0.11,-0.81,2.21
20797,762.56,757.19,749.69,751.15,755.15,-75.20,-988.28,235.84,-0.32,-1.21,0.25,2.10
20833,762.53,757.14,749.72,751.15,755.14,-74.71,-988.28,238.77,-0.14,1.43,2.44,1.98
20871,762.56,757.14,749.74,751.21,755.16,-77.64,-990.23,240.72,-0.44,0.24,1.33,1.89
20906,762.61,757.12,749.70,751.16,755.15,-83.98,-994.63,236.33,-2.04,2.34,-0.31,2.15
20941,762.48,757.10,749.69,751.13,755.10,-75.68,-983.89,243.16,-1.45,-3.86,1.64,2.26
20977,762.47,757.20,749.67,751.14,755.12,-78.12,-1014.16,260.25,-3.83,-0.66,-0.75,2.23
21012,762.52,757.17,749.72,751.17,755.14,-77.64,-987.79,226.07,-0.01,-1.05,0.31,1.97
21049,762.48,757.23,749.65,751.17,755.13,-68.36,-985.84,239.26,1.71,1.50,-0.28,2.32
21085,762.50,757.13,749.68,751.19,755.12,-78.61,-990.23,233.89,-0.19,1.64,-2.94,2.29
21120,762.52,757.17,749.68,751.21,755.14,-76.66,-984.37,236.82,0.15,2.14,-0.02,2.22
21155,762.55,757.16,749.74,751.24,755.17,-69.82,-987.30,236.82,-0.04,-1.68,3.34,1.88
21191,762.52,757.22,749.69,751.22,755.16,-75.20,-984.86,243.16,-0.08,2.20,-0.94,2.10
21226,762.55,757.21,749.73,751.19,755.17,-74.71,-980.96,239.26,1.79,0.27,0.63,1.84
21261,762.51,757.20,749.71,751.23,755.16,-63.96,-990.23,242.68,0.02,0.95,-2.03,1.98
21297,762.54,757.16,749.72,751.19,755.15,-63.48,-995.12,252.93,0.17,-0.02,1.40,1.96
21332,762.61,757.17,749.74,751.17,755.17,-76.17,-997.07,230.47,-1.75,-0.21,-2.12,1.83
21367,762.61,757.16,749.68,751.14,755.15,-76.66,-996.58,233.89,-0.22,-0.34,1.50,2.23
21402,762.51,757.13,749.69,751.16,755.12,-76.66,-988.77,231.93,0.18,0.60,-1.04,2.20
21438,762.58,757.18,749.76,751.24,755.19,-75.20,-986.82,237.79,1.41,0.28,-1.15,1.68
21473,762.56,757.20,749.74,751.21,755.18,-62.01,-998.05,232.91,-1.18,-0.24,-0.86,1.81
21508,762.52,757.23,749.73,751.26,755.19,-62.50,-993.65,229.98,-0.88,0.04,-1.18,1.80
21548,762.54,757.16,749.67,751.16,755.13,-88.87,-979.00,233.89,-1.34,-1.30,-0.40,2.27
21583,762.41,757.16,749.68,751.22,755.12,-65.92,-991.70,241.70,-1.41,-2.69,1.94,2.24
21618,762.48,757.14,749.72,751.22,755.14,-62.99,-994.63,239.26,0.21,-1.73,-0.40,2.04
21653,762.48,757.10,749.71,751.17,755.11,-69.34,-989.75,239.26,-0.14,-1.45,0.36,2.12
21688,762.44,757.21,749.69,751.27,755.15,-85.45,-987.79,237.79,0.92,0.11,0.02,2.15
21724,762.57,757.20,749.74,751.22,755.18,-73.24,-984.37,229.98,0.76,0.37,-0.23,1.80
21759,762.55,757.14,749.77,751.23,755.17,-68.36,-992.19,241.70,-1.15,-0.46,-0.11,1.70
21801,762.49,757.15,749.71,751.22,755.14,-72.75,-988.28,230.47,1.15,3.15,-1.40,2.04
21836,762.52,757.18,749.63,751.25,755.15,-93.26,-995.12,240.23,-2.51,-1.34,0.21,1.93
21871,762.55,757.23,749.67,751.15,755.15,-75.68,-994.14,232.91,0.47,-1.31,-0.31,2.16
21907,762.48,757.14,749.61,751.21,755.11,-74.22,-999.51,228.52,-1.13,1.45,-0.63,2.03
21942,762.52,757.09,749.64,751.18,755.11,-70.31,-988.28,235.84,-0.36,-1.08,-1.00,2.55
21977,762.49,757.08,749.69,751.23,755.12,-72.27,-999.02,245.61,1.22,1.21,-0.91,2.29
22013,762.40,757.20,749.70,751.22,755.13,-65.92,-981.45,247.07,-2.98,0.42,-2.09,2.10
22048,762.43,757.19,749.73,751.24,755.15,-69.82,-992.68,239.26,-0.56,2.79,-1.08,1.91
22084,762.48,757.10,749.72,751.20,755.13,-73.73,-990.23,226.56,0.10,1.21,-0.78,2.04
22119,762.42,757.18,749.74,751.17,755.13,-71.78,-995.61,236.82,-1.42,0.23,-0.13,1.87
22154,762.40,757.20,749.78,751.20,755.15,-74.22,-987.30,249.51,-0.72,0.05,-0.33,1.53
22190,762.45,757.14,749.71,751.16,755.11,-79.10,-985.35,232.91,-1.65,1.18,-1.98,2.10
22225,762.46,757.14,749.69,751.19,755.12,-71.29,-976.56,234.37,0.56,0.54,-2.27,2.20
22260,762.45,757.14,749.66,751.23,755.12,-66.89,-990.23,233.89,1.06,0.13,0.59,2.43
22296,762.43,757.20,749.71,751.15,755.12,-79.10,-971.19,248.54,0.15,3.24,-0.35,2.01
22331,762.51,757.19,749.73,751.21,755.16,-83.01,-986.82,238.28,-0.73,1.22,1.05,1.90
22367,762.47,757.17,749.68,751.15,755.12,-72.75,-994.14,243.16,-0.03,-0.80,-0.18,2.24
22402,762.49,757.24,749.62,751.21,755.14,-78.61,-985.35,236.33,-0.50,-0.62,-2.72,2.12
22437,762.47,757.20,749.71,751.25,755.16,-78.61,-980.96,226.56,-2.45,2.06,0.77,2.00
22473,762.46,757.24,749.73,751.21,755.16,-70.31,-987.79,237.79,0.28,-1.73,-0.29,1.81
22508,762.45,757.29,749.73,751.15,755.15,-63.48,-990.23,240.23,-1.26,0.76,-0.55,1.77
22543,762.43,757.26,749.71,751.25,755.16,-80.57,-995.61,232.42,-3.17,1.68,-0.21,1.95
22579,762.49,757.27,749.73,751.15,755.16,-66.41,-984.86,234.86,0.72,0.63,0.37,1.76
22614,762.45,757.30,749.72,751.18,755.16,-69.34,-989.75,239.75,0.83,-1.02,0.11,1.81
22649,762.44,757.23,749.75,751.24,755.17,-72.75,-985.35,238.77,-0.22,2.46,1.38,1.72
22685,762.48,757.21,749.66,751.17,755.13,-83.01,-987.30,235.84,0.65,3.75,-1.41,2.30
22720,762.50,757.37,749.66,751.23,755.19,-65.92,-985.35,236.33,-0.18,0.23,-0.60,2.06
22756,762.44,757.28,749.71,751.23,755.16,-90.33,-983.89,233.89,-0.70,-0.15,-1.73,1.94
22794,762.44,757.26,749.66,751.23,755.15,-77.15,-983.40,233.40,0.51,0.94,0.20,2.23
22829,762.45,757.26,749.73,751.17,755.15,-78.12,-988.28,237.30,0.63,-1.89,-0.75,1.82
22864,762.38,757.20,749.70,751.19,755.12,-69.82,-986.82,229.00,-0.28,0.20,0.61,2.07
22900,762.44,757.20,749.74,751.20,755.14,-90.33,-989.26,233.89,-0.36,-1.14,-1.32,1.80
22935,762.39,757.22,749.71,751.27,755.15,-80.57,-979.49,230.96,-0.75,-1.51,-1.50,2.00
22971,762.26,757.30,749.71,751.30,755.14,-72.27,-972.66,238.28,-0.04,1.08,-0.27,1.97
23006,762.33,757.25,749.72,751.20,755.12,-71.78,-980.47,236.33,-2.49,3.34,-0.60,1.88
23041,762.38,757.19,749.70,751.22,755.12,-77.64,-980.47,233.40,0.15,5.05,0.79,2.12
23077,762.36,757.21,749.67,751.26,755.13,-78.61,-991.21,229.00,-1.73,-0.69,0.50,2.28
23112,762.37,757.27,749.72,751.24,755.15,-76.17,-989.75,242.68,-0.13,0.06,-0.22,1.88
23147,762.37,757.28,749.76,751.25,755.16,-74.71,-984.86,234.86,0.23,0.95,-0.80,1.64
23183,762.37,757.22,749.73,751.28,755.15,-87.40,-997.56,226.07,-0.06,-0.94,-0.24,1.87
23218,762.31,757.26,749.73,751.19,755.12,-67.87,-999.02,240.23,0.24,-2.88,-0.05,1.86
23255,762.28,757.27,749.72,751.18,755.11,-82.52,-988.28,222.66,0.24,-0.18,-1.68,1.88
23290,762.24,757.24,749.72,751.23,755.11,-78.61,-990.72,241.70,-1.88,-0.37,0.01,1.97
23326,762.19,757.25,749.75,751.26,755.11,-73.24,-990.72,239.26,0.47,2.24,-1.18,1.79
23361,762.23,757.20,749.68,751.20,755.08,-67.87,-981.93,229.00,-1.77,1.62,-1.72,2.27
23396,762.25,757.18,749.76,751.22,755.10,-71.29,-989.75,234.86,-1.63,-0.56,-1.07,1.74
23431,762.21,757.25,749.68,751.20,755.08,-73.24,-984.37,238.28,-1.08,-0.44,0.54,2.22
23466,762.15,757.20,749.66,751.25,755.07,-69.82,-995.12,250.49,0.51,-0.23,0.95,2.40
23502,762.15,757.24,749.75,751.21,755.09,-80.57,-991.21,246.58,-2.74,3.02,-0.13,1.77
23537,762.19,757.29,749.73,751.23,755.11,-88.38,-983.89,229.98,-0.46,1.18,-1.53,1.85
23573,762.19,757.19,749.73,751.21,755.08,-70.31,-1003.42,242.68,1.56,-1.21,-2.08,1.98
23608,762.23,757.34,749.75,751.19,755.13,-82.03,-984.86,243.16,-1.55,-0.05,0.41,1.65
23643,762.11,757.24,749.74,751.26,755.09,-78.61,-979.49,240.72,0.18,-0.96,-2.08,1.85
23679,762.15,757.36,749.79,751.19,755.12,-83.50,-991.70,239.26,0.93,-0.19,-3.23,1.33
23714,762.12,757.21,749.78,751.20,755.08,-65.92,-990.72,235.35,0.43,0.98,-0.81,1.57
23750,762.15,757.24,749.67,751.16,755.05,-78.61,-980.96,232.91,0.30,0.82,0.16,2.30
23791,762.11,757.22,749.81,751.24,755.09,-65.43,-999.51,239.26,-2.02,0.27,0.92,1.41
23827,762.12,757.19,749.71,751.24,755.06,-72.27,-993.16,233.89,-0.57,-0.98,1.76,2.14
23862,762.13,757.29,749.72,751.25,755.10,-75.20,-989.75,229.49,0.11,0.27,-0.72,1.94
23898,762.14,757.19,749.66,751.20,755.05,-76.17,-977.05,218.26,0.71,-1.89,-0.85,2.42
23933,762.12,757.24,749.69,751.28,755.08,-75.68,-992.68,232.42,-1.15,-0.01,0.57,2.17
23968,762.07,757.21,749.66,751.22,755.04,-73.24,-975.59,231.93,0.22,-0.12,-1.23,2.38
24004,762.04,757.20,749.73,751.22,755.05,-83.50,-988.77,232.42,-1.01,0.69,-0.40,1.96
24039,762.09,757.24,749.70,751.25,755.07,-71.29,-986.33,239.75,-0.48,-2.64,0.44,2.10
24074,762.15,757.24,749.68,751.30,755.09,-82.03,-981.93,229.49,-1.38,2.98,0.98,2.27
24110,762.23,757.20,749.70,751.29,755.10,-72.75,-997.56,240.72,-0.56,2.50,-2.24,2.16
24145,762.05,757.25,749.71,751.23,755.06,-75.68,-997.07,234.37,-0.31,0.41,-0.80,2.06
24180,762.04,757.20,749.67,751.19,755.03,-82.03,-995.61,232.91,-0.79,0.05,-0.76,2.34
24216,762.10,757.17,749.72,751.22,755.05,-73.24,-990.72,225.10,-0.24,-0.77,0.04,2.11
24251,762.13,757.21,749.64,751.16,755.04,-74.22,-985.84,240.23,-0.04,0.66,-1.44,2.52
24287,762.10,757.24,749.76,751.24,755.08,-74.71,-984.86,242.19,0.37,1.37,1.58,1.76
24322,762.08,757.23,749.72,751.21,755.06,-69.34,-992.68,236.33,-0.54,-0.27,-2.41,2.02
24357,762.08,757.25,749.77,751.22,755.08,-76.66,-986.33,243.16,-0.16,0.04,-0.29,1.61
24393,762.03,757.27,749.71,751.20,755.05,-81.05,-990.23,234.37,-1.53,0.34,0.37,2.02
24428,761.97,757.27,749.75,751.24,755.06,-76.17,-982.91,231.45,-1.46,0.27,-0.20,1.81
24463,762.01,757.22,749.72,751.23,755.04,-72.27,-991.70,234.86,-0.46,0.47,-2.62,2.06
24499,762.01,757.28,749.68,751.27,755.06,-72.75,-971.68,232.91,-0.26,-1.47,-2.19,2.22
24534,762.03,757.17,749.77,751.20,755.04,-72.27,-984.86,231.45,-1.22,1.58,-0.47,1.75
24570,762.00,757.19,749.68,751.19,755.02,-72.27,-993.16,225.10,-1.84,-3.26,0.71,2.34
24605,762.01,757.19,749.79,751.22,755.05,-82.52,-995.12,231.45,0.41,-1.07,0.82,1.59
24640,762.06,757.20,749.69,751.27,755.06,-80.08,-994.63,231.93,0.19,1.95,-2.69,2.25
24678,762.06,757.25,749.79,751.21,755.08,-73.24,-987.79,219.24,-1.12,-1.05,-0.95,1.49
24713,761.97,757.28,749.71,751.22,755.04,-79.59,-980.47,225.10,0.73,1.76,0.34,2.01
24748,761.99,757.27,749.75,751.21,755.05,-65.43,-983.40,233.89,-1.35,1.80,-0.53,1.77
24785,762.00,757.26,749.76,751.25,755.07,-88.38,-980.47,236.82,0.21,0.13,-1.24,1.72
24821,761.96,757.26,749.70,751.23,755.04,-69.34,-997.07,235.35,0.22,-4.11,-0.07,2.11
24856,761.93,757.24,749.67,751.21,755.01,-92.29,-994.63,230.96,-1.26,1.27,-2.68,2.33
24891,761.95,757.26,749.65,751.23,755.02,-76.17,-980.96,231.93,-0.11,-0.66,-0.41,2.42
24927,761.95,757.20,749.73,751.25,755.03,-73.73,-1000.00,227.05,-0.41,1.11,0.09,2.05
24964,761.94,757.19,749.72,751.20,755.01,-81.05,-995.61,243.65,-0.88,-1.83,-1.65,2.11
24999,761.98,757.24,749.79,751.26,755.07,-66.89,-988.28,230.96,0.17,-1.04,-1.97,1.56
25035,761.93,757.20,749.74,751.25,755.03,-82.52,-993.16,248.05,-0.25,2.36,-0.72,1.95
25070,761.96,757.20,749.68,751.21,755.01,-75.20,-999.51,231.93,-0.84,0.69,-0.58,2.37
25105,761.96,757.19,749.66,751.21,755.01,-69.82,-973.63,238.77,-1.40,2.24,1.42,2.45
25140,761.86,757.19,749.72,751.25,755.01,-76.17,-987.30,233.40,-1.36,-2.14,0.45,2.11
25175,761.82,757.15,749.68,751.26,754.98,-74.22,-993.16,236.82,-0.76,-1.22,0.05,2.45
25210,761.89,757.13,749.74,751.25,755.01,-78.61,-980.47,229.98,-0.69,-0.45,0.82,2.04
25246,761.85,757.22,749.72,751.18,754.99,-74.22,-985.84,243.16,-0.71,0.85,1.32,2.11
25281,761.87,757.25,749.75,751.28,755.04,-78.61,-984.37,234.86,0.21,1.53,-0.94,1.88
25317,761.82,757.29,749.69,751.28,755.02,-74.71,-985.84,240.23,-1.12,2.77,-0.44,2.20
25352,761.77,757.19,749.80,751.21,754.99,-74.22,-992.68,229.49,0.53,0.76,-0.54,1.61
25388,761.81,757.14,749.72,751.19,754.97,-82.03,-980.96,234.37,-3.01,0.64,0.76,2.18
25423,761.77,757.15,749.65,751.24,754.95,-68.85,-979.98,242.68,-1.37,0.78,-0.90,2.62
25459,761.77,757.23,749.62,751.21,754.96,-75.68,-990.23,231.93,0.18,2.79,-2.05,2.44
25494,761.74,757.19,749.71,751.23,754.97,-84.96,-984.86,232.91,-0.28,0.03,-0.85,2.23
25530,761.76,757.23,749.73,751.24,754.99,-73.24,-983.89,234.86,0.51,0.41,0.59,2.04
25565,761.74,757.17,749.70,751.22,754.96,-68.85,-980.47,228.03,0.31,-1.56,-1.09,2.33
25601,761.76,757.24,749.73,751.26,755.00,-69.82,-993.65,236.82,-1.96,-1.68,-1.46,2.03
25636,761.73,757.13,749.71,751.25,754.96,-76.17,-989.26,229.49,0.02,0.69,-0.07,2.28
25671,761.73,757.21,749.76,751.25,754.99,-74.22,-994.14,229.98,0.05,0.72,-1.68,1.91
25707,761.74,757.15,749.82,751.29,755.00,-84.47,-986.82,230.96,-0.88,-0.70,0.95,1.53
25742,761.68,757.22,749.78,751.21,754.97,-79.10,-985.35,228.03,-0.96,-0.60,-1.04,1.70
25784,761.66,757.14,749.70,751.24,754.94,-76.17,-971.19,234.37,2.34,1.08,3.59,2.37
25819,761.71,757.19,749.72,751.23,754.96,-70.80,-996.58,230.47,-0.08,-1.26,1.21,2.16
25854,761.72,757.16,749.74,751.26,754.97,-68.85,-987.79,235.84,0.08,-0.18,-0.44,2.07
25890,761.72,757.21,749.76,751.33,755.01,-79.59,-983.40,238.28,-1.31,-0.43,-2.30,1.92
25925,761.76,757.21,749.70,751.34,755.00,-71.78,-988.28,238.28,0.83,-0.82,-1.48,2.28
25961,761.75,757.21,749.77,751.23,754.99,-66.41,-988.77,230.47,-0.77,0.47,-1.25,1.76
25996,761.81,757.24,749.67,751.30,755.01,-78.61,-992.19,237.30,-1.82,0.97,0.44,2.37
26031,761.76,757.24,749.66,751.27,754.98,-68.85,-987.79,225.59,-0.95,-1.45,-3.49,2.44
26067,761.71,757.19,749.73,751.25,754.97,-72.27,-980.96,237.30,-0.65,-0.31,1.89,2.11
26102,761.77,757.18,749.73,751.22,754.98,-78.61,-1000.98,227.54,0.60,2.55,-1.02,2.12
26138,761.73,757.13,749.67,751.21,754.93,-84.47,-1001.95,230.47,-0.98,1.53,-1.10,2.58
26173,761.81,757.27,749.72,751.23,755.01,-72.27,-985.35,235.84,-0.15,2.28,0.27,2.04
26209,761.66,757.20,749.59,751.23,754.92,-68.85,-986.33,247.07,-1.50,0.69,-1.81,2.00
26244,761.77,757.25,749.75,751.16,754.99,-74.22,-974.61,231.45,0.21,1.31,-1.50,1.81
26279,761.71,757.18,749.70,751.28,754.97,-75.20,-969.73,236.33,-1.62,-0.36,-0.32,2.29
26315,761.72,757.21,749.73,751.30,754.99,-80.57,-993.16,239.75,-1.04,0.74,0.24,2.08
26350,761.73,757.23,749.69,751.27,754.98,-69.82,-992.19,231.45,1.53,1.21,-1.85,2.29
26386,761.75,757.20,749.69,751.25,754.97,-76.17,-995.12,250.98,0.56,-0.95,-1.56,2.31
26421,761.70,757.25,749.74,751.30,755.00,-82.03,-996.09,229.98,0.65,-1.90,0.01,1.95
26456,761.76,757.23,749.74,751.28,755.00,-67.38,-981.45,222.66,-0.87,1.89,-0.56,1.96
26492,761.77,757.23,749.76,751.23,755.00,-81.54,-995.61,228.03,-0.51,-1.38,2.15,1.86
26527,761.88,757.27,749.69,751.25,755.03,-73.73,-983.40,228.52,-1.01,0.08,1.01,2.19
26562,761.69,757.21,749.74,751.30,754.98,-67.38,-988.77,237.79,1.02,-1.92,0.36,2.04
26598,761.80,757.22,749.73,751.27,755.01,-77.15,-989.26,237.30,0.73,1.65,-2.56,2.04
26633,761.75,757.15,749.74,751.26,754.97,-62.50,-983.89,223.14,-0.21,0.74,-2.05,2.11
26670,761.83,757.13,749.65,751.36,754.99,-75.20,-998.54,240.72,0.26,-2.22,-2.59,1.85
26706,761.78,757.17,749.72,751.30,754.99,-77.64,-981.93,234.86,-1.55,-1.13,-1.71,2.19
26745,761.75,757.16,749.76,751.25,754.98,-81.05,-984.37,233.89,-2.00,-1.10,0.03,1.95
26780,761.69,757.21,749.72,751.27,754.97,-72.27,-985.84,227.54,-0.95,-1.53,-0.66,2.14
26818,761.61,757.27,749.77,751.24,754.97,-80.57,-994.63,221.19,0.24,1.37,0.56,1.77
26853,761.74,757.20,749.77,751.29,755.00,-61.52,-994.14,229.49,-2.31,1.40,0.74,1.83
26888,761.73,757.19,749.70,751.35,754.99,-67.87,-987.30,219.73,1.70,-0.35,-1.18,2.32
26924,761.69,757.22,749.74,751.31,754.99,-76.17,-990.72,241.21,0.60,-0.99,-0.18,2.04
26959,761.74,757.20,749.68,751.25,754.97,-76.66,-986.33,236.33,-0.27,0.56,-2.58,2.37
26994,761.67,757.19,749.70,751.22,754.95,-81.05,-991.21,226.07,-2.27,0.53,-0.16,2.31
27030,761.69,757.19,749.73,751.29,754.98,-70.31,-993.65,227.54,-0.47,1.36,-1.19,2.09
27065,761.73,757.25,749.72,751.28,755.00,-70.80,-1000.98,229.00,-2.32,-1.69,-1.33,2.10
27100,761.77,757.25,749.72,751.32,755.01,-87.89,-975.10,226.07,-0.83,-0.14,0.27,2.11
27136,761.72,757.25,749.74,751.33,755.01,-80.08,-992.19,240.23,0.79,3.26,0.93,1.98
27171,761.73,757.19,749.74,751.25,754.98,-76.66,-992.19,232.91,-0.76,1.85,0.25,2.06
27207,761.75,757.32,749.73,751.26,755.01,-73.73,-990.72,212.40,0.01,0.73,-0.02,1.91
27242,761.69,757.29,749.83,751.24,755.01,-91.31,-983.40,236.33,-1.49,-1.56,0.07,1.26
27278,761.68,757.26,749.76,751.30,755.00,-77.15,-981.93,229.98,0.38,0.02,0.34,1.85
27313,761.69,757.25,749.83,751.30,755.02,-76.17,-981.93,235.35,-0.53,1.79,-0.17,1.40
27349,761.74,757.19,749.80,751.38,755.03,-79.10,-995.12,236.82,-0.68,-1.50,-1.07,1.66
27385,761.69,757.23,749.67,751.25,754.96,-65.92,-987.30,235.84,-0.82,0.79,-0.99,2.42
27421,761.71,757.34,749.73,751.32,755.03,-71.78,-996.09,237.79,-1.09,0.61,-0.21,1.90
27458,761.69,757.28,749.72,751.25,754.99,-69.82,-986.33,229.98,-0.51,-0.44,-2.31,2.04
27494,761.71,757.27,749.76,751.19,754.98,-79.59,-993.16,242.19,-0.85,-1.31,1.02,1.77
27529,761.72,757.27,749.69,751.29,754.99,-88.87,-990.72,224.61,-0.95,0.72,0.63,2.23
27564,761.70,757.28,749.70,751.25,754.98,-69.82,-989.26,230.47,-0.30,2.52,-2.93,2.17
27600,761.64,757.36,749.72,751.26,754.99,-64.45,-980.47,230.47,-0.60,2.65,-0.25,1.99
27635,761.67,757.31,749.74,751.29,755.00,-77.64,-982.42,232.42,-0.88,0.34,-1.22,1.89
27670,761.58,757.35,749.73,751.28,754.99,-68.85,-974.61,233.40,0.08,1.09,-0.18,1.95
27706,761.68,757.30,749.72,751.30,755.00,-67.87,-987.79,226.56,-0.54,1.20,1.08,2.05
27744,761.71,757.40,749.66,751.24,755.01,-81.05,-992.19,221.68,0.94,0.49,1.62,2.23
27781,761.66,757.37,749.77,751.33,755.03,-80.57,-993.65,223.63,-2.09,1.60,0.52,1.62
27816,761.59,757.23,749.72,751.40,754.99,-81.05,-979.98,229.98,-0.59,0.73,0.82,2.19
27851,761.66,757.28,749.75,751.23,754.98,-75.20,-992.68,234.86,-1.02,-3.56,2.64,1.86
27887,761.67,757.20,749.70,751.33,754.98,-73.73,-992.68,241.70,-0.45,-0.17,1.18,2.29
27922,761.66,757.21,749.76,751.32,754.99,-64.45,-986.82,228.03,-0.29,-0.94,-1.48,1.93
27957,761.64,757.27,749.72,751.28,754.98,-77.64,-989.75,235.84,-2.75,2.48,-0.57,2.07
27992,761.66,757.22,749.68,751.34,754.97,-66.89,-979.49,245.61,-0.38,0.38,-0.27,2.40
28028,761.60,757.24,749.75,751.34,754.98,-78.61,-989.75,230.96,0.19,0.25,-2.06,1.96
28063,761.61,757.27,749.72,751.33,754.98,-82.03,-989.75,238.28,0.69,1.53,0.28,2.09
28098,761.61,757.30,749.68,751.29,754.97,-75.20,-990.23,228.52,-1.42,1.63,0.53,2.32
28133,761.63,757.17,749.70,751.31,754.95,-71.78,-1000.49,235.84,0.15,0.36,-1.31,2.33
28168,761.69,757.19,749.72,751.30,754.97,-82.52,-987.30,236.33,-1.65,1.46,0.26,2.18
28203,761.68,757.25,749.78,751.28,755.00,-69.34,-980.47,238.28,-0.08,0.15,-2.06,1.68
28238,761.60,757.15,749.75,751.25,754.94,-86.43,-992.68,240.72,0.24,1.50,-0.54,2.03
28273,761.63,757.15,749.75,751.25,754.95,-75.20,-982.42,226.07,1.47,-0.67,-2.56,2.05
28309,761.60,757.13,749.75,751.34,754.96,-81.54,-1004.88,233.40,0.77,-0.44,-0.09,2.09
28346,761.65,757.17,749.83,751.29,754.99,-79.10,-986.82,232.42,-0.78,0.93,-3.51,1.45
28381,761.70,757.24,749.71,751.33,754.99,-74.22,-984.86,239.75,-0.81,1.63,1.48,2.21
28416,761.66,757.22,749.78,751.27,754.98,-81.05,-997.07,234.86,0.42,-0.22,-0.79,1.72
28451,761.66,757.27,749.78,751.28,755.00,-84.96,-992.19,230.47,0.73,0.85,0.98,1.69
28486,761.68,757.32,749.79,751.30,755.02,-81.54,-984.37,248.54,-1.01,-0.52,1.23,1.54
28521,761.60,757.23,749.73,751.27,754.96,-87.40,-997.07,228.03,0.56,2.82,-1.50,2.10
28556,761.67,757.16,749.67,751.32,754.96,-71.29,-998.54,235.35,-0.18,-0.60,-0.05,2.53
28591,761.68,757.24,749.62,751.28,754.96,-83.98,-985.35,231.93,-1.41,-1.27,-0.50,1.91
28626,761.62,757.24,749.74,751.29,754.98,-69.82,-990.23,221.68,-1.28,-2.77,-0.72,1.99
28661,761.62,757.21,749.71,751.29,754.96,-76.17,-989.26,239.26,-1.23,0.55,0.07,2.25
28697,761.66,757.17,749.65,751.33,754.95,-81.05,-990.72,225.59,-0.88,0.38,-3.13,2.11
28737,761.63,757.17,749.76,751.31,754.97,-71.29,-986.33,231.93,-2.79,2.71,0.34,1.97
28772,761.70,757.17,749.78,751.28,754.98,-76.17,-992.19,223.63,-0.87,0.60,-2.54,1.81
28808,761.65,757.29,749.77,751.33,755.01,-70.80,-991.21,242.68,0.21,1.06,-0.90,1.78
28844,761.66,757.32,749.80,751.32,755.03,-74.71,-982.91,234.86,-0.53,-1.59,0.68,1.49
28879,761.67,757.37,749.71,751.29,755.01,-72.27,-983.89,229.98,-0.44,0.37,-2.06,2.00
28914,761.64,757.24,749.73,751.27,754.97,-79.59,-995.12,235.35,-1.30,2.24,-1.13,2.07
28950,761.68,757.21,749.74,751.29,754.98,-78.12,-985.84,227.05,-0.07,-0.51,-0.18,2.04
28985,761.61,757.22,749.79,751.28,754.98,-67.87,-987.30,230.96,1.05,-0.87,-0.05,1.70
29021,761.66,757.33,749.75,751.32,755.02,-75.68,-984.86,241.21,-0.50,1.47,-2.31,1.80
29056,761.71,757.25,749.75,751.25,754.99,-71.29,-979.00,238.28,-0.29,0.95,-1.05,1.92
29091,761.75,757.34,749.75,751.35,755.05,-72.75,-984.86,242.68,-0.36,-0.28,-1.73,1.79
29127,761.73,757.27,749.73,751.35,755.02,-80.08,-981.45,232.91,0.31,-0.37,-1.60,1.99
29162,761.70,757.28,749.66,751.28,754.98,-70.31,-981.45,237.79,0.48,1.34,0.47,2.44
29198,761.65,757.24,749.70,751.27,754.96,-72.75,-985.84,226.07,-1.95,0.07,-0.44,2.25
29233,761.66,757.30,749.71,751.31,755.00,-67.38,-990.72,230.96,-0.18,-0.04,0.45,2.11
29268,761.65,757.32,749.73,751.31,755.00,-77.64,-989.26,235.35,-1.21,-1.56,0.08,1.96
29304,761.65,757.25,749.75,751.29,754.99,-78.12,-988.28,234.86,-0.91,0.55,1.85,1.93
29339,761.66,757.33,749.78,751.25,755.01,-83.50,-996.09,235.84,1.21,-0.28,-1.65,1.58
29375,761.75,757.25,749.76,751.32,755.02,-80.08,-991.21,238.28,-1.14,-0.62,0.62,1.84
29410,761.76,757.23,749.68,751.28,754.99,-77.15,-988.28,235.35,0.02,-1.70,0.90,2.37
29445,761.79,757.30,749.68,751.32,755.02,-70.31,-977.54,237.79,0.44,-0.31,-0.85,2.23
29481,761.70,757.26,749.75,751.32,755.01,-84.96,-1000.98,231.93,-0.66,-1.63,0.17,1.93
29516,761.72,757.35,749.79,751.26,755.03,-72.75,-976.56,218.26,0.63,-0.98,0.81,1.44
29552,761.70,757.32,749.78,751.29,755.02,-76.66,-984.37,248.05,0.34,-0.47,1.53,1.59
29587,761.76,757.37,749.69,751.32,755.04,-83.98,-992.68,231.93,-0.40,2.47,1.92,2.11
29622,761.68,757.39,749.80,751.26,755.04,-78.12,-995.12,235.84,-0.44,0.14,1.65,1.33
29658,761.76,757.31,749.75,751.30,755.03,-69.82,-987.79,228.03,-0.45,-0.82,0.23,1.83
29693,761.79,757.32,749.74,751.37,755.05,-72.75,-993.65,228.52,-0.61,-1.28,-2.14,1.88
29732,761.79,757.32,749.75,751.28,755.04,-76.17,-991.21,237.79,-0.56,2.11,0.69,1.76
29770,761.75,757.36,749.75,751.32,755.04,-71.78,-990.23,233.89,-1.10,-0.29,-1.81,1.78
29805,761.79,757.31,749.74,751.35,755.05,-81.54,-985.35,235.35,0.27,0.81,-1.39,1.86
29841,761.84,757.32,749.78,751.34,755.07,-79.10,-985.35,230.47,-1.24,-0.26,-0.88,1.62
29876,761.88,757.31,749.73,751.30,755.05,-70.80,-994.63,232.42,-1.30,2.00,-1.98,1.93
29911,761.85,757.37,749.76,751.30,755.07,-66.41,-987.79,237.30,-0.49,0.37,-1.96,1.67
29946,761.88,757.35,749.71,751.31,755.06,-78.12,-1000.00,231.93,0.60,0.85,0.78,1.96
29981,761.83,757.41,749.73,751.31,755.07,-91.80,-993.16,243.16,0.53,-0.94,-2.53,1.79
30016,761.84,757.43,749.71,751.35,755.08,-69.82,-971.68,228.52,2.11,3.53,-1.25,1.88
30054,761.84,757.39,749.73,751.31,755.06,-70.80,-994.63,232.91,0.27,1.76,-2.69,1.84
30089,761.83,757.35,749.68,751.33,755.05,-81.05,-994.14,241.21,-0.01,-1.93,0.41,2.06
30124,761.81,757.39,749.74,751.38,755.08,-75.68,-1001.95,231.93,-0.08,0.32,0.45,1.77
30159,761.84,757.34,749.67,751.32,755.04,-74.22,-992.19,231.93,-2.53,0.08,4.53,2.10
30194,761.81,757.35,749.78,751.28,755.06,-73.24,-987.79,242.19,1.02,-2.37,-2.31,1.54
30229,761.78,757.33,749.71,751.28,755.03,-86.43,-999.51,240.23,-1.37,-2.19,-1.55,2.03
30265,761.77,757.34,749.72,751.33,755.04,-71.78,-994.14,234.86,-0.32,0.18,-3.55,1.94
30300,761.82,757.28,749.77,751.37,755.06,-89.84,-991.21,234.37,-1.08,-0.22,-0.62,1.71
30336,761.81,757.27,749.76,751.36,755.05,-67.87,-987.30,229.49,0.57,-0.04,-2.63,1.78
30371,761.79,757.36,749.80,751.38,755.08,-69.34,-991.70,247.07,-1.28,-0.37,-0.04,1.45
30406,761.82,757.35,749.75,751.33,755.07,-75.68,-981.45,225.10,-0.45,-0.24,0.44,1.73
30442,761.74,757.37,749.77,751.34,755.05,-73.24,-999.02,234.37,-1.61,0.47,0.97,1.64
30477,761.77,757.34,749.77,751.26,755.04,-70.31,-985.35,228.52,-1.31,-0.22,-1.21,1.65
30513,761.79,757.33,749.77,751.32,755.05,-66.41,-993.65,224.61,0.75,0.18,1.25,1.63
30548,761.74,757.30,749.74,751.36,755.03,-73.73,-987.30,230.96,0.13,4.05,-1.51,1.92
30583,761.86,757.39,749.79,751.31,755.09,-78.61,-1004.39,229.00,-0.81,-0.16,-0.11,1.46
30619,761.83,757.35,749.76,751.31,755.06,-80.57,-984.86,234.86,0.43,-0.05,1.15,1.67
30654,761.73,757.38,749.71,751.34,755.04,-74.71,-990.23,248.05,0.76,-0.38,-1.66,2.00
30690,761.76,757.29,749.71,751.32,755.02,-76.66,-992.68,234.37,-0.95,2.05,-0.64,2.12
30731,761.76,757.30,749.76,751.30,755.03,-83.01,-991.70,233.40,0.98,1.25,-1.71,1.74
30767,761.73,757.34,749.69,751.30,755.01,-71.78,-985.84,237.30,0.46,-1.08,-0.92,2.15
30802,761.71,757.32,749.76,751.30,755.02,-83.50,-994.63,238.77,-0.71,-2.24,-2.73,1.77
30838,761.72,757.32,749.74,751.33,755.03,-64.94,-968.75,226.07,-0.63,-0.94,0.86,1.86
30876,761.74,757.30,749.75,751.28,755.02,-66.41,-989.75,230.47,0.71,1.20,1.61,1.82
30912,761.77,757.31,749.75,751.30,755.03,-73.73,-985.35,225.59,-0.96,1.53,-0.62,1.83
30948,761.73,757.36,749.79,751.31,755.05,-72.75,-980.96,230.96,0.64,-0.34,-1.08,1.52
30983,761.72,757.43,749.75,751.33,755.06,-85.94,-989.26,236.82,0.79,-1.35,-2.52,1.67
31019,761.73,757.38,749.73,751.36,755.05,-79.59,-987.79,235.35,1.02,-0.87,1.12,1.89
31054,761.75,757.38,749.77,751.34,755.06,-66.89,-996.09,241.70,-0.07,3.08,-1.02,1.57
31090,761.69,757.27,749.76,751.31,755.01,-79.10,-986.33,242.68,-2.92,-0.25,-1.37,1.83
31125,761.78,757.41,749.75,751.35,755.07,-69.82,-981.45,232.91,-0.74,-0.65,0.49,1.69
31160,761.65,757.33,749.78,751.29,755.01,-78.61,-990.23,227.54,-1.28,-2.51,0.50,1.61
31196,761.70,757.33,749.72,751.33,755.02,-67.38,-985.84,229.98,0.80,-0.38,-1.07,1.98
31231,761.68,757.31,749.68,751.32,755.00,-83.50,-989.26,233.89,-0.51,-0.63,3.00,2.26
31267,761.74,757.27,749.72,751.32,755.02,-61.52,-981.93,219.24,-1.34,-1.08,-1.64,2.04
31302,761.71,757.31,749.78,751.36,755.04,-77.64,-991.70,226.56,0.21,0.39,-0.77,1.67
31338,761.61,757.37,749.75,751.31,755.01,-83.01,-983.89,233.40,0.08,-0.61,-0.12,1.76
31373,761.61,757.27,749.79,751.29,754.99,-79.10,-997.07,236.82,0.62,0.24,-1.32,1.61
31409,761.69,757.34,749.80,751.33,755.04,-81.54,-982.42,223.63,-1.37,0.54,-1.46,1.45
31444,761.72,757.34,749.72,751.28,755.02,-80.08,-1001.46,228.03,-0.64,1.61,-3.50,1.98
31480,761.66,757.23,749.74,751.22,754.96,-75.20,-996.09,233.40,0.79,1.00,-0.49,1.98
31515,761.66,757.33,749.79,751.28,755.02,-83.50,-992.19,233.40,-1.05,-0.89,-0.83,1.53
31550,761.65,757.24,749.72,751.26,754.97,-69.82,-988.77,233.89,0.23,1.90,-0.11,2.09
31585,761.65,757.26,749.82,751.32,755.01,-64.45,-994.63,238.28,-0.26,-3.04,-0.13,1.43
31621,761.69,757.27,749.74,751.27,754.99,-75.68,-991.21,234.37,-0.42,2.98,-2.05,1.95
31656,761.66,757.28,749.80,751.33,755.02,-76.17,-979.49,233.40,-0.37,-1.21,-2.11,1.58
31692,761.66,757.24,749.70,751.24,754.96,-81.05,-990.72,245.12,0.13,0.61,-0.60,2.24
31729,761.63,757.40,749.74,751.31,755.02,-72.27,-984.37,215.33,-1.37,0.60,-0.56,1.82
31769,761.70,757.30,749.78,751.31,755.02,-69.82,-991.21,220.21,-1.21,0.65,-0.03,1.65
31804,761.63,757.33,749.76,751.38,755.03,-81.05,-989.26,239.75,-0.34,-0.24,-1.97,1.75
31840,761.67,757.37,749.78,751.34,755.04,-77.15,-992.68,233.40,-0.69,1.50,-1.27,1.55
31875,761.75,757.32,749.75,751.30,755.03,-82.52,-999.51,219.73,0.11,-0.67,1.61,1.81
31910,761.72,757.31,749.74,751.28,755.01,-83.50,-985.35,235.84,1.44,-0.21,-1.27,1.89
31945,761.67,757.38,749.78,751.33,755.04,-80.57,-982.91,229.49,0.58,-2.17,-1.19,1.55
31980,761.66,757.34,749.78,751.32,755.03,-69.34,-997.56,239.26,-0.92,0.97,2.28,1.61
32016,761.68,757.32,749.79,751.35,755.04,-72.27,-980.47,254.88,0.89,2.15,-0.54,1.58
32051,761.69,757.37,749.73,751.38,755.04,-76.66,-989.26,231.45,-0.10,0.48,-0.31,1.90
32086,761.70,757.33,749.71,751.31,755.01,-79.10,-992.68,237.79,-0.26,3.50,-1.04,2.07
32122,761.63,757.33,749.67,751.35,755.00,-82.52,-993.65,226.07,-0.36,-0.48,-0.75,1.89
32157,761.61,757.22,749.73,751.26,754.96,-84.96,-990.23,238.28,-0.37,3.71,0.72,2.07
32193,761.64,757.27,749.71,751.36,755.00,-98.14,-986.82,251.95,-0.85,-0.26,-0.65,2.13
32228,761.63,757.31,749.81,751.30,755.01,-79.10,-989.75,238.77,-0.62,0.60,-1.11,1.47
32263,761.62,757.31,749.74,751.32,755.00,-70.31,-986.33,227.05,-1.42,1.18,-1.75,1.91
32299,761.61,757.36,749.75,751.26,754.99,-73.73,-982.42,237.79,-0.11,0.33,2.32,1.77
32334,761.58,757.26,749.77,751.30,754.98,-78.12,-993.65,226.07,0.95,2.63,-0.74,1.76
32370,761.57,757.35,749.73,751.30,754.99,-73.24,-997.07,234.37,-1.40,-1.66,-0.71,1.93
32405,761.67,757.37,749.78,751.24,755.02,-67.87,-996.58,236.82,-0.18,1.67,0.19,1.53
32441,761.70,757.36,749.78,751.28,755.03,-86.43,-998.54,235.35,-1.43,1.68,0.08,1.57
32476,761.56,757.35,749.82,751.33,755.01,-80.57,-997.56,228.52,-3.57,1.66,1.13,1.37
32511,761.58,757.43,749.74,751.29,755.01,-79.59,-986.33,241.70,1.89,0.39,-3.53,1.74
32547,761.69,757.32,749.75,751.33,755.02,-77.64,-984.86,234.86,-1.02,0.12,-1.45,1.84
32582,761.59,757.34,749.80,751.29,755.01,-78.12,-982.91,238.28,-0.34,0.56,-2.24,1.47
32618,761.59,757.37,749.76,751.35,755.02,-81.05,-999.02,226.07,-0.45,-0.72,-0.21,1.74
32653,761.63,757.42,749.77,751.34,755.04,-73.73,-977.54,229.98,-0.47,-0.43,1.12,1.57
32688,761.64,757.32,749.78,751.35,755.02,-70.31,-981.93,242.19,-0.62,2.10,-1.49,1.66
32730,761.65,757.39,749.80,751.37,755.05,-80.57,-988.77,241.70,0.63,0.18,-0.48,1.43
32765,761.62,757.35,749.75,751.38,755.03,-77.15,-978.52,246.09,-3.16,0.53,-1.22,1.80
32801,761.56,757.39,749.78,751.36,755.02,-85.45,-1000.49,223.14,-0.85,0.15,-0.31,1.59
32836,761.58,757.27,749.78,751.30,754.98,-85.45,-977.54,229.49,-2.34,-1.50,2.36,1.68
32872,761.68,757.24,749.71,751.33,754.99,-66.89,-979.49,227.05,-1.34,2.08,-0.01,2.17
32908,761.55,757.36,749.77,751.40,755.02,-77.15,-990.72,221.68,0.24,1.13,-1.89,1.67
32944,761.59,757.37,749.77,751.29,755.01,-67.87,-1000.00,231.93,-0.40,0.07,-0.18,1.61
32979,761.58,757.39,749.78,751.34,755.02,-73.73,-999.51,238.77,0.80,0.73,-0.40,1.56
33015,761.59,757.42,749.77,751.37,755.04,-74.22,-995.61,232.91,-1.07,2.08,-1.15,1.60
33050,761.58,757.39,749.71,751.31,755.00,-65.43,-995.12,221.19,-0.15,2.40,0.45,1.99
33085,761.61,757.43,749.76,751.37,755.04,-70.31,-983.89,224.61,-1.51,0.55,-1.37,1.65
33121,761.53,757.33,749.73,751.34,754.98,-65.43,-1000.98,228.52,-1.24,2.04,0.35,1.98
33156,761.59,757.36,749.80,751.31,755.01,-82.52,-984.37,230.47,-1.47,-0.80,-0.23,1.43
33192,761.51,757.35,749.75,751.37,755.00,-72.27,-994.14,235.35,-1.15,0.92,-0.16,1.83
33227,761.55,757.32,749.71,751.34,754.98,-78.12,-1002.44,225.10,0.28,0.20,-1.00,2.11
33262,761.59,757.36,749.72,751.32,755.00,-75.20,-994.63,236.33,-2.56,1.96,0.32,2.00
33298,761.57,757.33,749.77,751.39,755.02,-73.24,-990.72,229.00,-1.80,-0.09,-0.72,1.72
33333,761.61,757.36,749.74,751.30,755.00,-69.82,-985.84,228.52,-0.49,-1.24,-0.73,1.85
33368,761.61,757.32,749.82,751.37,755.03,-85.45,-988.77,230.96,-1.60,0.21,-0.18,1.37
33403,761.58,757.40,749.73,751.39,755.03,-87.40,-986.82,234.37,-0.11,-0.97,-1.69,1.90
33442,761.56,757.40,749.75,751.34,755.01,-83.98,-980.47,242.68,0.22,0.21,0.02,1.74
33477,761.63,757.35,749.68,751.32,755.00,-85.94,-992.19,227.05,0.01,2.35,-0.20,2.25
33513,761.57,757.37,749.78,751.39,755.03,-78.12,-989.75,238.28,-1.37,-1.11,-1.90,1.60
33548,761.51,757.35,749.78,751.31,754.99,-67.87,-1000.00,227.05,-0.57,0.53,-0.84,1.62
33583,761.56,757.37,749.77,751.34,755.01,-79.59,-979.49,231.93,0.82,0.63,1.14,1.67
33618,761.56,757.34,749.81,751.39,755.03,-72.27,-978.52,220.21,-0.63,0.19,0.94,1.47
33654,761.55,757.34,749.89,751.35,755.03,-73.73,-993.65,241.21,-0.20,0.01,-1.88,0.64
33693,761.57,757.39,749.77,751.30,755.01,-70.80,-1008.79,230.96,0.48,0.59,-0.67,1.65
33728,761.57,757.39,749.73,751.34,755.01,-77.15,-980.47,227.05,-1.18,0.35,-3.15,1.87
33763,761.62,757.41,749.81,751.36,755.05,-69.82,-983.89,231.93,-0.55,-1.89,0.67,1.31
33799,761.59,757.40,749.78,751.38,755.04,-83.50,-991.21,230.96,-1.14,-0.91,-1.62,1.60
33835,761.59,757.42,749.77,751.37,755.04,-75.68,-983.40,220.21,0.60,0.67,-0.92,1.59
33870,761.60,757.40,749.76,751.41,755.04,-86.91,-982.91,218.75,-0.18,3.00,-1.66,1.67
33905,761.61,757.29,749.78,751.33,755.00,-76.66,-980.47,225.59,0.95,0.31,1.11,1.74
33941,761.61,757.32,749.78,751.40,755.03,-62.01,-990.23,227.54,-0.64,1.22,-2.05,1.65
33982,761.55,757.30,749.78,751.29,754.98,-87.89,-983.40,225.10,-0.61,-0.24,-0.94,1.69
34017,761.58,757.32,749.81,751.27,755.00,-85.94,-981.93,230.96,-0.70,0.63,-0.31,1.44
34052,761.63,757.31,749.80,751.39,755.04,-75.20,-985.35,234.37,1.71,0.02,0.48,1.55
34088,761.60,757.34,749.81,751.23,754.99,-76.17,-980.96,231.45,-0.63,0.34,-0.88,1.40
34123,761.57,757.38,749.76,751.33,755.01,-79.10,-988.77,232.91,0.02,-0.62,-0.63,1.71
34158,761.59,757.37,749.69,751.35,755.00,-80.08,-997.07,231.45,1.11,2.38,1.00,2.17
34193,761.65,757.35,749.73,751.40,755.03,-69.34,-990.23,233.89,-1.31,0.35,-0.74,1.97
34229,761.67,757.38,749.74,751.33,755.03,-77.15,-990.23,227.05,-1.26,2.73,-0.66,1.82
34263,761.61,757.39,749.75,751.39,755.03,-89.36,-989.26,237.79,1.46,0.79,-2.09,1.80
34299,761.63,757.36,749.84,751.38,755.05,-72.75,-990.72,227.05,0.75,0.43,3.35,1.19
34334,761.63,757.38,749.86,751.31,755.04,-83.01,-1001.46,245.61,-0.06,0.17,-0.72,0.98
34369,761.63,757.47,749.80,751.39,755.07,-77.64,-999.51,237.79,-2.47,-1.13,0.76,1.37
34404,761.61,757.37,749.75,751.39,755.03,-78.61,-996.58,229.49,-1.84,0.97,-1.12,1.78
34440,761.66,757.39,749.80,751.34,755.05,-72.27,-986.82,234.37,-1.15,-0.84,1.15,1.37
34474,761.64,757.42,749.77,751.39,755.06,-60.06,-989.26,225.59,0.73,0.85,-1.36,1.62
34510,761.65,757.39,749.73,751.35,755.03,-85.45,-998.05,237.79,0.80,-0.82,0.01,1.88
34545,761.58,757.39,749.85,751.37,755.04,-83.98,-982.91,227.05,0.43,-1.56,-1.50,1.11
34580,761.63,757.40,749.81,751.32,755.04,-77.64,-987.79,221.19,-0.37,1.47,-1.61,1.32
34615,761.67,757.40,749.79,751.37,755.06,-66.41,-995.61,223.63,0.09,-0.76,0.00,1.45
34651,761.65,757.37,749.83,751.39,755.06,-77.64,-991.21,229.49,-0.44,-0.02,-0.78,1.27
34686,761.66,757.42,749.79,751.40,755.07,-72.75,-996.09,244.14,0.37,0.27,-0.60,1.43
34726,761.68,757.43,749.78,751.38,755.07,-83.50,-997.07,224.12,0.33,2.38,0.03,1.48
34762,761.64,757.39,749.75,751.45,755.06,-72.27,-998.05,217.29,-0.63,-0.04,-1.22,1.77
34797,761.60,757.36,749.83,751.35,755.04,-80.08,-977.54,231.45,-2.69,-2.05,-0.60,1.24
34832,761.56,757.39,749.78,751.33,755.02,-84.47,-990.23,232.42,0.09,-1.17,2.53,1.54
34868,761.56,757.37,749.76,751.44,755.03,-83.50,-1000.98,235.35,-0.56,1.37,0.80,1.77
34903,761.64,757.41,749.77,751.37,755.05,-77.64,-988.28,232.91,-0.25,-1.50,-1.58,1.60
34938,761.54,757.42,749.75,751.37,755.02,-74.71,-992.19,243.16,-1.82,0.81,-0.79,1.71
34974,761.56,757.35,749.75,751.40,755.01,-70.31,-993.65,238.77,-0.34,-0.24,0.51,1.82
35009,761.61,757.44,749.80,751.40,755.06,-73.73,-981.45,230.96,-1.21,0.92,0.11,1.41
35044,761.59,757.41,749.86,751.37,755.06,-69.82,-985.84,222.66,-1.13,0.79,-2.27,0.98
35079,761.58,757.39,749.77,751.36,755.03,-74.22,-986.33,231.45,-1.95,-2.27,-0.32,1.64
35115,761.54,757.39,749.86,751.39,755.04,-65.92,-990.72,233.89,-1.27,-0.63,-1.69,1.00
35152,761.49,757.36,749.78,751.39,755.00,-75.68,-993.16,240.23,0.47,-2.23,0.11,1.64
35187,761.53,757.39,749.78,751.37,755.02,-70.31,-983.40,228.03,0.15,-0.12,-0.26,1.60
35222,761.62,757.41,749.83,751.35,755.05,-68.85,-997.56,229.00,-0.24,2.19,-0.40,1.15
35257,761.58,757.34,749.80,751.42,755.04,-70.80,-991.70,226.56,-0.63,-0.78,0.86,1.55
35293,761.60,757.38,749.76,751.38,755.03,-62.99,-982.42,225.59,-0.02,1.79,0.21,1.70
35328,761.64,757.42,749.76,751.34,755.04,-62.50,-1000.49,247.07,0.85,1.66,1.52,1.65
35363,761.60,757.38,749.78,751.37,755.03,-76.17,-986.33,235.35,0.07,-0.89,-0.76,1.59
35398,761.61,757.43,749.76,751.37,755.04,-63.96,-991.21,238.77,0.36,-0.15,0.09,1.63
35434,761.62,757.39,749.77,751.33,755.03,-59.08,-989.75,236.33,-3.50,0.55,1.02,1.61
35469,761.58,757.43,749.83,751.41,755.06,-72.27,-1003.42,232.91,-2.37,-0.53,-2.27,1.18
35504,761.60,757.47,749.87,751.37,755.08,-72.75,-993.65,239.26,-1.90,1.23,0.87,0.79
35540,761.62,757.40,749.85,751.38,755.06,-71.78,-988.28,235.84,-1.47,-0.43,-0.86,1.06
35575,761.62,757.35,749.87,751.40,755.06,-76.17,-982.91,224.61,1.67,1.13,1.50,1.02
35611,761.57,757.36,749.81,751.37,755.03,-66.89,-989.75,234.37,0.19,-0.09,-3.26,1.39
35646,761.59,757.37,749.82,751.40,755.04,-76.17,-994.14,233.89,-0.11,1.64,-0.34,1.38
35686,761.57,757.43,749.79,751.40,755.05,-92.29,-979.00,238.28,0.06,-4.32,-1.87,1.46
35721,761.55,757.34,749.83,751.42,755.04,-74.22,-1004.39,233.40,-0.85,-0.93,-0.27,1.33
35757,761.58,757.44,749.81,751.46,755.07,-74.22,-984.37,241.21,-2.66,-0.66,-0.57,1.35
35792,761.64,757.36,749.78,751.38,755.04,-76.66,-972.66,232.91,0.08,-0.20,-2.44,1.60
35827,761.53,757.38,749.84,751.46,755.05,-79.10,-993.65,223.14,-0.48,0.59,-2.24,1.22
35862,761.54,757.49,749.79,751.45,755.07,-77.15,-983.89,230.96,-0.92,-0.44,-0.30,1.39
35898,761.59,757.43,749.73,751.36,755.03,-89.36,-993.65,239.26,-0.79,0.44,0.29,1.82
35933,761.49,757.47,749.82,751.35,755.03,-83.50,-983.40,230.47,-2.32,-0.03,0.70,1.21
35968,761.55,757.48,749.82,751.43,755.07,-59.57,-976.07,236.82,1.17,-0.38,-2.69,1.22
36004,761.52,757.38,749.79,751.46,755.04,-78.12,-985.35,235.35,-0.98,1.14,-0.78,1.57
36039,761.57,757.44,749.82,751.42,755.06,-68.36,-986.82,229.00,0.87,1.03,-3.77,1.23
36074,761.62,757.51,749.82,751.35,755.07,-73.73,-999.51,225.59,-1.77,1.31,-1.43,1.12
36110,761.64,757.49,749.82,751.42,755.09,-71.29,-997.56,237.79,-0.20,0.89,1.38,1.15
36145,761.67,757.44,749.75,751.43,755.07,-62.01,-996.58,242.19,-1.46,0.13,2.25,1.69
36181,761.61,757.43,749.77,751.46,755.07,-80.08,-987.30,230.47,-1.15,1.41,0.64,1.62
36216,761.63,757.45,749.83,751.45,755.09,-81.54,-982.91,224.12,0.52,-2.10,-0.71,1.19
36251,761.66,757.52,749.80,751.45,755.11,-72.75,-992.68,218.26,-0.29,0.88,-1.30,1.31
36287,761.62,757.44,749.86,751.48,755.10,-79.59,-989.75,234.37,-0.31,-0.10,-0.31,1.02
36322,761.59,757.50,749.85,751.45,755.10,-67.87,-991.21,233.40,0.44,0.74,-0.55,0.93
36357,761.64,757.54,749.85,751.46,755.12,-64.94,-984.86,237.30,1.16,1.92,-0.45,0.90
36393,761.62,757.50,749.83,751.41,755.09,-78.12,-997.56,229.49,-1.52,0.28,0.47,1.09
36428,761.66,757.48,749.83,751.41,755.10,-68.36,-998.54,232.42,0.95,2.73,-0.44,1.10
36464,761.65,757.48,749.83,751.38,755.09,-77.15,-991.21,237.79,0.00,0.21,0.00,1.06
36499,761.69,757.39,749.83,751.45,755.09,-66.89,-994.14,228.03,-0.73,0.59,1.27,1.26
36534,761.68,757.47,749.84,751.44,755.11,-69.82,-987.79,224.12,1.31,1.76,-2.72,1.07
36570,761.68,757.46,749.80,751.41,755.09,-86.43,-997.07,232.42,-1.43,0.01,0.39,1.35
36605,761.65,757.43,749.78,751.42,755.07,-64.45,-985.84,239.75,1.50,0.77,-0.53,1.50
36640,761.61,757.42,749.82,751.41,755.06,-79.59,-980.96,221.19,0.82,1.60,-1.24,1.30
36675,761.57,757.44,749.81,751.37,755.05,-67.38,-990.23,242.68,-0.08,-0.58,-2.46,1.32
36715,761.60,757.34,749.80,751.38,755.03,-65.43,-992.19,238.77,1.05,3.59,0.50,1.50
36751,761.61,757.42,749.85,751.44,755.08,-77.15,-982.42,226.07,-1.50,0.17,0.02,1.08
36786,761.60,757.41,749.85,751.41,755.07,-77.64,-980.96,232.42,0.44,-0.05,1.01,1.05
36821,761.68,757.47,749.78,751.40,755.08,-72.75,-980.47,234.86,-0.37,-1.05,1.41,1.43
36859,761.63,757.40,749.82,751.40,755.06,-73.73,-988.77,232.42,1.00,-0.35,0.37,1.28
36894,761.57,757.47,749.85,751.35,755.06,-74.71,-985.84,237.30,-1.70,-0.27,-0.49,0.95
36929,761.63,757.41,749.76,751.41,755.05,-73.24,-988.77,229.49,-0.11,0.21,-0.78,1.68
36965,761.60,757.44,749.79,751.36,755.05,-78.61,-993.16,238.77,-1.11,2.11,0.88,1.43
37000,761.60,757.38,749.76,751.35,755.02,-77.15,-987.30,238.77,0.21,0.87,0.79,1.73
37035,761.60,757.47,749.79,751.39,755.06,-67.87,-992.19,249.02,-0.50,-0.38,0.22,1.43
37072,761.60,757.42,749.82,751.43,755.06,-63.48,-986.82,242.68,-1.55,2.77,1.00,1.33
37108,761.57,757.39,749.80,751.38,755.04,-71.29,-998.54,230.47,-0.82,-2.48,-1.76,1.44
37143,761.60,757.45,749.82,751.35,755.06,-69.82,-984.37,235.84,-1.69,2.00,0.35,1.18
37178,761.56,757.42,749.82,751.44,755.06,-92.29,-985.84,235.35,-1.50,2.20,0.66,1.34
37214,761.56,757.40,749.84,751.27,755.02,-76.17,-993.65,240.72,-0.40,1.04,0.34,1.10
37249,761.59,757.45,749.87,751.35,755.07,-76.66,-986.82,230.96,-0.50,-0.66,-1.66,0.80
37285,761.56,757.44,749.83,751.37,755.05,-63.48,-990.23,219.73,0.88,-1.39,-0.74,1.14
37320,761.58,757.42,749.81,751.38,755.05,-79.59,-979.49,241.21,-0.66,0.56,-0.24,1.34
37356,761.63,757.40,749.83,751.37,755.06,-73.24,-979.98,216.80,-3.32,0.42,0.11,1.22
37391,761.63,757.47,749.77,751.47,755.09,-86.43,-986.33,244.14,1.15,0.50,0.85,1.54
37426,761.58,757.46,749.84,751.44,755.08,-68.36,-992.68,225.59,-0.85,0.79,-3.77,1.09
37462,761.57,757.44,749.85,751.39,755.06,-64.45,-980.96,229.00,-3.89,1.21,-1.87,1.04
37497,761.63,757.47,749.86,751.38,755.09,-85.45,-985.84,233.89,-0.98,-2.60,-1.24,0.82
37533,761.66,757.45,749.77,751.39,755.07,-74.22,-979.49,223.14,-0.78,-0.01,-0.32,1.51
37568,761.66,757.49,749.84,751.41,755.10,-64.94,-978.03,238.77,-0.14,1.24,-0.89,0.99
37603,761.66,757.48,749.81,751.40,755.09,-82.52,-994.63,226.07,-2.15,1.53,-2.33,1.25
37639,761.61,757.47,749.81,751.38,755.07,-84.47,-981.93,224.12,-1.74,-1.21,-0.28,1.26
37678,761.67,757.45,749.84,751.35,755.08,-79.10,-989.75,234.37,-0.91,-1.30,-2.32,1.05
37716,761.62,757.44,749.83,751.44,755.08,-83.50,-991.21,237.30,0.59,0.79,-2.32,1.17
37751,761.59,757.42,749.86,751.44,755.08,-69.82,-986.33,224.12,0.75,-0.51,0.26,0.95
37786,761.58,757.49,749.82,751.41,755.07,-74.22,-991.70,232.91,0.61,0.00,-1.58,1.19
37822,761.63,757.44,749.84,751.39,755.08,-69.34,-989.26,220.21,-1.21,1.53,0.47,1.04
37857,761.61,757.46,749.81,751.44,755.08,-83.50,-993.65,227.54,-1.28,1.85,-0.88,1.30
37893,761.68,757.45,749.76,751.43,755.08,-75.20,-999.51,244.14,0.75,2.09,-1.53,1.60
37928,761.59,757.47,749.84,751.44,755.09,-77.15,-989.75,224.61,-1.50,0.47,-2.23,1.05
37964,761.67,757.45,749.72,751.55,755.10,-70.80,-977.54,222.17,-1.01,2.24,-0.36,0.88
37999,761.65,757.47,749.81,751.37,755.08,-65.92,-984.37,231.93,-2.01,1.09,-1.10,1.22
38034,761.66,757.41,749.84,751.48,755.10,-80.57,-988.28,242.68,-1.31,3.15,0.49,1.17
38070,761.58,757.46,749.78,751.50,755.08,-89.36,-995.12,232.42,-0.30,0.18,0.68,1.51
38105,761.60,757.48,749.90,751.43,755.10,-75.68,-975.10,221.68,-1.24,1.18,-2.05,0.59
38141,761.59,757.51,749.79,751.48,755.09,-75.68,-996.09,235.35,0.28,0.09,-1.15,1.35
38176,761.61,757.45,749.86,751.45,755.09,-71.78,-983.40,227.54,-0.22,1.92,-0.51,0.92
38211,761.53,757.45,749.84,751.44,755.06,-75.68,-991.70,228.03,-1.92,-0.92,1.84,1.14
38247,761.55,757.45,749.87,751.44,755.07,-65.43,-988.28,231.45,-0.98,-1.06,-1.68,0.89
38282,761.57,757.43,749.85,751.44,755.07,-87.40,-993.65,228.52,-1.46,-0.89,1.05,1.08
38317,761.52,757.42,749.83,751.40,755.04,-70.80,-990.72,234.86,-1.86,-0.12,-0.80,1.20
38353,761.70,757.52,749.85,751.41,755.12,-66.89,-984.86,241.21,0.44,1.79,-0.05,0.90
38388,761.62,757.48,749.79,751.39,755.07,-67.38,-984.37,221.19,-2.29,-0.25,-0.21,1.37
38424,761.65,757.49,749.87,751.40,755.10,-72.27,-992.68,233.89,0.07,-2.28,-0.37,0.70
38459,761.55,757.49,749.80,751.48,755.08,-83.98,-981.45,224.61,1.72,1.22,0.03,1.37
38494,761.60,757.53,749.80,751.37,755.08,-85.94,-986.33,234.86,-1.85,1.44,1.46,1.22
38529,761.60,757.50,749.82,751.51,755.11,-78.61,-984.37,233.40,-1.21,-1.77,1.02,1.23
38567,761.55,757.51,749.83,751.45,755.09,-91.80,-984.37,225.59,1.18,-2.13,1.64,1.10
38602,761.55,757.47,749.78,751.50,755.07,-75.20,-990.23,249.51,-0.93,-0.86,2.38,1.53
38637,761.58,757.46,749.82,751.41,755.07,-78.61,-992.19,227.05,-0.17,-0.69,-1.06,1.19
38679,761.63,757.47,749.76,751.42,755.07,-82.52,-983.40,225.10,1.75,0.11,-0.79,1.61
38714,761.67,757.46,749.82,751.42,755.09,-66.41,-987.79,227.05,-0.95,-2.11,-0.99,1.20
38749,761.54,757.46,749.71,751.43,755.04,-76.17,-985.84,227.54,0.17,-1.04,0.37,1.76
38784,761.64,757.53,749.76,751.46,755.10,-78.61,-986.82,226.07,0.33,0.84,-0.63,1.55
38820,761.60,757.47,749.72,751.50,755.07,-72.75,-991.70,228.03,-1.24,-1.73,-2.04,1.17
38856,761.60,757.52,749.79,751.45,755.09,-68.85,-1010.25,245.61,-1.40,0.40,-0.84,1.37
38892,761.63,757.48,749.82,751.51,755.11,-76.17,-994.14,238.77,-1.94,-1.22,1.78,1.24
38927,761.56,757.42,749.77,751.45,755.05,-84.47,-1001.46,224.61,-0.63,1.99,-1.28,1.62
38962,761.60,757.45,749.81,751.44,755.07,-80.57,-990.23,222.66,-1.34,-1.44,0.75,1.35
38998,761.52,757.41,749.79,751.46,755.04,-65.43,-984.86,232.42,-0.68,-1.41,0.93,1.57
39033,761.56,757.45,749.81,751.42,755.06,-83.01,-992.19,242.19,-1.03,-1.56,-0.75,1.30
39069,761.56,757.50,749.81,751.44,755.08,-81.05,-982.42,247.07,1.02,-1.27,-2.20,1.23
39104,761.50,757.46,749.80,751.41,755.04,-82.52,-1000.00,226.07,-0.72,-0.40,-1.32,1.40
39140,761.56,757.45,749.87,751.45,755.08,-65.92,-982.91,239.26,-1.58,2.37,-1.04,0.85
39175,761.58,757.49,749.83,751.50,755.10,-81.05,-999.51,225.10,-0.69,0.65,-2.76,1.16
39211,761.52,757.55,749.83,751.44,755.08,-77.15,-992.68,232.42,1.14,1.02,-0.56,1.05
39246,761.57,757.47,749.84,751.45,755.08,-78.61,-999.02,243.16,-0.14,0.39,-1.06,1.08
39281,761.47,757.53,749.81,751.44,755.06,-81.54,-979.00,229.98,-1.14,0.22,-3.13,1.28
39317,761.56,757.49,749.88,751.46,755.10,-75.68,-989.75,236.82,0.60,-2.69,-1.21,0.73
39352,761.57,757.45,749.80,751.50,755.08,-76.17,-988.77,237.30,0.87,3.12,-2.31,1.42
39388,761.52,757.45,749.79,751.44,755.05,-75.20,-991.21,239.75,0.75,0.54,-0.18,1.47
39423,761.56,757.44,749.86,751.45,755.08,-83.01,-1002.93,232.91,0.69,0.22,-1.30,0.97
39459,761.63,757.49,749.90,751.50,755.13,-83.50,-990.23,239.26,-1.79,-0.95,-0.14,0.54
39494,761.57,757.48,749.83,751.45,755.08,-86.91,-978.52,230.96,-0.23,-2.79,0.50,1.17
39530,761.59,757.48,749.89,751.44,755.10,-62.50,-982.42,234.86,-1.30,-2.08,-0.18,0.64
39565,761.60,757.50,749.82,751.47,755.10,-80.08,-990.72,228.03,-0.54,-0.79,1.66,1.19
39600,761.60,757.48,749.85,751.47,755.10,-71.78,-990.72,234.86,0.37,-0.02,0.95,1.02
39636,761.52,757.53,749.87,751.50,755.11,-56.64,-995.12,237.79,-2.07,2.60,0.94,0.75
39674,761.53,757.49,749.82,751.48,755.08,-73.73,-987.79,230.96,-0.66,0.16,-0.44,1.24
39712,761.51,757.50,749.85,751.50,755.09,-78.12,-997.56,233.40,-0.03,0.98,-0.87,0.99
39747,761.51,757.46,749.81,751.41,755.05,-81.05,-986.33,216.80,-2.10,1.85,-0.22,1.31
39782,761.55,757.45,749.88,751.50,755.10,-74.71,-983.89,234.37,0.19,-2.76,0.99,0.79
39818,761.53,757.53,749.88,751.44,755.09,-79.10,-985.84,239.26,0.02,1.69,2.53,0.66
39853,761.44,757.50,749.88,751.45,755.07,-70.31,-1002.44,234.37,0.78,1.08,-1.08,0.74
39889,761.50,757.47,749.92,751.44,755.08,-78.12,-997.56,233.89,-1.47,-0.37,-0.79,0.21
39924,761.52,757.51,749.84,751.46,755.08,-70.31,-988.28,229.00,-1.24,-0.74,-0.90,1.05
39960,761.55,757.53,749.83,751.40,755.08,-79.10,-979.98,232.42,-0.97,0.87,-0.97,1.02
39995,761.59,757.47,749.84,751.45,755.09,-66.89,-995.61,222.66,-1.28,1.29,0.71,1.12
40030,761.55,757.47,749.87,751.45,755.09,-75.20,-992.68,234.37,-1.56,-2.09,0.41,0.87
40066,761.55,757.48,749.78,751.45,755.07,-72.75,-994.14,235.35,1.34,1.19,1.41,1.49
40101,761.60,757.52,749.83,751.41,755.09,-79.59,-1000.98,219.73,0.29,-0.31,-1.01,1.02
40136,761.54,757.53,749.84,751.45,755.09,-75.20,-995.61,237.30,-0.13,-0.62,-0.66,1.03
40173,761.57,757.54,749.85,751.46,755.11,-74.22,-994.14,233.89,-1.44,-0.73,0.45,0.91
40208,761.53,757.45,749.87,751.43,755.07,-73.73,-995.12,251.46,0.52,1.76,1.91,0.84
40243,761.51,757.49,749.87,751.47,755.09,-74.22,-977.54,229.49,-0.81,-0.65,-0.59,0.80
40281,761.56,757.51,749.78,751.40,755.06,-80.08,-997.56,225.59,-0.31,-0.44,1.08,1.44
40316,761.57,757.51,749.84,751.43,755.09,-80.57,-987.30,241.21,0.29,-1.09,-0.56,1.00
40351,761.58,757.44,749.83,751.39,755.06,-82.03,-984.86,236.82,0.00,-0.08,-1.46,1.15
40386,761.53,757.51,749.88,751.42,755.08,-75.20,-986.33,231.45,0.82,-1.31,-1.53,0.71
40422,761.58,757.52,749.87,751.43,755.10,-77.64,-998.54,223.63,-1.27,-0.46,-1.73,0.77
40457,761.55,757.54,749.86,751.44,755.10,-70.31,-988.28,238.28,-0.48,1.43,0.14,0.79
40492,761.54,757.53,749.89,751.47,755.11,-73.73,-987.79,223.63,-0.72,-1.63,0.58,0.59
40527,761.48,757.57,749.89,751.46,755.10,-78.61,-994.63,228.52,-1.63,0.35,-0.52,0.53
40563,761.59,757.52,749.88,751.48,755.12,-79.10,-1002.44,225.59,-0.15,0.89,0.58,0.70
40598,761.54,757.54,749.87,751.45,755.10,-71.78,-998.05,237.79,2.27,-0.51,-0.69,0.68
40634,761.59,757.44,749.86,751.45,755.09,-65.43,-983.89,229.49,1.26,-2.50,1.14,0.92
40675,761.70,757.43,749.83,751.47,755.11,-77.64,-991.70,236.33,-0.74,1.71,0.96,1.19
40711,761.65,757.46,749.87,751.52,755.13,-76.17,-975.59,235.35,-0.25,-2.44,-0.83,0.89
40746,761.60,757.52,749.80,751.45,755.09,-76.17,-988.28,235.35,0.43,-0.87,-1.16,1.30
40782,761.61,757.42,749.76,751.43,755.06,-82.03,-986.33,218.75,-0.95,2.55,-0.27,1.67
40818,761.65,757.48,749.83,751.46,755.10,-71.78,-985.84,243.16,-0.77,2.44,-0.19,1.11
40854,761.59,757.48,749.87,751.49,755.11,-68.85,-979.98,224.12,-1.21,1.24,-0.18,0.85
40889,761.62,757.47,749.83,751.49,755.10,-76.17,-989.26,238.28,-0.20,-1.46,-0.63,1.18
40925,761.55,757.43,749.85,751.45,755.07,-75.68,-992.19,219.73,-0.27,2.35,-1.80,1.06
40960,761.60,757.47,749.82,751.51,755.10,-62.01,-983.40,224.12,-0.63,1.53,-2.05,1.23
40995,761.57,757.51,749.80,751.52,755.10,-82.03,-983.40,231.45,0.37,-1.44,-0.03,1.36
41031,761.55,757.42,749.85,751.53,755.09,-76.66,-1000.00,227.05,-0.17,2.37,0.26,1.14
41066,761.61,757.48,749.93,751.55,755.14,-77.15,-1004.88,233.40,-0.87,-1.82,-0.78,0.40
41102,761.58,757.46,749.90,751.46,755.10,-84.96,-985.84,228.52,1.48,1.69,0.36,0.61
41137,761.58,757.49,749.86,751.53,755.12,-81.54,-976.07,242.19,-0.63,-0.04,-2.63,0.90
41173,761.59,757.54,749.88,751.41,755.11,-83.01,-981.93,229.00,0.03,-0.29,-2.03,0.60
41208,761.54,757.50,749.84,751.46,755.09,-70.80,-990.23,236.82,-0.55,-0.82,-0.60,1.06
41243,761.55,757.55,749.82,751.54,755.11,-77.64,-989.26,237.79,-0.39,-0.86,1.18,1.13
41279,761.60,757.54,749.87,751.40,755.10,-75.20,-992.19,222.66,-0.24,2.34,0.01,0.64
41314,761.63,757.53,749.84,751.47,755.12,-79.10,-990.23,221.19,-2.26,2.50,-1.51,0.97
41350,761.50,757.48,749.80,751.49,755.07,-80.08,-994.14,221.19,0.37,-2.02,1.03,1.42
41385,761.55,757.55,749.84,751.56,755.13,-63.96,-990.23,229.98,-0.13,1.03,-3.58,0.99
41421,761.59,757.54,749.80,751.50,755.11,-79.59,-985.35,235.84,-2.50,-0.13,-2.77,1.30
41456,761.56,757.46,749.86,751.50,755.10,-72.27,-990.23,237.79,0.53,-0.61,-0.47,0.94
41492,761.55,757.56,749.82,751.59,755.13,-88.87,-974.61,227.05,-0.62,-1.43,1.56,1.16
41527,761.60,757.58,749.81,751.49,755.12,-76.66,-991.21,231.93,-1.57,-0.28,-0.21,1.15
41579,761.58,757.58,749.81,751.49,755.11,-77.15,-995.61,235.35,-1.26,-0.31,1.74,1.17
41614,761.61,757.57,749.85,751.51,755.13,-71.29,-1000.00,245.12,-0.50,0.42,-1.40,0.88
41650,761.52,757.51,749.87,751.53,755.11,-86.91,-991.21,231.45,-0.84,1.39,-0.78,0.84
41685,761.50,757.58,749.84,751.59,755.13,-86.91,-987.30,218.75,-0.71,-0.91,-3.43,0.98
41720,761.62,757.53,749.85,751.53,755.13,-77.64,-965.82,225.10,-0.53,0.82,-0.23,0.96
41755,761.61,757.50,749.86,751.56,755.13,-80.08,-994.63,230.96,-0.86,-1.40,-0.82,0.91
41790,761.61,757.61,749.87,751.51,755.15,-81.05,-988.77,233.40,-0.48,-0.33,-0.56,0.61
41826,761.56,757.60,749.91,751.57,755.16,-82.03,-983.40,229.98,-0.82,-0.19,-1.40,0.37
41861,761.60,757.48,749.92,751.49,755.12,-66.89,-990.23,238.77,-0.47,-1.37,0.59,0.38
41896,761.56,757.51,749.79,751.48,755.09,-73.73,-992.68,231.93,-1.18,-0.35,1.10,1.37
41931,761.65,757.52,749.82,751.49,755.12,-69.34,-989.26,246.58,2.24,0.95,-2.37,1.16
41970,761.64,757.47,749.88,751.56,755.13,-85.45,-984.37,230.47,-0.57,-1.96,2.54,0.83
42005,761.55,757.58,749.85,751.58,755.14,-77.15,-990.72,233.89,0.80,-0.76,1.55,0.92
42041,761.67,757.52,749.90,751.61,755.18,-91.80,-991.21,225.59,2.09,4.24,0.26,0.54
42076,761.76,757.58,749.84,751.54,755.18,-79.59,-994.63,230.47,-0.14,-1.03,1.44,0.90
42111,761.67,757.52,749.84,751.56,755.15,-62.50,-979.98,234.86,-1.12,0.57,-0.31,1.04
42146,761.73,757.62,749.89,751.57,755.20,-73.73,-1000.49,235.84,0.36,0.34,1.60,0.47
42181,761.67,757.53,749.87,751.49,755.14,-79.59,-985.35,236.82,-1.77,-0.41,0.36,0.77
42217,761.68,757.55,749.85,751.52,755.15,-74.22,-987.30,232.91,-1.15,0.15,-0.92,0.90
42252,761.63,757.51,749.86,751.50,755.13,-82.03,-978.52,237.30,1.29,4.36,-0.86,0.84
42288,761.62,757.61,749.91,751.56,755.17,-74.22,-995.61,228.52,-0.23,1.20,-1.01,0.34
42323,761.70,757.55,749.86,751.47,755.14,-76.66,-995.12,226.07,-0.44,-2.82,-1.50,0.81
42358,761.68,757.58,749.89,751.51,755.17,-84.47,-979.49,241.21,1.08,-1.43,0.04,0.47
42394,761.66,757.52,749.83,751.51,755.13,-82.03,-985.84,226.56,0.56,2.57,1.60,1.08
42429,761.63,757.56,749.90,751.55,755.16,-77.15,-991.70,234.37,-1.31,0.20,-0.72,0.47
42465,761.54,757.57,749.86,751.55,755.13,-76.17,-985.35,228.52,-2.27,3.31,-1.92,0.85
42500,761.58,757.58,749.86,751.49,755.13,-72.75,-975.10,244.63,0.21,-0.04,-1.05,0.78
42540,761.64,757.49,749.87,751.46,755.11,-83.01,-994.14,240.72,0.52,-2.24,-3.18,0.83
42575,761.67,757.55,749.87,751.44,755.13,-79.59,-1001.95,230.47,-2.08,1.79,-2.00,0.67
42610,761.65,757.55,749.78,751.50,755.12,-81.54,-989.75,219.73,-0.36,0.87,-0.65,1.36
42645,761.60,757.58,749.87,751.57,755.15,-80.08,-979.00,233.89,0.47,1.08,0.44,0.74
42681,761.68,757.55,749.83,751.54,755.15,-84.96,-990.23,222.17,-0.13,0.95,-1.89,1.07
42716,761.67,757.54,749.85,751.54,755.15,-65.43,-989.75,236.82,-1.29,-0.56,2.07,0.92
42751,761.76,757.56,749.82,751.55,755.17,-73.24,-989.75,228.03,-0.80,1.56,-0.60,1.09
42787,761.69,757.53,749.79,751.53,755.14,-66.41,-1003.91,230.96,-0.16,-0.40,-2.27,1.33
42822,761.72,757.59,749.84,751.51,755.16,-82.52,-980.96,217.77,-0.89,-0.69,2.15,0.92
42858,761.70,757.61,749.88,751.53,755.18,-87.89,-993.16,223.63,-1.68,-0.65,0.10,0.53
42893,761.59,757.55,749.82,751.52,755.12,-72.75,-994.63,229.00,-2.86,-0.35,-3.15,1.15
42928,761.65,757.60,749.83,751.57,755.17,-72.75,-997.56,235.84,0.27,1.65,-2.33,0.96
42963,761.66,757.53,749.89,751.53,755.15,-78.61,-990.23,229.49,-0.76,-1.22,0.52,0.56
42999,761.71,757.56,749.88,751.59,755.18,-77.64,-994.63,241.70,-0.62,1.27,-0.12,0.65
43034,761.68,757.64,749.83,751.48,755.16,-79.59,-987.79,226.07,0.66,-0.06,-3.82,0.85
43069,761.65,757.55,749.85,751.52,755.14,-69.34,-999.02,220.70,-1.11,-0.42,-1.47,0.86
43105,761.60,757.53,749.86,751.54,755.13,-81.05,-985.84,238.77,-1.69,0.18,-0.73,0.90
43140,761.63,757.58,749.90,751.53,755.16,-82.03,-989.75,238.28,0.99,0.75,0.27,0.42
43175,761.68,757.60,749.89,751.54,755.18,-79.10,-986.82,241.70,-2.05,1.58,-0.30,0.52
43211,761.69,757.52,749.91,751.50,755.15,-78.61,-986.82,232.42,1.03,0.54,0.39,0.43
43246,761.66,757.58,749.83,751.47,755.14,-84.96,-989.75,230.47,0.62,-0.03,-0.92,0.94
43284,761.70,757.53,749.83,751.56,755.16,-68.36,-989.26,228.03,-0.73,0.23,-0.70,1.10
43319,761.75,757.51,749.77,751.63,755.16,-71.29,-983.40,225.59,1.02,-3.92,-0.85,0.68
43355,761.71,757.59,749.85,751.51,755.16,-67.87,-1000.00,235.84,0.11,0.93,-2.11,0.84
43390,761.77,757.57,749.91,751.54,755.20,-69.34,-993.65,233.40,0.03,2.40,0.46,0.32
43426,761.75,757.58,749.85,751.53,755.18,-74.22,-981.93,229.98,-0.50,-0.21,-1.13,0.79
43461,761.73,757.66,749.86,751.62,755.22,-74.22,-986.33,234.86,-0.03,-1.91,-2.27,0.70
43496,761.79,757.57,749.84,751.56,755.19,-88.38,-985.84,229.49,-1.96,-0.85,0.12,0.97
43531,761.80,757.59,749.84,751.62,755.21,-80.57,-995.12,242.19,-0.66,-1.04,-0.57,0.95
43571,761.78,757.63,749.88,751.57,755.22,-67.87,-978.03,226.56,-0.93,-0.33,0.24,0.48
43606,761.71,757.60,749.91,751.59,755.20,-74.22,-984.86,235.35,-1.66,0.48,-2.68,0.33
43641,761.78,757.65,749.92,751.56,755.23,-75.68,-985.84,234.86,-1.08,2.29,0.85,0.18
43679,761.76,757.62,749.93,751.58,755.22,-71.78,-996.58,231.93,0.34,1.66,-0.55,0.14
43714,761.79,757.58,749.87,751.48,755.18,-75.68,-995.12,231.93,-1.46,-0.85,-1.74,0.59
43749,761.85,757.64,749.90,751.57,755.24,-97.66,-1005.86,235.35,-0.57,1.92,-1.43,0.36
43784,761.83,757.65,749.91,751.53,755.23,-68.36,-979.49,235.84,0.11,-0.89,1.58,0.23
43819,761.84,757.65,749.89,751.52,755.22,-87.40,-979.49,225.59,-1.20,0.44,-0.87,0.37
43854,761.80,757.68,749.96,751.54,755.24,-80.08,-989.75,232.91,-1.10,1.15,-1.00,-0.22
43890,761.83,757.69,749.87,751.55,755.24,-78.12,-984.86,212.40,-0.66,1.56,-1.46,0.46
43925,761.81,757.65,749.84,751.55,755.21,-81.54,-991.21,234.86,-0.66,2.49,0.39,0.83
43960,761.79,757.66,749.89,751.59,755.23,-77.64,-993.65,229.00,1.37,-0.36,-1.67,0.41
43995,761.88,757.65,749.83,751.55,755.23,-73.73,-992.19,235.84,0.50,0.54,-0.20,0.83
44031,761.74,757.62,749.84,751.58,755.19,-86.43,-998.05,226.07,0.21,-1.31,0.44,0.88
44066,761.86,757.60,749.90,751.60,755.24,-80.57,-982.91,236.33,0.92,-0.13,0.19,0.40
44102,761.73,757.64,749.93,751.57,755.22,-81.05,-987.30,234.86,0.37,-0.32,0.11,0.10
44137,761.71,757.65,749.84,751.52,755.18,-79.59,-984.37,228.52,-2.55,1.92,-1.83,0.83
44173,761.70,757.61,749.93,751.57,755.20,-88.87,-985.35,230.47,0.61,1.59,-2.47,0.13
44208,761.71,757.60,749.88,751.59,755.19,-79.59,-987.30,227.05,0.05,1.37,0.08,0.59
44243,761.70,757.62,749.85,751.59,755.19,-76.66,-978.03,224.61,-0.47,0.66,0.58,0.82
44278,761.69,757.63,749.85,751.58,755.19,-81.54,-986.33,229.00,0.71,0.69,0.15,0.83
44314,761.75,757.61,749.84,751.59,755.20,-78.61,-986.82,227.54,-0.14,1.53,1.12,0.88
44350,761.68,757.52,749.88,751.60,755.17,-69.34,-995.61,228.03,-0.75,2.36,1.71,0.73
44385,761.78,757.60,749.85,751.58,755.20,-79.10,-984.37,230.96,-1.94,-0.19,2.48,0.87
44420,761.73,757.62,749.90,751.54,755.20,-77.64,-993.16,234.86,0.21,-0.34,-1.46,0.36
44456,761.73,757.70,749.92,751.57,755.23,-81.54,-1003.91,234.37,-1.28,1.69,-0.41,0.07
44491,761.70,757.60,749.89,751.53,755.18,-71.29,-995.12,230.47,-0.37,-0.60,-0.95,0.46
44530,761.75,757.56,749.97,751.53,755.20,-77.64,-990.72,230.47,-0.37,0.33,-0.93,-0.44
44568,761.71,757.60,749.82,751.57,755.18,-57.62,-993.16,231.45,-0.57,-2.00,2.71,1.04
44603,761.71,757.62,749.87,751.60,755.20,-86.43,-986.33,247.56,1.52,-1.78,-1.02,0.65
44638,761.70,757.61,749.85,751.59,755.19,-79.10,-986.82,233.40,-0.64,1.73,-0.87,0.85
44674,761.69,757.65,749.83,751.59,755.19,-87.40,-984.86,221.68,-0.66,-0.18,-1.37,0.93
44709,761.77,757.67,749.86,751.60,755.23,-89.84,-977.54,222.66,-0.55,0.18,-1.43,0.67
44744,761.69,757.62,749.89,751.55,755.19,-79.10,-991.70,223.63,-1.10,0.18,-0.47,0.44
44780,761.76,757.53,749.86,751.65,755.20,-76.17,-990.72,234.86,-0.27,1.65,-0.13,0.86
44815,761.68,757.58,749.89,751.61,755.19,-89.36,-984.37,220.70,-0.18,-0.70,-1.41,0.54
44851,761.75,757.64,749.89,751.57,755.21,-71.29,-992.68,242.19,0.19,-1.15,-0.20,0.44
44886,761.74,757.54,749.85,751.54,755.17,-72.27,-995.61,232.42,-0.54,-0.31,-0.45,0.92
44922,761.79,757.62,749.93,751.54,755.22,-80.57,-988.28,230.96,-0.87,-1.26,0.73,0.08
44957,761.71,757.58,749.89,751.54,755.18,-72.27,-987.79,232.42,-0.50,1.83,-1.42,0.54
44992,761.67,757.64,749.93,751.61,755.21,-66.89,-986.82,234.37,-0.31,0.70,-1.67,0.13
45028,761.73,757.67,749.97,751.68,755.26,-75.68,-981.93,223.14,1.36,1.82,0.04,-0.26
45063,761.63,757.58,749.89,751.60,755.18,-89.84,-987.79,229.49,0.72,-1.35,-0.21,0.55
45099,761.64,757.64,749.91,751.65,755.21,-77.64,-996.09,223.63,-1.17,-0.85,-0.98,0.29
45134,761.63,757.58,749.86,751.61,755.17,-64.45,-1002.93,221.19,0.11,-0.10,-2.21,0.83
45169,761.69,757.58,749.84,751.63,755.19,-76.17,-997.07,232.91,-0.01,1.18,-1.11,0.94
45205,761.76,757.62,749.80,751.53,755.18,-81.54,-992.68,233.40,-1.79,0.97,-0.95,1.12
45240,761.67,757.68,749.86,751.57,755.19,-72.75,-988.28,232.42,-0.46,-1.74,-0.31,0.66
45275,761.62,757.60,749.95,751.58,755.19,-78.12,-997.07,230.96,-1.20,-0.03,-0.78,0.01
45310,761.68,757.77,749.88,751.61,755.23,-60.55,-985.84,228.52,1.90,0.92,-0.92,0.36
45346,761.66,757.70,749.90,751.62,755.22,-59.57,-1007.32,232.91,-2.82,-1.27,-0.75,0.25
45382,761.67,757.69,749.91,751.60,755.22,-72.27,-999.02,224.61,0.85,1.52,-1.19,0.22
45420,761.69,757.70,749.91,751.61,755.23,-76.17,-979.49,226.07,-1.79,-0.83,-1.91,0.23
45455,761.67,757.69,749.86,751.62,755.21,-71.29,-980.96,242.19,-0.12,-2.98,0.42,0.66
45490,761.64,757.61,749.90,751.63,755.20,-65.92,-983.40,229.49,-0.55,-0.05,0.83,0.44
45532,761.76,757.68,749.83,751.62,755.22,-81.54,-977.54,242.68,-0.22,-0.33,-3.39,0.86
45567,761.70,757.64,749.94,751.67,755.24,-83.01,-997.07,229.49,0.36,-0.98,-1.25,0.06
45602,761.76,757.74,749.90,751.63,755.26,-81.54,-975.10,228.03,-0.07,0.50,-1.68,0.17
45638,761.72,757.71,749.87,751.64,755.23,-64.45,-996.58,232.91,-1.48,-0.95,2.85,0.54
45674,761.70,757.68,749.84,751.58,755.20,-80.08,-978.52,229.00,-0.49,-2.05,-0.05,0.75
45710,761.67,757.69,749.82,751.61,755.20,-83.50,-999.51,214.84,-0.43,-0.44,-0.26,0.92
45745,761.72,757.64,749.85,751.56,755.19,-78.61,-992.19,235.35,-0.54,0.66,-1.05,0.78
45781,761.69,757.67,749.86,751.61,755.21,-76.66,-994.14,234.86,-1.56,-2.06,-0.74,0.65
45816,761.63,757.70,749.88,751.59,755.20,-76.17,-990.23,235.84,0.86,0.66,-0.15,0.49
45852,761.64,757.73,749.93,751.64,755.24,-78.12,-986.82,230.47,-2.30,-0.81,-2.50,-0.02
45887,761.73,757.72,749.91,751.59,755.24,-62.99,-988.28,231.93,-1.56,-0.50,-1.03,0.13
45922,761.72,757.71,749.88,751.64,755.24,-74.22,-983.89,239.26,1.03,0.08,-3.15,0.47
45958,761.70,757.70,749.93,751.58,755.23,-70.31,-1000.49,244.63,-0.64,-2.50,-2.86,-0.01
45993,761.75,757.63,749.89,751.61,755.22,-71.29,-992.19,227.05,-1.20,-0.76,-0.42,0.45
46029,761.71,757.68,749.88,751.62,755.22,-67.38,-990.72,228.52,-1.33,-0.61,-1.80,0.51
46064,761.72,757.64,749.83,751.64,755.21,-73.73,-990.72,229.00,-1.84,0.18,-0.12,0.94
46100,761.69,757.70,749.86,751.62,755.22,-77.64,-978.52,229.98,1.35,0.55,-3.11,0.60
46135,761.74,757.64,749.86,751.64,755.22,-82.52,-983.89,228.03,-2.64,-0.20,-2.80,0.70
46171,761.75,757.66,749.83,751.58,755.21,-75.68,-990.72,231.93,-2.69,-1.41,-0.32,0.86
46206,761.68,757.60,749.82,751.62,755.18,-75.20,-975.10,223.63,-0.31,0.16,-2.06,1.06
46241,761.67,757.59,749.83,751.62,755.18,-73.24,-979.98,229.00,-2.28,1.16,-1.31,1.01
46277,761.75,757.68,749.90,751.57,755.23,-75.20,-1011.23,220.70,0.63,2.58,-0.92,0.28
46312,761.74,757.68,749.92,751.62,755.24,-76.17,-988.77,238.28,-0.07,-1.06,1.27,0.18
46348,761.69,757.72,749.92,751.64,755.24,-77.64,-985.35,225.10,-2.54,0.81,-2.63,0.07
46385,761.75,757.74,749.87,751.58,755.23,-68.36,-985.84,230.96,1.07,0.92,-1.45,0.43
46421,761.76,757.71,749.83,751.60,755.22,-70.31,-978.52,214.84,0.08,-0.08,-2.97,0.82
46456,761.76,757.69,749.92,751.60,755.24,-82.03,-986.33,221.19,-0.56,1.04,-1.53,0.11
46492,761.73,757.63,749.85,751.64,755.21,-81.54,-990.23,230.47,-0.30,-0.44,1.62,0.83
46530,761.73,757.65,749.87,751.67,755.23,-74.71,-979.49,243.16,0.63,-2.09,-0.35,0.62
46567,761.77,757.73,749.95,751.60,755.26,-72.75,-979.98,237.79,-0.18,0.16,0.93,-0.19
46603,761.81,757.73,749.89,751.60,755.26,-72.27,-982.91,229.00,0.22,-1.73,0.18,0.26
46638,761.77,757.73,749.91,751.61,755.26,-66.41,-989.75,236.33,0.24,1.37,1.40,0.16
46674,761.74,757.69,749.88,751.65,755.24,-77.64,-986.82,223.63,0.21,0.35,-0.63,0.43
46709,761.76,757.76,749.89,751.67,755.27,-74.71,-989.26,236.33,-0.51,0.09,-0.98,0.25
46744,761.75,757.74,749.93,751.64,755.26,-72.75,-989.75,233.89,-0.27,-0.21,-3.47,-0.01
46780,761.76,757.68,749.93,751.63,755.25,-71.29,-990.72,227.54,0.31,-0.23,0.98,0.06
46815,761.76,757.76,749.90,751.63,755.26,-87.89,-999.02,228.03,-0.53,0.76,-1.67,0.14
46851,761.68,757.71,749.92,751.64,755.24,-79.10,-987.30,233.89,-0.27,1.57,-0.80,0.14
46886,761.74,757.68,749.92,751.67,755.25,-71.78,-991.70,232.91,0.59,-0.61,-0.89,0.21
46921,761.70,757.66,749.95,751.64,755.24,-80.57,-994.14,241.21,-1.86,1.66,1.47,-0.11
46956,761.75,757.76,749.90,751.63,755.26,-79.10,-985.35,231.93,-0.42,3.10,1.10,0.15
46992,761.64,757.69,749.87,751.62,755.21,-79.59,-979.98,229.49,1.60,0.08,-2.50,0.53
47027,761.62,757.69,749.90,751.62,755.21,-67.38,-987.30,231.45,-0.75,1.05,-1.18,0.28
47064,761.57,757.71,749.82,751.60,755.17,-71.78,-987.79,229.49,0.30,0.69,-1.10,0.94
47100,761.63,757.74,749.90,751.68,755.24,-81.54,-985.84,223.63,-4.11,2.20,-2.60,0.25
47135,761.63,757.67,749.91,751.63,755.21,-75.68,-993.65,228.03,-0.92,-0.32,-1.33,0.25
47170,761.63,757.70,749.89,751.74,755.24,-73.73,-981.45,234.37,-1.20,0.59,-0.05,0.44
47205,761.63,757.68,749.96,751.73,755.25,-78.61,-992.19,236.82,-1.50,-0.34,-1.18,-0.12
47240,761.67,757.70,749.93,751.73,755.26,-67.38,-992.19,233.40,0.21,1.47,-0.53,0.08
47275,761.66,757.74,749.87,751.60,755.22,-69.34,-993.65,239.26,1.82,0.14,-0.84,0.49
47311,761.56,757.72,749.84,751.65,755.19,-83.50,-982.91,225.10,-0.06,-1.40,-1.08,0.78
47346,761.66,757.76,749.81,751.67,755.23,-72.27,-988.28,233.89,-1.58,-0.31,-1.96,0.55
47382,761.66,757.67,749.87,751.59,755.20,-63.96,-980.96,235.84,-0.34,-0.40,-0.05,0.58
47417,761.62,757.66,749.87,751.60,755.19,-71.78,-975.10,228.52,0.84,-0.24,-3.24,0.58
47452,761.63,757.70,749.82,751.67,755.21,-72.27,-978.52,229.98,-0.48,0.82,-0.01,0.85
47488,761.64,757.68,749.94,751.67,755.23,-83.01,-996.58,219.73,-1.11,0.34,-0.68,0.03
47530,761.55,757.69,749.83,751.72,755.20,-81.05,-1000.00,233.40,-1.32,2.34,-1.90,0.64
47565,761.57,757.69,749.94,751.67,755.22,-73.24,-999.51,234.37,0.01,1.15,-1.13,-0.00
47600,761.56,757.61,749.89,751.64,755.17,-63.96,-987.30,234.37,-0.23,2.18,-0.15,0.57
47636,761.64,757.63,749.89,751.62,755.20,-77.15,-993.65,225.59,-0.76,-0.02,0.64,0.52
47672,761.60,757.60,749.81,751.70,755.18,-77.15,-994.14,224.61,-0.27,1.71,-0.33,0.64
47708,761.68,757.66,749.93,751.61,755.22,-68.36,-989.26,234.86,-0.44,1.37,-1.53,0.11
47743,761.69,757.62,749.85,751.72,755.22,-79.10,-989.26,223.14,-1.49,-0.57,0.64,0.83
47779,761.71,757.70,749.88,751.67,755.24,-73.73,-991.70,227.05,-0.83,2.49,0.37,0.53
47814,761.66,757.71,749.85,751.65,755.22,-78.61,-978.03,225.10,-0.70,-0.10,0.08,0.66
47850,761.71,757.72,749.87,751.68,755.24,-71.78,-980.47,233.89,0.63,1.21,-1.69,0.54
47885,761.69,757.69,749.89,751.67,755.23,-72.27,-984.86,218.75,-1.80,-2.17,0.50,0.44
47921,761.61,757.70,749.81,751.63,755.19,-81.05,-987.79,223.14,-0.86,-0.91,-1.79,1.00
47956,761.70,757.71,749.87,751.66,755.23,-70.31,-987.79,216.80,-0.21,1.23,0.77,0.58
47991,761.67,757.69,749.89,751.65,755.23,-76.17,-986.82,234.86,-0.30,1.54,-2.88,0.39
48027,761.67,757.76,749.89,751.71,755.25,-80.08,-992.68,220.70,-2.24,1.02,0.24,0.35
48062,761.67,757.78,749.91,751.64,755.25,-74.22,-989.26,224.61,-1.21,-0.50,-1.56,0.09
48098,761.65,757.67,749.83,751.64,755.20,-77.15,-992.68,228.52,-0.47,0.98,-0.89,0.92
48133,761.66,757.74,749.89,751.68,755.24,-80.57,-987.30,230.47,0.79,0.24,1.20,0.38
48169,761.64,757.76,749.85,751.69,755.23,-71.29,-991.70,237.30,-2.11,1.59,-1.07,0.63
48204,761.65,757.71,749.88,751.70,755.23,-87.40,-980.47,237.30,-1.05,1.14,-0.60,0.52
48240,761.70,757.76,749.91,751.65,755.25,-79.59,-996.09,229.98,-1.44,1.04,-1.53,0.15
48275,761.73,757.65,749.91,751.65,755.24,-91.31,-981.45,229.49,0.02,2.20,-1.95,0.27
48310,761.76,757.71,749.92,751.66,755.26,-83.98,-979.00,239.26,-0.61,0.20,0.37,0.12
48346,761.65,757.66,749.83,751.61,755.19,-84.96,-994.63,231.93,-0.57,-0.27,-0.69,0.91
48381,761.69,757.80,749.80,751.67,755.24,-77.64,-981.93,230.96,-0.34,-1.32,-2.50,0.27
48417,761.68,757.73,749.87,751.68,755.24,-73.73,-982.91,241.21,-0.69,-1.56,0.77,0.56
48452,761.66,757.81,749.83,751.73,755.26,-65.43,-983.40,210.45,-0.13,1.89,-0.44,0.20
48488,761.64,757.76,749.86,751.63,755.22,-77.15,-985.35,234.86,-0.76,0.59,-1.11,0.52
48526,761.67,757.72,749.83,751.57,755.20,-77.64,-988.77,230.96,-1.46,2.95,1.46,0.77
48562,761.77,757.72,749.81,751.62,755.23,-85.45,-979.98,240.72,0.06,0.40,-0.92,0.97
48597,761.78,757.74,749.88,751.71,755.28,-83.98,-991.70,228.03,-0.16,-2.82,-3.27,0.43
48632,761.71,757.73,749.97,751.70,755.28,-80.08,-989.26,229.49,-0.19,-1.72,-1.55,-0.31
48668,761.70,757.75,749.82,751.66,755.23,-85.45,-992.68,217.29,-0.33,-0.16,-0.55,0.77
48703,761.69,757.77,749.88,751.67,755.25,-77.64,-985.84,230.96,-1.69,0.49,-0.51,0.41
48738,761.67,757.75,749.91,751.71,755.26,-70.31,-992.68,231.93,0.06,1.23,-0.09,0.15
48778,761.76,757.80,749.88,751.71,755.29,-74.22,-989.26,223.63,-0.84,-2.72,-1.14,0.33
48813,761.77,757.81,749.87,751.77,755.30,-77.15,-987.79,233.40,0.50,0.71,-0.98,0.38
48848,761.72,757.80,749.93,751.68,755.28,-75.68,-999.51,227.54,-1.44,-1.18,0.84,-0.09
48883,761.62,757.86,749.85,751.71,755.26,-83.01,-980.96,244.63,-1.36,2.91,-3.32,0.45
48918,761.69,757.80,749.89,751.66,755.26,-72.75,-993.16,223.63,1.37,-0.37,-1.92,0.21
48954,761.65,757.77,749.87,751.69,755.24,-71.29,-992.68,222.17,0.47,0.56,-2.27,0.49
48989,761.69,757.72,749.94,751.67,755.25,-67.38,-993.65,243.65,0.56,-0.31,-0.30,-0.05
49024,761.62,757.79,749.86,751.73,755.25,-79.10,-995.61,239.75,1.05,0.00,-0.44,0.49
49060,761.65,757.76,749.81,751.63,755.21,-69.34,-996.58,236.33,-1.00,1.23,-1.31,0.88
49095,761.66,757.66,749.87,751.66,755.21,-73.24,-986.33,222.17,-2.22,0.44,1.05,0.64
49130,761.64,757.76,749.87,751.65,755.23,-81.05,-997.07,227.54,-1.73,0.21,-1.24,0.47
49166,761.61,757.70,749.91,751.67,755.22,-73.24,-990.23,219.73,-0.93,-1.40,-2.24,0.25
49201,761.70,757.68,749.94,751.72,755.26,-79.10,-992.68,224.61,-0.73,2.76,-0.18,0.05
49236,761.69,757.73,749.91,751.66,755.25,-75.68,-996.09,236.33,-0.91,0.24,0.38,0.20
49272,761.64,757.73,749.96,751.72,755.26,-64.45,-989.75,229.98,0.27,1.77,-3.77,-0.18
49307,761.70,757.71,749.83,751.69,755.23,-78.12,-1000.49,240.72,2.76,0.21,-0.78,0.68
49343,761.71,757.79,749.86,751.72,755.27,-78.61,-981.93,229.98,0.41,0.86,0.41,0.48
49378,761.56,757.78,749.85,751.70,755.22,-77.15,-990.72,239.26,-0.85,0.56,1.06,0.64
49413,761.69,757.71,749.86,751.67,755.23,-83.50,-981.93,225.10,-0.76,0.82,-0.51,0.64
49449,761.67,757.75,749.91,751.69,755.25,-79.10,-986.33,226.56,-0.27,0.94,-0.60,0.19
49487,761.58,757.79,749.91,751.68,755.24,-83.98,-991.70,233.89,-1.56,0.50,0.85,0.13
49527,761.62,757.73,749.93,751.64,755.23,-89.84,-994.14,235.35,-1.02,-0.29,0.00,-0.02
49562,761.58,757.73,749.98,751.63,755.23,-80.57,-984.37,223.63,-0.34,2.02,-2.40,-0.43
49598,761.60,757.73,749.94,751.69,755.24,-77.15,-984.86,224.12,-2.07,0.65,-0.47,-0.06
49633,761.64,757.79,749.91,751.69,755.26,-73.24,-984.37,227.54,-0.78,4.16,-3.23,0.07
49668,761.65,757.70,749.90,751.66,755.23,-82.03,-993.16,214.84,-0.11,-0.32,-2.86,0.34
49703,761.63,757.75,749.91,751.67,755.24,-66.41,-984.37,227.54,-0.98,-1.21,-0.57,0.19
49739,761.66,757.73,749.90,751.66,755.24,-77.15,-982.91,240.72,0.09,-0.45,-0.02,0.29
49774,761.65,757.71,749.86,751.66,755.22,-86.43,-990.72,232.42,-0.72,0.79,-0.66,0.64
