currTime,s1,s2,s3,s4,s,AccX,AccY,AccZ,GyroX,GyroY,GyroZ,GRF
27,799.71,780.03,763.10,767.48,777.58,-26.86,-896.97,499.51,1.18,1.47,-1.20,-365.06
63,799.42,780.10,763.11,767.64,777.57,-41.99,-888.67,477.54,-0.69,-1.54,-1.33,-366.81
98,799.13,780.19,763.20,767.77,777.57,-30.27,-907.71,489.26,-0.98,0.69,-1.73,-366.33
134,798.87,780.25,763.22,767.78,777.53,-19.04,-887.21,480.47,0.27,1.02,-3.41,-365.51
171,798.69,780.36,763.19,767.84,777.52,-25.88,-882.32,494.63,-1.45,1.29,-2.27,-367.46
206,798.52,780.39,763.25,767.85,777.50,-33.69,-895.51,498.54,-0.59,1.15,-0.50,-365.74
247,798.37,780.43,763.23,767.94,777.49,-33.69,-893.55,482.91,-0.85,1.43,-0.97,-367.46
283,798.14,780.46,763.29,767.99,777.47,-28.32,-896.00,494.14,-1.31,-1.28,-0.53,-365.98
319,798.04,780.46,763.31,768.04,777.46,-26.86,-905.27,484.86,-1.02,2.28,0.78,-365.92
354,797.94,780.50,763.25,768.01,777.43,-25.88,-896.97,487.30,-1.35,-0.84,-0.76,-366.98
391,797.83,780.50,763.33,768.03,777.42,-26.86,-901.86,489.26,-0.68,-0.21,-2.52,-364.83
427,797.74,780.46,763.33,768.02,777.39,-28.32,-896.97,490.23,-0.79,-1.01,-0.97,-364.21
466,797.73,780.42,763.27,768.02,777.36,-12.70,-893.55,497.56,-0.73,-0.49,-1.61,-365.23
502,797.80,780.50,763.28,768.01,777.40,-36.13,-899.90,474.61,1.58,-0.96,0.19,-365.69
538,797.77,780.44,763.29,768.02,777.38,-21.00,-897.95,493.65,-0.96,2.23,0.76,-365.00
574,797.84,780.46,763.28,767.95,777.38,-24.90,-902.83,487.30,0.92,-0.34,-1.28,-364.59
610,797.97,780.41,763.27,767.92,777.39,-28.81,-898.93,491.70,0.05,-0.88,-0.85,-364.56
648,797.99,780.41,763.28,767.91,777.40,-22.46,-907.23,483.89,1.81,0.44,0.07,-364.10
685,797.97,780.43,763.37,767.95,777.43,-32.23,-904.79,493.16,-2.42,-1.44,-2.08,-362.77
721,797.99,780.40,763.32,767.96,777.42,-28.32,-898.44,489.75,0.32,3.72,-2.36,-363.85
757,798.06,780.34,763.33,767.99,777.43,-26.37,-903.81,491.70,-2.20,-0.55,-0.08,-363.94
794,797.95,780.38,763.34,767.95,777.41,-41.50,-897.46,484.37,-1.35,-0.22,-0.06,-362.85
830,797.99,780.36,763.29,767.94,777.40,-30.76,-901.86,482.42,0.55,-2.64,3.06,-363.88
869,798.08,780.32,763.29,767.95,777.41,-32.23,-895.02,496.09,-0.63,-0.71,2.24,-364.17
905,798.06,780.39,763.31,767.97,777.43,-28.81,-891.60,491.21,-0.37,-2.37,-0.92,-364.41
942,798.03,780.34,763.29,768.00,777.42,-27.83,-906.74,481.45,0.26,1.08,1.08,-364.74
978,797.92,780.36,763.26,768.03,777.39,-29.30,-902.83,483.40,-1.39,-1.69,-1.07,-365.99
1014,798.01,780.40,763.32,767.92,777.41,-36.13,-900.39,482.42,0.92,0.60,-1.50,-363.39
1051,798.03,780.42,763.26,767.88,777.40,-28.32,-903.32,489.75,-0.75,-2.11,-0.34,-364.43
1090,798.16,780.42,763.16,767.97,777.43,-35.64,-901.86,489.26,2.73,-4.15,-2.60,-368.61
1127,798.13,780.45,763.31,767.97,777.47,-23.44,-893.07,478.52,-0.25,2.39,1.60,-364.98
1163,798.07,780.47,763.27,768.01,777.45,-27.83,-900.39,477.54,0.11,-0.09,1.56,-366.64
1199,798.10,780.44,763.29,767.99,777.45,-28.32,-906.74,475.10,0.60,0.47,0.43,-365.91
1235,798.19,780.42,763.26,768.02,777.47,-22.95,-905.76,489.75,0.27,2.82,0.52,-367.01
1272,798.28,780.38,763.31,767.91,777.47,-18.07,-908.69,486.82,-1.11,-0.40,0.69,-364.40
1311,798.31,780.33,763.25,767.89,777.44,-28.32,-898.93,495.12,0.34,2.27,-3.64,-365.06
1347,798.34,780.30,763.15,767.84,777.40,-30.76,-898.44,493.65,0.67,-1.60,0.24,-366.70
1384,798.54,780.30,763.22,767.78,777.46,-35.64,-888.67,481.93,-0.13,-0.01,1.31,-364.81
1420,798.65,780.28,763.25,767.79,777.49,-21.00,-901.86,489.26,0.31,-1.95,-0.82,-364.32
1456,799.00,780.33,763.18,767.90,777.60,-26.37,-901.86,484.37,3.95,-0.80,-2.79,-369.45
1492,799.47,780.10,763.15,767.78,777.63,-24.41,-918.46,479.49,-2.06,1.66,-1.01,-368.07
1532,799.13,779.96,763.18,767.73,777.50,-37.60,-904.30,494.63,-3.15,-0.11,-1.27,-364.44
1568,799.24,779.95,763.15,767.69,777.51,-25.39,-896.97,485.35,-1.48,-0.33,-0.76,-364.94
1604,799.54,779.89,763.22,767.61,777.56,-25.88,-899.41,485.84,-1.35,-0.43,0.94,-362.26
1641,799.82,779.81,763.04,767.51,777.54,-30.76,-890.62,480.47,0.57,3.67,-0.18,-365.72
1677,800.08,779.77,763.07,767.45,777.59,-24.41,-896.00,492.68,0.22,1.61,0.68,-364.78
1713,800.29,779.72,762.96,767.36,777.58,-26.86,-913.57,481.45,0.05,1.04,1.11,-366.66
1752,800.41,779.62,762.98,767.34,777.59,-38.57,-898.44,485.84,-0.53,-0.79,-1.85,-365.18
1789,800.48,779.56,763.05,767.42,777.63,-22.46,-898.93,497.56,2.72,-0.67,0.11,-364.47
1825,800.64,779.54,762.98,767.37,777.63,-40.04,-905.27,487.30,0.34,-0.66,-2.99,-365.84
1861,800.82,779.44,762.94,767.31,777.63,-36.13,-893.55,489.75,1.12,-4.47,1.98,-365.78
1898,801.08,779.35,763.02,767.20,777.67,-12.70,-894.04,495.61,-0.87,0.34,-0.16,-362.41
1934,801.42,779.28,762.91,767.12,777.68,-32.71,-904.79,496.58,-1.39,2.51,-1.43,-364.57
1973,801.70,779.13,762.93,767.10,777.71,-25.88,-906.25,498.05,-0.77,1.18,-0.55,-363.59
2009,801.86,779.09,762.90,767.06,777.73,-34.18,-897.95,498.54,-1.54,-1.26,-1.92,-363.94
2046,802.04,778.93,762.86,766.98,777.70,-15.63,-893.55,488.77,0.58,2.21,-0.13,-363.01
2082,802.39,778.92,762.89,766.91,777.78,-26.37,-906.25,493.65,0.91,0.49,-1.57,-362.35
2119,802.72,778.77,762.75,766.89,777.78,-21.97,-908.69,471.68,-0.75,2.53,-3.02,-365.52
2158,802.88,778.69,762.87,766.75,777.80,-30.27,-912.11,486.82,0.08,2.31,-1.06,-360.33
2194,803.00,778.68,762.85,766.79,777.83,-14.65,-896.97,491.70,-2.18,2.37,-0.34,-361.83
2230,803.06,778.66,762.81,766.75,777.82,-34.67,-904.30,490.72,-0.95,0.32,-0.57,-362.11
2266,803.23,778.58,762.80,766.71,777.83,-13.18,-894.53,521.97,-0.08,-0.24,-3.20,-361.84
2302,803.37,778.52,762.77,766.60,777.81,-35.64,-872.07,511.23,0.63,-0.76,-0.84,-360.86
2338,803.33,778.31,762.73,766.61,777.74,-44.92,-906.74,488.77,-0.42,2.13,0.43,-360.24
2377,803.12,778.26,762.66,766.52,777.64,-36.62,-886.23,483.89,-2.35,-0.53,1.98,-359.41
2413,803.15,778.26,762.73,766.54,777.67,-35.64,-898.93,493.65,0.22,-0.92,1.07,-358.09
2450,803.06,778.22,762.75,766.52,777.64,-33.69,-905.76,484.86,-0.34,-1.18,-0.01,-356.96
2486,802.99,778.14,762.68,766.48,777.57,-15.14,-900.39,488.28,-0.42,-1.70,2.20,-357.13
2522,803.00,778.13,762.80,766.43,777.59,-31.74,-893.07,482.42,0.61,1.53,1.40,-353.16
2559,802.96,778.15,762.67,766.43,777.55,-52.25,-907.23,510.74,-1.50,2.54,-1.39,-356.44
2598,803.07,778.05,762.62,766.43,777.54,-29.79,-904.30,496.09,-1.95,2.53,-0.05,-357.51
2634,803.30,778.12,762.67,766.44,777.63,-17.58,-896.97,485.35,-1.35,-1.34,-1.05,-357.63
2670,803.57,778.03,762.69,766.41,777.68,-31.74,-887.21,493.16,-2.06,2.18,0.15,-356.80
2736,803.85,778.07,762.58,766.29,777.70,-21.97,-889.16,485.84,-4.02,-3.26,-1.91,-359.13
2772,804.03,778.02,762.59,766.29,777.73,-39.55,-926.27,484.86,-1.95,2.46,-1.18,-359.13
2809,804.18,778.07,762.60,766.25,777.78,-18.07,-881.84,484.86,-0.45,0.77,-2.53,-359.09
2847,804.38,777.99,762.64,766.26,777.82,-18.07,-904.79,469.24,-7.18,-2.36,0.18,-358.42
2883,804.42,777.95,762.58,766.34,777.82,-37.60,-904.30,486.82,-0.29,-1.36,1.18,-360.78
2919,804.48,777.96,762.51,766.40,777.83,-36.62,-900.88,486.82,1.92,1.73,-0.82,-363.81
2955,804.69,777.90,762.56,766.33,777.87,-38.09,-904.30,479.49,-0.12,1.98,-1.85,-361.58
2991,804.77,777.97,762.61,766.34,777.92,-27.34,-896.97,492.68,0.95,1.95,0.45,-361.63
3027,804.77,778.01,762.63,766.35,777.94,-28.81,-901.37,499.02,-0.03,-3.08,-0.86,-361.41
3066,804.68,778.08,762.60,766.40,777.94,-38.57,-901.86,497.56,-0.47,2.14,-1.56,-363.03
3102,804.64,778.12,762.70,766.41,777.97,-0.98,-871.09,497.07,0.16,-4.34,-1.85,-361.15
3138,804.68,778.04,762.66,766.47,777.96,-31.25,-882.32,539.55,3.02,-2.19,0.92,-362.24
3174,804.76,778.13,762.63,766.47,778.00,-27.83,-887.70,486.33,-1.11,2.95,-1.98,-364.13
3210,804.72,778.12,762.61,766.50,777.99,-62.99,-1011.23,422.36,-4.52,-1.91,-0.94,-364.73
3246,804.61,778.18,762.67,766.64,778.03,-30.27,-855.96,518.07,0.67,1.18,-2.18,-365.60
3284,804.42,778.20,762.64,766.64,777.98,-51.76,-943.36,431.15,-0.59,1.76,-1.64,-365.73
3320,804.30,778.28,762.62,766.64,777.96,-26.37,-887.70,481.45,3.57,-2.79,-1.72,-366.44
3356,804.28,778.12,762.68,766.61,777.92,-10.25,-921.87,472.17,0.58,-1.46,-2.91,-363.16
3393,804.09,778.22,762.66,766.64,777.90,-35.16,-884.77,490.72,-2.25,-0.12,-1.65,-364.35
3429,803.88,778.36,762.76,766.70,777.92,-18.55,-891.60,494.14,-0.44,-0.05,-2.15,-363.17
3472,803.72,778.26,762.68,766.64,777.83,-51.76,-895.51,487.79,-4.96,1.41,2.64,-362.97
3508,803.82,778.22,762.73,766.69,777.86,-14.65,-893.07,480.96,2.53,0.09,-1.69,-362.32
3544,803.72,778.37,762.68,766.75,777.88,-36.13,-886.23,487.30,-1.61,-0.97,-0.17,-365.50
3580,803.59,778.31,762.70,766.76,777.84,-27.83,-903.32,486.33,0.74,1.20,-0.20,-364.06
3616,803.50,778.31,762.83,766.85,777.87,-35.16,-897.46,497.07,2.34,-2.18,0.73,-361.87
3652,803.48,778.42,762.78,766.83,777.88,-28.81,-916.99,487.30,-1.15,2.93,-0.23,-363.51
3692,803.43,778.36,762.78,766.87,777.86,-25.88,-906.25,497.56,-0.08,-0.63,0.27,-363.62
3728,803.36,778.41,762.84,766.83,777.86,-22.46,-877.93,495.12,0.84,0.14,-2.31,-361.55
3764,803.15,778.39,762.82,766.94,777.82,-10.74,-897.95,511.23,1.74,-0.12,-1.79,-363.08
3800,803.06,778.52,762.72,767.00,777.82,-21.00,-898.93,480.47,-0.02,1.52,-2.28,-367.12
3836,802.88,778.47,762.86,766.96,777.79,-25.39,-888.67,488.28,-0.17,0.56,1.55,-361.76
3871,802.88,778.49,762.86,766.97,777.80,-35.64,-893.07,492.68,-1.60,1.16,-0.79,-362.23
3910,802.76,778.52,762.91,767.05,777.81,-22.46,-894.53,491.21,-2.72,0.43,-0.89,-361.93
3946,802.41,778.55,762.86,767.12,777.73,-15.14,-881.84,487.79,-1.46,-1.66,-0.11,-363.17
3982,802.33,778.56,762.97,767.23,777.77,-29.30,-898.93,482.91,1.44,-1.17,0.69,-362.00
4017,802.18,778.70,762.87,767.28,777.76,-32.71,-889.65,497.07,-1.74,-0.76,-1.03,-365.79
4053,802.03,778.78,762.90,767.35,777.77,-22.95,-899.90,508.30,-1.12,-0.11,-1.43,-366.08
4089,802.27,778.71,762.97,767.47,777.85,-37.60,-875.98,495.61,3.08,-0.74,-1.24,-366.64
4127,802.49,778.75,762.95,767.50,777.92,-90.33,-979.00,492.19,-4.37,-0.98,-1.35,-368.46
4163,802.70,778.74,762.92,767.52,777.97,-33.69,-885.25,500.49,0.22,1.55,-0.13,-370.14
4199,802.89,778.67,762.92,767.56,778.01,-39.06,-907.23,480.47,-2.60,-0.03,-0.46,-370.86
4235,802.83,778.66,762.97,767.62,778.02,-30.27,-899.90,485.35,-0.66,-2.50,-2.46,-370.28
4271,802.42,778.75,762.95,767.84,777.99,-35.64,-891.11,500.98,1.27,0.95,-1.81,-373.33
4308,801.59,778.89,763.17,768.24,777.97,-74.22,-721.19,603.03,3.97,-12.67,0.03,-371.91
4346,800.14,779.33,763.25,768.65,777.84,-76.66,-925.78,574.22,-0.75,2.89,-0.66,-374.48
4382,799.21,779.66,763.40,769.03,777.83,-17.58,-871.09,464.84,-0.96,0.56,0.89,-375.95
4419,798.41,779.92,763.50,769.27,777.77,-20.02,-930.66,609.86,-11.20,-0.34,-1.78,-376.29
4455,797.78,780.03,763.44,769.43,777.67,-66.41,-916.02,486.82,-8.66,2.76,-0.82,-378.84
4491,797.24,780.08,763.52,769.56,777.60,-18.07,-886.23,493.65,-0.43,2.28,1.50,-377.23
4527,797.10,780.20,763.51,769.63,777.61,-25.88,-893.55,479.98,-1.53,1.96,-0.15,-379.01
4565,796.75,780.21,763.52,769.65,777.53,-31.74,-911.13,513.67,-1.66,1.09,1.77,-378.02
4602,796.87,780.18,763.65,769.65,777.59,-39.06,-906.25,494.63,-2.21,0.38,-0.53,-375.00
4638,796.87,780.21,763.58,769.73,777.60,-69.82,-952.64,462.89,4.26,-2.52,-1.00,-378.16
4674,796.57,780.36,763.64,769.71,777.57,-39.55,-887.21,500.00,-0.68,0.62,1.28,-376.52
4710,796.14,780.41,763.57,769.88,777.50,-22.95,-897.46,499.02,0.10,2.30,-1.80,-379.78
4749,795.23,780.53,763.73,770.22,777.43,-29.30,-894.53,474.61,-2.18,-0.37,-1.37,-378.67
4785,793.71,780.83,763.86,770.63,777.26,-18.07,-896.00,498.05,-1.09,-0.32,-0.73,-378.64
4821,792.28,781.08,764.00,770.92,777.07,-19.53,-901.86,495.12,-0.12,-2.85,-2.08,-376.50
4857,791.08,781.35,764.13,771.28,776.96,-22.95,-897.95,489.26,-0.92,1.87,-0.66,-376.29
4893,790.38,781.55,764.26,771.59,776.94,-30.76,-893.55,485.35,-2.10,0.78,-0.88,-376.82
4929,790.22,781.66,764.25,771.73,776.97,-20.51,-897.95,484.86,-0.33,-0.31,-0.02,-379.65
4968,790.42,781.56,764.24,771.84,777.02,-31.74,-918.95,481.93,0.35,0.60,-0.14,-381.54
5004,790.84,781.61,764.24,771.84,777.13,-22.46,-880.86,496.09,0.06,-2.69,-0.20,-383.11
5040,791.42,781.45,764.25,771.73,777.21,-23.44,-890.62,496.58,2.51,-1.16,1.87,-382.17
5076,792.45,781.28,764.08,771.41,777.31,-21.00,-891.60,501.95,-1.65,-1.16,-0.31,-383.76
5112,793.61,780.95,763.99,771.16,777.43,-19.04,-896.00,485.84,0.46,1.18,-1.02,-383.80
5148,794.67,780.71,763.85,770.96,777.55,-34.18,-897.95,498.05,0.71,0.56,1.20,-385.97
5187,795.78,780.51,763.82,770.75,777.72,-26.86,-893.07,491.70,0.13,3.05,0.68,-385.74
5223,796.43,780.44,763.79,770.73,777.85,-32.71,-892.58,487.79,-0.19,2.68,1.27,-387.85
5260,797.19,780.42,763.81,770.72,778.04,-23.44,-889.16,495.12,1.32,-0.98,1.00,-389.61
5296,797.72,780.22,763.85,770.72,778.13,-27.83,-882.81,498.54,-0.61,-2.26,-0.87,-388.75
5332,798.27,780.33,763.70,770.71,778.25,-37.11,-881.84,492.68,1.48,-1.54,-1.25,-395.27
5368,798.87,780.18,763.70,770.66,778.35,-34.18,-877.93,491.21,-1.19,-0.44,0.76,-395.42
5407,799.49,780.07,763.68,770.57,778.45,-24.90,-895.51,496.58,1.21,1.51,1.60,-395.97
5443,800.30,780.06,763.64,770.56,778.64,-33.69,-897.95,496.09,0.14,-1.06,0.18,-399.29
5479,800.97,780.08,763.60,770.69,778.83,-31.74,-884.77,494.14,0.18,1.03,-0.70,-404.85
5515,801.49,779.96,763.65,770.71,778.95,-22.95,-891.11,509.77,1.86,0.47,-1.64,-404.74
5551,801.90,780.15,763.72,770.78,779.14,-23.44,-896.97,501.46,0.80,-2.50,-1.48,-406.78
5588,801.79,780.20,763.81,770.93,779.18,-24.41,-891.60,492.68,1.65,-2.56,-1.15,-406.86
5627,801.78,780.34,763.79,771.06,779.24,-21.97,-906.74,508.30,0.40,-1.18,-0.93,-410.31
5663,801.50,780.39,763.82,771.28,779.25,-35.16,-898.44,498.54,1.24,-1.32,0.44,-412.17
5699,801.48,780.50,763.89,771.43,779.33,-31.25,-892.09,496.09,-0.20,0.72,-1.85,-413.48
5734,801.36,780.60,763.89,771.53,779.35,-29.79,-899.41,491.70,0.63,0.18,-0.32,-415.23
5770,801.28,780.66,763.99,771.57,779.38,-20.51,-885.25,508.79,1.36,-0.62,1.27,-413.69
5806,801.22,780.70,763.90,771.50,779.33,-28.81,-896.48,494.14,-1.17,-1.62,-1.43,-415.02
5845,801.22,780.68,763.98,771.46,779.33,-34.67,-889.16,506.84,-1.53,-0.95,-1.47,-412.24
5881,801.06,780.69,763.90,771.52,779.29,-26.86,-883.79,505.37,-2.76,1.42,-2.15,-414.66
5917,800.79,780.72,763.98,771.49,779.24,-34.67,-902.83,500.98,0.18,-0.89,-0.44,-411.58
5953,800.61,780.76,763.87,771.53,779.19,-20.02,-896.97,504.39,-1.75,1.76,-0.68,-414.67
5989,800.21,780.88,764.03,771.74,779.21,-21.48,-895.51,499.51,-0.54,-1.24,1.11,-413.35
6028,799.56,780.88,763.95,771.84,779.05,-23.44,-898.44,499.51,-0.44,-0.82,-1.20,-414.52
6064,799.05,780.92,764.03,772.02,779.01,-26.37,-898.44,491.70,-1.47,-0.98,-1.34,-413.93
6100,798.60,780.99,764.08,772.14,778.95,-26.86,-881.84,498.05,1.24,-2.41,-1.92,-413.42
6136,798.38,781.04,764.17,772.17,778.94,-23.44,-885.74,507.32,-0.66,0.28,1.59,-411.23
6173,797.90,781.17,764.04,772.30,778.85,-23.44,-888.67,494.63,-1.73,0.57,0.16,-415.60
6209,797.72,781.16,764.19,772.28,778.84,-24.90,-886.23,501.46,-0.92,-1.21,-1.01,-410.92
6248,797.32,781.11,764.23,772.35,778.75,-17.58,-894.04,510.25,-0.38,1.66,-1.45,-409.22
6284,797.11,781.18,764.26,772.43,778.75,-21.97,-896.00,507.81,-1.31,-0.82,-0.73,-409.53
6320,796.94,781.13,764.34,772.58,778.75,-24.41,-884.77,494.63,-1.97,0.00,-0.01,-408.77
6356,796.45,781.25,764.34,772.71,778.69,-26.86,-889.16,493.16,0.84,0.07,0.72,-409.97
6392,796.13,781.48,764.30,772.97,778.72,-32.71,-897.46,487.30,0.10,-0.85,0.15,-415.41
6429,795.82,781.59,764.41,773.13,778.74,-19.04,-892.09,496.58,-0.76,-0.33,0.57,-414.83
6467,795.41,781.66,764.53,773.39,778.75,-29.30,-887.70,512.21,0.45,-0.66,-0.31,-414.95
6503,794.96,781.89,764.60,773.58,778.76,-30.27,-882.32,500.49,1.00,3.27,1.53,-416.12
6540,794.69,781.97,764.64,773.61,778.73,-25.88,-908.69,519.53,-0.31,-0.98,-1.07,-415.32
6576,794.32,782.03,764.67,773.76,778.70,-22.46,-883.79,509.77,-0.78,-0.59,-0.40,-415.99
6612,794.21,782.17,764.73,773.83,778.74,-29.30,-893.55,500.98,-0.71,0.63,1.24,-416.23
6649,794.26,782.17,764.74,773.97,778.79,-17.58,-896.48,496.09,1.19,-1.59,0.52,-418.36
6688,794.15,782.23,764.83,774.02,778.81,-25.88,-886.23,495.12,-2.34,1.83,-0.51,-416.86
6724,793.86,782.29,764.85,774.12,778.78,-26.86,-891.11,497.56,0.18,-0.85,-0.57,-417.41
6760,793.74,782.33,764.85,774.22,778.79,-25.88,-887.70,503.91,-0.18,-0.25,1.09,-418.76
6796,793.86,782.38,764.87,774.44,778.89,-19.53,-889.16,499.02,0.51,1.18,-1.16,-422.32
6832,793.64,782.71,764.96,774.60,778.98,-24.41,-885.74,501.46,1.12,0.35,-1.01,-424.27
6869,793.81,783.06,765.05,774.92,779.21,-17.58,-910.64,514.65,1.22,-2.15,0.22,-430.29
6907,794.40,783.58,765.21,775.23,779.60,-21.48,-881.35,492.68,0.21,1.81,2.16,-436.84
6944,795.24,784.25,765.38,775.81,780.17,-13.67,-877.93,516.60,3.31,-1.02,-0.13,-449.53
6980,796.28,784.97,765.57,776.47,780.82,-38.57,-888.18,500.00,3.50,0.85,2.30,-463.79
7016,797.26,785.52,765.95,777.40,781.53,-18.07,-893.55,503.42,1.42,-0.03,0.31,-475.70
7052,797.17,785.87,766.31,778.28,781.91,-11.72,-894.04,500.98,0.69,0.00,-0.31,-482.27
7089,796.01,786.09,766.44,778.91,781.86,-19.53,-893.55,518.07,2.00,-1.85,-1.02,-486.14
7127,794.60,786.15,766.70,779.34,781.70,-27.83,-893.55,503.42,-0.44,-1.91,-2.52,-481.56
7163,791.91,786.02,766.79,779.52,781.06,-23.44,-891.60,510.25,-3.28,1.38,1.34,-471.68
7199,788.72,785.59,766.86,779.52,780.17,-40.04,-902.34,504.39,-3.29,-4.31,-0.93,-455.68
7235,784.80,785.21,766.96,779.52,779.12,-25.88,-892.09,502.44,-9.11,-1.30,-0.73,-436.61
7271,780.62,784.71,766.91,779.16,777.85,-22.46,-881.35,505.37,-9.93,1.44,-2.43,-414.31
7310,776.61,783.64,766.41,777.15,775.95,-17.09,-892.58,497.56,-12.96,3.39,-2.62,-374.67
7346,772.11,780.95,764.94,772.38,772.59,-34.18,-880.37,504.39,-26.44,8.36,-1.85,-304.12
7382,765.16,776.77,762.98,766.54,767.86,-64.94,-958.01,446.29,-47.92,5.74,-3.48,-209.71
7418,758.07,771.24,761.07,761.96,763.09,-0.98,-979.00,423.83,-67.37,-2.33,-6.44,-121.10
7454,756.82,766.25,760.03,759.53,760.66,36.62,-892.09,384.77,-39.66,-0.32,-33.96,-66.93
7490,756.24,763.29,759.52,758.56,759.40,-89.84,-880.37,463.38,-41.46,56.43,-22.08,-39.67
7529,755.75,761.72,759.18,758.35,758.75,-178.22,-1072.27,592.29,-16.73,129.18,-15.19,-30.94
7565,755.24,761.14,759.12,758.25,758.44,-307.62,-874.51,431.15,32.03,133.66,7.26,-24.42
7601,754.82,760.76,759.06,758.25,758.22,-124.02,-931.15,324.22,25.18,130.50,-6.28,-21.40
7638,754.51,760.52,759.10,758.29,758.11,-41.02,-922.36,254.39,3.57,152.50,-24.61,-18.04
7674,754.23,760.33,759.00,758.27,757.96,-48.83,-942.87,309.08,-14.39,182.56,-34.61,-17.79
7710,754.00,760.20,759.02,758.18,757.85,-16.11,-951.17,377.44,-27.11,201.82,-47.67,-13.99
7749,754.10,760.26,758.97,758.08,757.85,117.19,-681.64,376.46,1.65,194.61,-66.63,-14.56
7785,754.31,760.23,758.99,758.13,757.92,105.47,-881.35,483.89,26.74,174.44,-73.15,-15.36
7821,754.81,760.28,758.94,758.18,758.05,121.09,-895.51,601.56,56.84,132.40,-80.76,-19.58
7857,760.13,760.66,759.01,758.84,759.66,-210.45,-1023.93,-30.27,107.65,26.47,-80.08,-48.76
7894,775.19,764.03,759.56,761.11,764.97,262.21,-363.28,1271.00,174.66,-55.05,-12.89,-147.23
7933,790.36,769.15,760.52,765.10,771.28,38.57,-823.73,503.42,46.72,-10.60,-8.81,-275.20
7969,804.62,774.03,761.62,770.46,777.68,6.35,-904.30,515.62,42.73,-8.69,-6.73,-414.78
8005,822.22,778.49,762.84,775.35,784.73,0.49,-869.63,565.92,18.21,-1.47,-4.50,-552.45
8041,828.98,782.34,763.85,779.17,788.58,-11.23,-866.70,541.50,4.85,1.26,-5.40,-637.48
8078,831.06,785.15,764.68,781.87,790.69,-19.53,-866.70,517.58,4.63,1.25,-6.39,-686.15
8114,830.56,786.53,764.99,783.10,791.30,-14.16,-876.46,529.79,3.74,-1.24,-5.61,-706.12
8153,827.49,786.52,765.09,782.68,790.44,-23.44,-875.00,533.69,0.91,2.12,-1.95,-686.81
8189,823.96,785.76,764.85,781.70,789.07,-19.04,-888.67,517.58,-1.53,3.43,0.96,-660.00
8225,821.23,785.12,764.68,780.56,787.90,-18.55,-878.91,521.00,-0.76,3.19,-1.24,-632.99
8262,820.31,785.16,764.60,779.92,787.50,-25.39,-885.74,511.72,1.91,4.77,-2.15,-622.90
8298,820.82,785.67,764.62,779.80,787.73,-30.27,-896.97,506.84,1.08,6.32,-3.35,-626.34
8334,821.55,786.50,764.77,780.03,788.21,-3.42,-889.16,514.65,0.25,0.51,-4.69,-635.29
8373,821.55,787.54,765.06,780.64,788.70,-32.23,-873.54,513.67,3.24,5.42,-2.69,-645.34
8409,820.18,788.47,765.28,781.08,788.75,-17.58,-877.93,526.37,-0.50,5.25,-0.92,-649.14
8445,817.70,789.10,765.40,781.43,788.41,-27.34,-896.97,530.27,-2.22,3.58,-1.69,-647.62
8482,815.15,789.56,765.58,781.60,787.97,-4.88,-890.62,544.43,-3.02,3.29,-2.60,-640.73
8518,813.45,789.74,765.64,781.78,787.65,-15.14,-868.16,519.53,-1.07,2.64,-1.57,-637.31
8555,810.61,790.47,766.01,782.83,787.48,-35.64,-901.86,506.84,-8.02,0.18,-0.30,-639.80
8594,805.95,791.11,766.39,784.08,786.88,-22.46,-878.91,517.09,-2.43,0.94,-0.66,-637.90
8630,800.76,791.49,766.70,785.33,786.07,-32.71,-922.36,506.84,-5.89,1.89,-2.50,-633.91
8666,793.96,790.72,766.69,784.43,783.95,-19.04,-908.69,518.07,-2.68,0.08,-2.85,-591.28
8702,778.92,787.12,766.48,781.86,778.59,-72.27,-959.96,465.33,-43.98,0.10,-8.76,-478.28
8738,758.74,779.22,766.20,774.39,769.64,-111.82,-1084.47,84.96,-75.12,19.79,-52.59,-242.46
8774,753.13,768.87,764.23,763.76,762.50,-289.06,-1813.96,670.41,-63.94,-6.89,-155.12,-32.84
8813,752.42,764.35,761.10,759.97,759.46,-114.75,-1890.63,972.17,-84.92,58.76,-208.66,-16.46
8849,752.80,762.67,759.32,758.60,758.35,-533.69,-1134.77,555.66,-22.94,106.93,-183.23,-28.45
8885,752.80,761.98,759.27,758.46,758.13,-909.67,-433.59,247.56,39.09,250.13,-88.53,-22.14
8921,752.63,761.46,759.11,758.37,757.89,-1064.45,-280.27,256.84,25.66,250.13,-59.33,-20.05
8957,752.26,761.11,759.13,758.32,757.70,-982.91,-382.81,469.73,-38.96,230.17,8.09,-14.81
8996,752.13,761.00,759.13,758.30,757.64,-618.16,-781.74,792.97,-69.51,158.85,54.98,-13.04
9032,751.98,760.95,759.15,758.13,757.55,-414.06,-901.86,837.89,-68.18,122.28,80.34,-9.10
9068,751.83,760.78,759.16,758.14,757.48,0.49,-966.31,937.50,-74.20,128.01,61.60,-7.16
9104,751.72,760.77,759.11,758.01,757.40,107.42,-1062.01,728.03,-47.70,190.00,39.56,-5.99
9140,751.55,760.62,759.06,758.10,757.33,225.10,-967.77,658.20,-49.63,217.15,25.84,-6.90
9176,751.49,760.55,759.07,758.07,757.29,499.02,-920.41,936.52,-54.69,217.95,18.98,-5.51
9214,751.71,760.47,758.92,758.05,757.29,142.09,-1937.99,1599.61,-77.72,175.11,-21.85,-8.87
9250,753.46,760.81,758.87,758.11,757.81,1270.02,-650.39,894.53,133.98,-0.36,5.98,-19.84
9287,775.61,761.35,758.99,758.23,763.54,-689.94,-769.04,-112.30,17.17,-20.23,-107.50,-98.90
9323,817.67,764.02,759.21,759.53,775.11,305.66,-1251.46,52.73,71.02,3.91,-131.98,-278.19
9359,828.42,769.13,759.87,763.16,780.14,45.41,-630.37,709.47,16.62,41.25,-17.42,-393.14
9395,836.51,773.16,760.61,766.51,784.20,51.76,-916.99,434.08,31.76,3.52,-12.35,-483.94
9435,844.62,776.27,761.11,768.68,787.67,-11.72,-925.29,411.13,20.83,6.66,-8.31,-556.19
9471,847.61,779.14,761.91,770.43,789.77,-17.09,-925.78,468.75,16.31,5.66,-4.35,-595.42
9507,846.05,781.69,762.65,772.47,790.71,-3.42,-928.22,436.04,9.47,3.19,-2.66,-622.24
9543,840.56,783.82,763.43,774.83,790.66,-19.04,-919.43,468.26,9.39,4.29,-4.11,-635.68
9579,833.12,786.02,764.13,777.45,790.18,-15.14,-913.09,460.45,7.07,1.31,-3.02,-649.04
9616,825.33,788.10,764.79,779.23,789.36,-14.16,-909.67,470.70,8.26,0.79,-3.98,-648.60
9655,818.44,789.88,765.36,780.88,788.64,-7.32,-921.39,475.59,9.87,3.31,-0.68,-649.51
9691,814.94,791.18,765.70,782.03,788.46,-7.32,-901.37,484.37,8.89,6.25,-1.42,-656.28
9727,811.76,792.00,765.99,783.04,788.20,-24.90,-905.27,484.37,4.63,2.78,-1.24,-659.62
9763,808.79,792.42,766.26,783.84,787.83,-21.97,-893.07,491.70,3.12,5.20,-1.83,-657.89
9799,805.91,792.98,766.62,784.91,787.60,-19.53,-888.18,491.70,2.14,2.56,-3.44,-659.15
9835,802.08,793.64,766.94,786.36,787.26,-36.13,-883.79,491.21,-0.54,2.24,-2.40,-664.82
9874,797.09,794.86,767.67,788.73,787.09,-32.71,-902.34,481.93,-2.47,6.18,-4.94,-674.14
9910,792.27,796.75,768.83,792.33,787.54,-7.81,-892.09,482.42,-2.12,6.36,-4.60,-696.71
9946,786.89,798.89,770.41,797.48,788.42,-22.95,-932.13,458.01,-4.04,3.79,-6.89,-731.82
9983,779.89,800.81,772.70,804.12,789.38,-20.02,-909.67,505.86,-7.49,3.91,-11.69,-763.95
10019,770.42,802.05,775.72,811.32,789.88,4.39,-958.01,483.40,-9.47,1.70,-15.48,-772.08
10058,759.31,800.54,779.62,816.03,788.87,-35.16,-932.13,455.57,-18.18,1.50,-21.27,-694.03
10094,752.83,793.03,782.32,810.42,784.65,-212.89,-1079.59,554.69,-43.80,-37.02,-31.48,-461.67
10130,751.75,781.00,783.61,797.07,778.36,-111.82,-1206.05,650.39,-41.08,-66.45,-80.49,-132.97
10166,751.24,770.45,780.41,780.39,770.62,-120.12,-1477.05,429.20,-35.55,-60.80,-131.15,119.19
10202,750.90,764.85,771.81,769.77,764.33,113.77,-1336.91,381.84,-10.64,-59.09,-186.15,107.42
10239,750.79,762.74,762.94,762.01,759.62,66.41,-1856.45,557.62,-24.63,-23.67,-214.51,17.77
10277,750.74,761.83,759.37,759.22,757.79,305.66,-1915.53,677.73,-21.63,17.96,-211.05,-22.51
10314,750.69,760.79,759.27,758.82,757.39,9.28,-1108.40,599.12,61.53,76.21,-50.02,-10.65
10350,750.68,760.15,759.20,758.65,757.17,-293.95,-785.64,379.39,21.97,83.74,-94.47,-4.62
10386,750.76,759.95,759.11,758.48,757.07,-608.89,-497.07,288.57,37.19,71.38,-65.18,-3.05
10423,750.70,759.87,759.08,758.47,757.03,-687.99,-197.27,183.11,2.74,45.56,4.47,-2.95
10462,750.78,759.81,759.03,758.41,757.00,-650.39,-193.36,211.43,-27.20,31.20,73.37,-3.03
10498,750.64,759.69,759.15,758.31,756.95,-569.82,-399.90,312.99,-35.75,41.44,142.78,2.72
10534,750.62,759.60,759.04,758.33,756.90,-483.40,-628.42,398.93,-33.69,68.05,194.09,0.62
10570,750.58,759.68,759.05,758.26,756.89,-416.02,-861.33,481.45,-32.44,89.52,219.51,1.40
10605,750.62,759.91,759.09,758.27,756.97,-297.85,-1230.47,603.03,-34.46,90.78,223.86,0.37
10641,750.39,760.19,759.06,758.16,756.95,-86.91,-1547.85,672.36,-71.00,88.79,191.76,-0.43
10680,750.32,760.09,759.09,758.11,756.90,508.30,-1897.95,800.78,-73.82,63.28,124.47,2.20
10716,750.28,760.07,758.97,758.08,756.85,1578.13,-1557.13,1180.18,-74.99,100.31,86.47,-0.02
10752,750.21,759.86,758.97,758.01,756.76,1807.62,-1338.38,898.44,2.67,134.58,57.65,2.96
10788,750.74,759.47,758.87,757.73,756.70,1999.94,-2000.00,1999.94,-202.67,62.05,-45.16,5.90
10824,758.24,759.29,758.86,757.64,758.51,-146.48,-226.07,413.57,-26.16,-54.08,-24.72,-17.34
10860,786.03,760.83,758.99,757.94,765.95,868.16,-1035.64,1155.76,44.79,-55.19,-212.92,-126.19
10899,813.04,764.59,759.36,759.79,774.20,-187.01,-1156.74,312.99,88.98,-35.53,-89.34,-267.12
10935,820.42,770.77,760.56,764.92,779.17,-46.88,-958.50,498.05,10.69,2.82,-27.79,-387.44
10971,831.22,775.10,761.55,768.14,784.00,-58.59,-887.70,510.25,12.94,5.53,-6.70,-482.15
11007,836.64,777.43,762.08,769.98,786.53,-16.11,-901.86,494.14,6.95,6.63,-1.70,-533.26
11044,839.01,779.23,762.64,772.10,788.24,-26.37,-906.25,488.77,3.02,6.03,-2.70,-573.05
11083,837.73,781.08,763.24,773.98,789.01,-22.46,-895.51,515.14,0.29,3.43,-3.85,-596.30
11119,834.63,782.77,763.59,775.13,789.03,-45.41,-890.14,479.98,-4.22,4.12,-2.85,-607.44
11155,829.96,784.35,763.99,776.58,788.72,-33.20,-902.34,494.63,-2.63,2.02,-2.28,-615.38
11191,824.98,785.55,764.29,777.95,788.19,-18.55,-898.93,500.49,1.48,-0.08,-3.67,-620.68
11227,820.84,786.53,764.71,779.11,787.80,-26.86,-890.14,490.72,2.60,0.69,-2.47,-620.91
11264,817.06,787.62,765.04,780.55,787.57,-21.00,-881.35,516.11,2.64,0.04,-4.85,-629.75
11302,813.21,789.15,765.54,782.36,787.56,-16.60,-886.23,510.74,4.01,0.02,-3.73,-642.84
11339,809.89,790.81,766.10,784.44,787.81,-22.46,-894.53,506.35,0.96,2.67,-4.76,-661.51
11376,806.51,792.47,766.64,786.72,788.09,-20.02,-897.95,506.84,2.00,1.91,-2.67,-683.48
11412,802.81,794.10,767.39,789.26,788.39,-23.44,-890.62,498.54,0.42,1.32,-4.66,-702.50
11448,798.11,795.81,768.21,791.72,788.46,-23.93,-889.65,506.35,-0.50,1.52,-5.85,-715.79
11484,792.36,797.72,769.27,794.95,788.58,-16.11,-892.58,505.86,-3.17,5.53,-5.21,-732.49
11523,786.29,800.05,770.91,800.41,789.41,-40.53,-923.83,486.33,-3.50,-0.54,-6.56,-769.70
11559,778.46,801.62,773.22,806.81,790.03,-26.86,-945.31,475.10,-10.14,0.33,-8.14,-792.19
11595,768.00,801.74,776.19,813.16,789.77,-43.46,-979.98,531.25,-27.65,9.74,-18.92,-776.81
11631,758.08,798.55,779.06,816.29,787.99,0.00,-913.57,494.14,-37.31,7.20,-27.67,-691.78
11668,752.42,790.32,781.54,810.58,783.72,-132.81,-1218.75,734.37,-20.66,-44.82,-32.25,-460.50
11704,751.47,778.20,782.27,796.68,777.16,-126.46,-1211.43,680.18,-18.54,-66.16,-86.53,-137.12
11743,751.01,767.92,777.65,777.18,768.44,-41.50,-1365.72,419.43,-1.66,-64.48,-152.05,118.89
11779,750.76,763.33,769.96,767.77,762.96,94.24,-1590.33,512.21,9.70,-56.17,-216.46,103.27
11815,750.61,761.43,762.68,760.99,758.93,65.92,-1268.07,537.60,-7.56,-41.33,-250.14,37.54
11851,750.71,760.99,759.25,758.81,757.44,-365.72,-1453.13,497.07,43.27,-49.90,-246.11,-12.70
11888,750.70,760.45,759.16,758.53,757.21,-671.87,-706.05,163.57,4.04,64.78,-12.75,-6.36
11926,750.66,759.77,759.06,758.42,756.98,-541.50,-412.11,103.03,28.66,31.79,28.80,-1.64
11963,750.66,759.59,759.06,758.27,756.90,-569.34,-441.89,128.91,-1.37,34.02,91.69,1.80
11999,750.67,759.48,759.03,758.24,756.86,-522.95,-454.10,143.55,-13.15,23.01,151.48,2.49
12035,750.60,759.44,759.03,758.09,756.79,-363.28,-645.51,254.88,-29.12,14.36,203.85,5.25
12071,750.55,759.64,759.07,758.04,756.82,-176.76,-1033.20,414.55,-24.78,24.98,222.34,5.72
12107,750.46,759.85,759.09,758.07,756.87,151.37,-1359.38,613.77,-11.90,51.41,198.02,4.34
12146,750.30,759.99,759.09,758.00,756.84,136.23,-1470.21,521.00,-22.30,79.86,171.27,4.70
12182,750.23,759.81,759.04,758.02,756.78,181.15,-1579.59,521.48,-65.51,51.12,105.66,4.72
12218,750.22,759.94,759.05,757.97,756.79,686.04,-1651.86,707.52,-96.06,48.82,118.82,4.88
12255,750.14,759.84,759.00,757.98,756.74,1092.77,-1444.82,718.75,-42.96,73.42,106.96,4.42
12291,750.20,759.54,758.92,757.96,756.66,1078.13,-979.00,474.12,-20.60,88.09,117.25,4.91
12327,750.45,759.34,758.89,757.77,756.61,529.79,-1472.66,645.51,141.11,-9.59,17.50,7.71
12366,752.21,759.53,758.70,757.65,757.02,603.03,-659.18,229.00,28.73,-32.52,-185.21,-2.77
12402,765.41,759.93,758.86,757.70,760.48,-193.36,-920.90,-58.59,57.25,-126.40,-121.76,-48.06
12438,797.89,761.52,758.92,758.21,769.13,195.80,-1865.72,500.00,23.89,-34.06,-165.37,-178.06
12474,821.81,767.82,759.85,761.46,777.73,924.32,-1022.46,938.96,68.56,-10.06,-22.49,-335.48
12510,823.09,772.36,760.82,764.90,780.29,68.85,-836.43,660.16,18.62,-0.22,-15.98,-402.74
12549,826.34,778.57,762.10,770.19,784.30,-84.47,-979.00,387.70,19.15,-0.34,-10.86,-509.54
12585,829.79,783.37,763.41,775.38,787.99,-49.32,-894.04,500.98,12.29,-7.71,-6.18,-603.65
12621,832.22,787.03,764.44,779.15,790.71,-24.90,-887.21,519.53,4.08,-2.35,-3.37,-671.26
12657,832.53,788.78,764.82,780.43,791.64,-45.41,-892.09,513.67,-3.64,3.00,-2.47,-695.84
12693,828.98,789.35,764.97,780.83,791.03,-54.20,-896.97,486.33,-4.58,3.24,-3.80,-690.38
12729,826.14,788.64,764.95,780.77,790.13,-49.80,-887.70,495.61,-3.23,2.22,0.95,-674.33
12768,824.14,787.95,764.91,780.31,789.33,-34.67,-894.04,498.05,-0.74,4.73,-0.16,-656.43
12804,822.51,787.24,764.82,779.49,788.51,-35.64,-887.21,494.14,0.25,4.26,1.27,-635.15
12840,823.47,785.92,764.49,778.17,788.01,-44.92,-890.14,497.07,-0.73,2.84,-2.46,-616.65
12876,827.00,784.66,764.22,776.65,788.13,-36.13,-894.04,491.70,-3.03,5.00,0.85,-603.12
12912,831.68,783.50,763.97,775.40,788.64,-43.46,-896.97,498.05,-4.24,6.61,2.01,-597.76
12948,835.18,782.86,763.94,774.91,789.22,-58.59,-911.62,480.96,-6.39,3.76,-0.49,-598.06
12987,835.29,782.64,764.17,775.19,789.32,-51.76,-922.36,485.84,-2.20,4.51,-1.82,-595.14
13023,835.20,783.44,764.64,776.38,789.91,-58.11,-915.53,457.52,1.40,3.40,-0.43,-606.87
13059,833.12,784.55,765.40,778.61,790.42,-42.48,-917.97,467.29,6.56,-2.15,-4.83,-622.71
13095,827.34,785.40,766.50,781.32,790.14,-52.73,-920.90,483.89,2.86,-1.17,-2.90,-622.02
13131,819.13,785.95,767.60,784.40,789.27,-59.57,-887.21,487.79,3.66,-1.61,-2.59,-616.32
13170,810.64,786.29,768.61,787.47,788.25,-49.80,-920.90,480.96,4.77,-1.63,-3.18,-609.98
13206,804.32,786.50,769.36,789.64,787.46,-35.64,-894.53,508.30,5.68,-1.95,-4.80,-602.95
13242,798.52,786.42,769.95,791.82,786.68,-42.48,-882.81,499.02,1.66,0.17,-4.04,-600.01
13278,794.08,786.31,770.31,793.65,786.09,-37.60,-881.35,495.61,3.89,1.28,-3.22,-601.79
13315,790.93,786.10,770.69,795.17,785.72,-21.00,-877.44,533.20,3.86,-1.30,-3.88,-602.29
13351,786.51,785.75,770.89,796.46,784.90,-41.02,-889.16,496.58,-2.83,4.21,-3.70,-598.31
13390,780.69,784.77,771.27,797.96,783.67,-49.80,-944.34,487.30,4.24,2.04,-7.80,-582.90
13426,772.52,782.18,771.58,799.67,781.49,-47.85,-980.47,474.12,8.67,1.60,-16.87,-551.54
13462,762.76,777.78,771.91,799.60,778.01,-2.44,-988.28,507.32,9.62,5.58,-24.45,-473.75
13498,754.07,771.90,771.80,792.62,772.60,-70.31,-1016.60,576.66,30.94,-6.21,-29.76,-296.54
13534,752.37,766.34,771.03,778.98,767.18,-181.15,-1173.83,871.09,-21.63,-38.08,-79.40,-64.64
13570,751.82,762.39,768.47,767.23,762.48,-113.77,-1147.95,640.62,0.56,-63.37,-114.32,78.21
13609,751.36,760.43,764.29,761.92,759.50,-59.57,-1432.13,625.98,17.98,-70.79,-156.34,69.29
13645,751.31,759.81,760.69,759.23,757.76,42.48,-1463.38,560.55,12.97,-69.89,-169.50,24.43
13681,751.72,759.77,759.24,758.29,757.26,-466.80,-415.04,381.84,89.78,-78.02,-115.55,1.08
13717,751.57,759.51,759.13,758.16,757.09,-496.09,-776.86,372.07,-7.91,24.72,28.94,2.96
13753,751.61,759.37,759.05,757.99,757.01,-240.72,-335.94,394.53,-0.12,54.41,23.21,4.30
13789,751.68,759.36,759.02,757.93,756.99,-416.50,-391.11,402.83,3.69,87.95,62.21,4.25
13827,751.67,759.36,758.95,757.87,756.96,-379.88,-468.26,411.62,-11.13,95.76,93.23,3.40
13863,751.49,759.44,758.90,757.85,756.92,-329.10,-706.05,451.66,-29.63,60.15,126.36,2.47
13899,751.34,759.56,758.96,757.81,756.92,126.95,-985.84,726.07,-49.20,20.19,136.57,4.01
13934,751.19,759.68,758.95,757.69,756.88,513.67,-1100.59,883.79,-46.69,50.27,103.82,5.18
13970,751.23,759.56,758.86,757.69,756.83,615.23,-1132.32,731.93,-37.27,45.15,84.50,3.74
14009,751.06,759.32,758.85,757.57,756.70,706.05,-1044.43,688.48,-51.53,17.41,82.38,7.92
14045,751.08,759.26,758.81,757.64,756.70,636.23,-1104.98,615.23,-33.20,-24.19,65.32,6.12
14081,751.04,759.32,758.82,757.64,756.70,535.64,-1043.46,379.88,-0.90,-45.16,59.88,6.04
14116,751.12,759.44,758.75,757.64,756.74,386.23,-841.80,202.64,-16.20,-42.05,34.35,3.23
14152,753.90,759.85,758.82,757.61,757.54,-232.42,-1495.12,664.55,-15.73,-94.47,-16.20,-7.36
14188,764.41,760.49,758.86,757.82,760.40,81.54,-1747.07,380.86,13.53,-113.52,-53.03,-50.95
14226,789.47,762.30,759.07,759.11,767.49,12.21,-951.66,532.23,82.73,-32.03,-32.07,-165.00
14263,798.05,764.45,759.50,760.56,770.64,-86.43,-811.52,621.09,26.01,-4.95,-10.50,-222.42
14299,800.24,767.50,760.02,762.43,772.55,-67.38,-838.87,559.08,9.74,6.01,-14.34,-269.00
14336,802.55,771.45,760.73,764.56,774.82,-37.11,-885.74,480.96,6.10,4.44,-12.00,-322.16
14372,805.30,773.84,761.37,766.29,776.70,-18.07,-868.65,547.85,1.49,5.20,-2.88,-360.17
14408,807.20,774.77,761.52,767.23,777.68,-40.04,-864.75,546.87,-3.38,2.03,-0.07,-384.19
14446,806.28,775.67,761.77,768.15,777.97,-24.41,-858.89,558.59,-4.44,1.11,-5.31,-395.64
14482,807.82,776.86,762.13,769.15,778.99,-27.34,-851.56,541.02,-5.71,1.24,-0.98,-416.41
14518,816.05,778.95,762.67,770.39,782.01,-23.93,-884.77,515.14,2.21,-0.59,-1.80,-466.11
14555,826.91,780.76,763.12,772.02,785.70,-53.71,-886.72,527.83,1.02,2.52,0.11,-530.65
14591,831.42,782.04,763.60,773.60,787.66,-25.88,-870.61,549.80,1.82,-1.32,-1.51,-567.72
14629,829.80,782.75,764.01,774.63,787.80,-31.74,-893.55,535.64,1.06,0.27,-2.48,-572.96
14665,826.53,782.79,764.15,774.83,787.07,-26.37,-866.21,552.25,-0.57,-1.28,-2.00,-561.49
14701,823.79,782.49,764.21,775.12,786.41,-29.79,-875.00,558.59,0.85,0.98,-3.04,-552.30
14737,819.97,782.38,764.27,775.35,785.49,-39.55,-868.65,545.90,-0.03,-3.78,-0.53,-540.35
14773,816.69,782.17,764.34,775.40,784.65,-20.02,-860.35,563.96,-1.52,-2.77,-0.52,-526.34
14810,811.42,782.22,764.54,775.95,783.53,-36.13,-871.09,529.30,-3.41,-0.63,-2.56,-511.77
14848,803.77,782.93,765.05,777.46,782.30,-24.90,-869.63,548.83,-3.86,-0.50,-4.68,-500.67
14884,796.68,783.52,765.56,778.33,781.02,-24.41,-883.30,540.04,-8.34,-1.60,-0.82,-481.13
14920,790.91,783.15,765.51,777.46,779.26,-17.09,-864.75,541.50,-10.60,2.44,-2.83,-446.91
14957,785.62,781.06,764.40,773.24,776.08,-35.16,-922.36,501.95,-14.88,-0.57,-0.98,-377.38
14993,778.52,777.23,762.61,767.08,771.36,-9.28,-854.49,548.83,-22.31,1.94,2.02,-276.29
15029,770.98,770.30,760.34,761.72,765.83,-45.41,-935.06,419.43,-51.50,9.71,11.07,-172.45
15068,763.42,764.48,759.36,759.64,761.72,-10.74,-937.50,401.37,-61.66,14.83,11.11,-93.77
15104,757.37,763.00,759.39,759.78,759.88,437.50,-933.11,364.75,-27.76,14.97,-10.97,-62.29
15140,755.22,764.00,759.53,761.02,759.94,-422.36,-881.35,375.00,2.58,36.74,-20.71,-77.87
15176,756.02,766.04,760.09,763.43,761.40,-165.53,-688.96,643.55,59.37,-20.50,-24.06,-118.35
15212,758.54,769.66,761.26,766.50,763.99,-51.76,-835.45,546.39,19.24,-0.11,9.13,-172.31
15249,767.29,773.28,761.86,768.39,767.71,-66.89,-992.68,365.23,64.38,-8.56,4.18,-244.10
15288,778.63,774.22,761.79,768.22,770.72,-35.16,-859.86,528.32,24.01,5.33,0.36,-289.81
15324,785.65,773.79,761.55,766.84,771.96,-35.64,-822.27,563.48,4.27,6.12,-1.17,-296.29
15360,792.80,773.54,761.26,765.63,773.31,-43.46,-883.30,500.49,-4.83,5.43,-1.69,-307.98
15397,798.73,773.67,761.29,765.21,774.73,-37.11,-876.95,524.90,-5.58,5.40,-2.29,-322.46
15433,803.77,774.23,761.24,765.26,776.12,-62.01,-895.51,512.21,-3.95,4.56,0.02,-346.33
15471,808.04,774.88,761.34,765.59,777.46,-35.16,-871.58,525.88,-4.14,0.63,-0.08,-368.54
15507,808.67,775.72,761.52,765.89,777.95,-48.34,-892.58,525.88,-0.70,1.16,-2.56,-377.39
15544,807.83,776.34,761.65,766.49,778.08,-52.73,-890.62,515.14,0.39,-2.21,-1.58,-384.94
15580,806.07,776.68,761.76,766.85,777.84,-37.60,-869.63,523.44,-2.51,0.56,-2.92,-384.18
15616,804.58,776.79,761.91,767.08,777.59,-31.74,-880.86,520.51,0.62,-2.35,-2.65,-379.62
15652,804.09,776.87,761.89,767.11,777.49,-49.32,-885.25,514.16,-0.43,1.71,-1.17,-379.65
15691,803.92,777.06,761.89,767.19,777.52,-39.06,-877.44,519.53,-0.57,1.95,-1.19,-381.58
15727,803.58,777.20,761.92,767.20,777.47,-31.74,-885.74,530.27,0.31,3.00,-1.44,-381.02
15763,802.59,777.44,761.89,767.28,777.30,-32.71,-890.14,512.70,-2.41,0.34,-2.70,-381.47
15799,801.36,777.52,762.02,767.54,777.11,-48.83,-884.77,504.88,-1.57,-0.73,-2.12,-378.51
15835,799.58,777.54,762.02,767.55,776.67,-40.04,-876.46,518.07,-1.31,1.39,-0.64,-372.88
15870,797.83,777.45,762.04,767.65,776.24,-29.79,-893.07,518.55,-1.15,1.49,-2.38,-367.12
15909,796.26,777.42,762.06,767.92,775.92,-42.97,-880.86,508.30,-2.20,-1.26,-0.99,-364.92
15945,794.71,777.59,762.15,768.11,775.64,-31.25,-885.25,509.28,-1.24,-1.91,0.02,-361.41
15981,793.33,777.71,762.21,768.28,775.38,-40.04,-885.74,517.58,-2.16,0.10,-3.48,-358.82
16017,792.34,777.86,762.24,768.44,775.22,-37.60,-892.58,506.84,-0.59,-0.72,-1.65,-358.16
16054,791.21,778.12,762.32,768.60,775.06,-35.64,-886.72,511.23,-0.44,0.89,-1.99,-356.72
16090,790.42,778.23,762.38,768.67,774.92,-35.64,-880.86,505.86,-0.41,-1.19,-0.13,-354.48
16129,789.90,778.23,762.42,768.86,774.85,-38.57,-877.44,514.65,-0.34,-0.74,1.31,-354.42
16165,789.24,778.50,762.54,769.01,774.82,-41.50,-896.48,519.53,-2.10,3.37,-1.24,-353.47
16202,788.66,778.79,762.50,769.19,774.78,-47.36,-883.30,516.11,-0.91,0.54,-0.18,-357.43
16238,788.08,778.84,762.66,769.38,774.74,-37.11,-889.16,514.65,-1.09,-0.38,-2.64,-354.66
16274,787.89,778.93,762.71,769.36,774.72,-33.20,-887.21,517.09,-0.21,-1.09,-2.12,-353.21
16313,787.60,779.17,762.72,769.49,774.74,-41.50,-879.88,522.95,-1.02,-1.36,-1.44,-355.97
16350,787.39,779.17,762.73,769.47,774.69,-18.55,-877.93,517.09,-1.46,-1.12,-0.36,-354.63
16386,787.50,779.11,762.72,769.45,774.69,-24.41,-883.30,523.44,-0.70,1.71,-2.92,-354.49
16422,787.69,779.02,762.62,769.30,774.66,-30.27,-879.88,517.58,0.98,-0.37,-0.45,-354.53
16458,788.03,778.75,762.60,769.15,774.63,-35.16,-896.00,519.53,0.64,-1.52,0.16,-351.99
16494,788.73,778.57,762.56,768.88,774.69,-39.55,-881.84,510.74,2.30,1.00,1.93,-349.85
16533,789.57,778.17,762.39,768.54,774.67,-37.11,-877.44,505.86,0.97,0.84,1.16,-348.76
16570,790.97,777.47,762.21,767.82,774.62,-32.23,-887.70,522.95,3.24,-2.15,0.69,-341.82
16606,793.07,776.70,761.99,767.31,774.77,-43.95,-884.77,503.42,0.16,0.50,2.09,-340.87
16642,794.68,776.18,761.89,766.80,774.89,-25.39,-886.72,522.95,-0.55,2.35,0.20,-337.18
16678,795.40,775.79,761.80,766.51,774.88,-21.97,-887.21,513.67,1.05,-1.42,-4.04,-334.55
16715,796.12,775.42,761.70,766.29,774.88,-31.74,-891.60,528.81,-0.61,-1.57,0.10,-333.34
16753,797.04,775.14,761.64,765.99,774.95,-30.27,-876.95,521.00,1.63,0.11,0.09,-331.36
16790,797.70,774.80,761.60,765.70,774.95,-45.41,-888.18,524.90,-0.40,1.95,0.46,-327.56
16826,798.43,774.37,761.50,765.52,774.96,-40.04,-887.70,514.16,1.02,-0.46,0.56,-326.44
16862,799.05,774.03,761.41,765.24,774.93,-29.79,-881.84,528.81,-1.26,-0.03,0.92,-323.92
16898,799.30,773.72,761.35,765.04,774.85,-42.97,-886.23,521.97,-0.68,-0.25,0.01,-320.89
16935,799.05,773.35,761.29,764.90,774.65,-33.69,-891.11,522.95,-1.85,0.41,-0.24,-316.66
16973,799.52,773.11,761.23,764.78,774.66,-35.16,-872.07,524.90,0.85,0.27,0.11,-316.02
17010,800.28,773.07,761.21,764.68,774.81,-41.02,-873.54,510.25,0.95,1.96,-0.86,-317.28
17046,801.32,772.88,761.20,764.66,775.02,-26.37,-877.44,506.84,0.30,0.54,-1.72,-319.17
17082,802.42,772.93,761.18,764.58,775.28,-47.85,-893.07,515.62,-0.38,-0.69,-0.17,-322.68
17119,803.45,772.93,761.20,764.59,775.54,-32.23,-881.84,514.16,-0.05,1.11,-0.65,-325.82
17158,804.27,773.01,761.18,764.63,775.77,-48.83,-887.21,527.34,-2.13,2.11,0.56,-330.45
17194,804.82,773.01,761.26,764.52,775.90,-38.57,-892.58,515.14,0.69,1.56,0.70,-328.82
17230,805.28,773.11,761.19,764.60,776.05,-52.25,-888.18,528.81,-2.04,-0.85,0.61,-334.05
17266,805.38,773.13,761.25,764.54,776.07,-38.57,-868.65,519.04,0.46,-0.48,1.11,-332.07
17302,805.43,773.15,761.12,764.60,776.08,-40.04,-877.44,531.74,-2.05,-1.74,-0.25,-336.79
17338,805.23,773.38,761.22,764.83,776.16,-49.80,-890.14,523.93,-0.09,0.09,-1.08,-338.46
17377,804.23,773.68,761.34,765.22,776.12,-36.13,-887.70,515.62,-0.63,0.37,-1.73,-340.42
17413,803.01,774.07,761.42,765.56,776.01,-37.11,-893.07,521.00,-1.90,0.15,-0.94,-342.32
17449,802.06,774.39,761.46,765.79,775.93,-44.43,-891.60,520.51,-1.11,-2.06,0.47,-343.94
17485,801.10,774.58,761.58,765.91,775.79,-39.06,-871.58,525.39,-2.37,1.89,-3.30,-341.08
17521,800.59,774.67,761.55,765.96,775.69,-34.18,-885.74,521.00,2.01,1.19,-0.92,-341.34
17557,800.41,774.66,761.61,766.01,775.67,-32.23,-876.95,517.09,-0.12,1.18,0.82,-340.00
17595,800.21,774.62,761.53,765.95,775.58,-46.39,-883.79,526.86,1.31,-1.27,-1.45,-340.09
17632,800.08,774.56,761.58,765.81,775.51,-30.27,-879.88,522.95,0.27,1.31,0.26,-335.96
17668,800.01,774.46,761.46,765.74,775.42,-41.99,-887.70,517.09,-0.21,2.52,1.04,-336.82
17704,800.23,774.26,761.54,765.59,775.40,-42.48,-874.02,521.48,-0.06,0.02,0.86,-331.73
17740,800.20,774.09,761.47,765.61,775.34,-36.13,-895.02,514.16,0.26,2.83,0.61,-332.36
17777,799.91,774.13,761.47,765.58,775.27,-34.67,-895.51,526.37,-0.37,-2.07,1.65,-331.38
17816,799.71,774.16,761.46,765.63,775.24,-20.02,-887.21,515.62,-1.60,-0.16,-0.76,-331.85
17852,799.37,774.19,761.52,765.76,775.21,-40.53,-885.74,513.67,0.80,-0.79,-0.66,-331.37
17888,799.00,774.27,761.47,765.81,775.14,-48.34,-887.21,522.95,0.58,0.20,1.15,-332.64
17924,798.44,774.31,761.59,765.88,775.05,-41.02,-885.74,520.51,-2.32,0.51,-1.24,-328.98
17961,798.09,774.42,761.62,765.97,775.02,-37.11,-886.72,511.72,-0.68,0.23,-0.72,-329.22
17997,797.85,774.51,761.60,766.05,775.00,-40.53,-878.42,525.39,-0.15,2.15,-2.13,-330.98
18036,797.70,774.64,761.61,766.06,775.00,-53.71,-888.18,512.70,0.58,1.70,-1.47,-331.34
18072,797.29,774.69,761.65,766.17,774.95,-35.64,-881.35,526.37,-1.17,2.34,0.40,-330.93
18108,796.98,774.83,761.69,766.28,774.95,-47.85,-879.88,529.30,-1.47,0.84,0.57,-331.51
18145,796.50,775.01,761.67,766.41,774.90,-38.09,-884.28,531.25,-0.11,0.66,-0.81,-333.65
18181,796.04,775.18,761.75,766.55,774.88,-34.18,-887.21,512.21,-1.25,0.78,-0.21,-333.66
18220,795.57,775.29,761.83,766.73,774.85,-48.34,-879.88,509.28,-0.09,-1.10,-1.40,-333.66
18256,795.02,775.39,761.84,766.89,774.79,-40.53,-874.51,512.21,0.05,0.18,-1.67,-334.69
18293,794.80,775.53,761.93,766.95,774.80,-34.18,-882.32,525.88,0.96,2.32,-0.75,-333.44
18329,794.50,775.64,761.85,766.97,774.74,-46.88,-884.77,519.53,-0.40,-1.81,-1.91,-335.60
18365,794.30,775.63,761.93,767.00,774.71,-34.67,-888.67,512.21,0.11,-1.79,-2.25,-333.51
18401,794.20,775.67,761.83,767.06,774.69,-47.36,-878.91,517.58,0.12,0.72,0.80,-336.86
18440,794.09,775.74,761.95,767.15,774.73,-38.09,-878.91,524.41,-1.88,1.09,1.33,-335.36
18476,793.98,775.77,762.01,767.13,774.72,-42.97,-886.72,529.79,0.53,-0.70,-0.15,-333.26
18513,793.98,775.86,761.92,767.15,774.73,-36.13,-880.86,522.46,0.10,0.22,0.15,-336.59
18549,793.90,775.93,762.01,767.26,774.77,-43.95,-878.42,512.70,-1.85,0.91,-1.41,-336.39
18585,793.91,775.98,761.97,767.19,774.76,-42.97,-885.25,518.07,-1.15,0.98,0.94,-336.76
18621,793.77,775.97,762.02,767.31,774.77,-50.78,-879.88,526.86,-1.37,0.89,-1.34,-336.71
18660,793.58,776.07,761.94,767.33,774.73,-41.99,-881.35,521.48,-2.10,0.93,-2.98,-339.05
18697,793.34,776.13,761.96,767.46,774.72,-32.23,-876.95,515.14,-0.70,-0.31,-1.63,-340.22
18733,793.19,776.16,762.06,767.49,774.73,-42.48,-880.37,508.30,-0.56,1.89,-1.36,-337.75
18769,793.13,776.17,762.02,767.46,774.69,-31.25,-880.37,510.25,1.46,-0.60,-0.13,-338.26
18806,793.02,776.23,762.07,767.52,774.71,-32.23,-886.72,510.74,-0.98,-0.90,2.70,-337.96
18842,792.96,776.22,762.13,767.46,774.69,-30.27,-868.16,513.18,0.22,-1.69,-1.16,-335.28
18881,792.65,776.20,762.04,767.60,774.62,-35.16,-888.67,512.21,0.02,0.48,-1.16,-338.25
18917,792.53,776.23,762.05,767.68,774.62,-41.02,-887.21,511.23,-1.63,1.97,0.02,-339.16
18953,792.50,776.22,762.14,767.65,774.63,-34.67,-887.70,513.18,-0.96,-0.95,-1.59,-336.15
18989,792.49,776.23,762.12,767.66,774.62,-33.20,-889.65,516.60,-0.69,-0.45,1.04,-337.11
19025,792.47,776.21,762.10,767.68,774.62,-32.71,-877.44,511.72,0.57,0.58,1.18,-337.58
19064,792.44,776.26,762.16,767.68,774.64,-36.62,-876.95,522.46,-0.22,-2.06,-0.21,-336.52
19101,792.30,776.32,762.19,767.66,774.62,-30.76,-887.70,509.77,-0.89,0.31,-1.21,-335.46
19137,792.24,776.35,762.12,767.77,774.62,-38.57,-883.30,521.00,0.44,1.60,-1.43,-338.74
19173,792.01,776.38,762.16,767.76,774.58,-46.39,-883.79,520.51,0.77,-1.24,-0.08,-337.21
19209,791.99,776.36,762.21,767.76,774.58,-36.62,-886.23,515.14,-1.32,-1.00,-1.45,-335.59
19245,792.06,776.40,762.20,767.84,774.62,-50.78,-888.18,518.55,-1.42,1.03,-0.55,-337.62
19284,792.09,776.41,762.16,767.83,774.62,-34.18,-896.48,531.74,0.80,-0.31,-1.26,-338.56
19320,792.22,776.38,762.24,767.81,774.66,-34.18,-878.91,512.21,0.91,0.03,-0.44,-336.52
19356,792.21,776.33,762.13,767.74,774.60,-43.46,-880.37,524.90,-1.32,0.38,-2.83,-337.73
19393,792.26,776.32,762.20,767.74,774.63,-36.62,-870.12,532.71,1.16,0.11,-0.85,-336.04
19429,792.28,776.33,762.15,767.78,774.64,-35.16,-875.49,520.02,1.17,0.41,-1.57,-337.97
19465,792.48,776.25,762.21,767.66,774.65,-41.99,-881.84,521.48,0.15,1.10,0.02,-334.78
19504,792.62,776.13,762.10,767.58,774.61,-20.51,-872.07,511.23,-0.31,0.19,0.54,-336.14
19541,792.77,776.05,762.04,767.54,774.60,-41.99,-884.77,521.48,-0.31,0.95,-3.47,-336.66
19577,792.94,776.05,762.07,767.51,774.64,-41.02,-870.12,521.00,-0.66,1.19,0.03,-336.06
19613,793.16,775.93,762.07,767.33,774.62,-36.62,-885.74,516.11,-0.03,1.68,-0.35,-333.33
19650,793.26,775.73,762.05,767.22,774.57,-32.23,-883.30,508.79,-1.76,-2.57,3.31,-330.94
19686,793.46,775.65,761.99,767.15,774.56,-36.62,-868.16,521.97,-1.21,-1.19,-0.74,-331.50
19725,793.66,775.64,761.95,767.04,774.57,-46.88,-883.30,511.23,-1.49,-1.28,-1.37,-331.47
19761,793.86,775.51,761.99,767.01,774.59,-35.16,-886.23,530.76,-0.53,-1.42,-3.88,-329.53
19798,793.96,775.57,761.96,766.94,774.61,-32.23,-885.74,516.60,-1.37,-1.03,-0.31,-330.17
19834,793.90,775.53,761.92,766.95,774.57,-32.71,-883.79,519.04,-0.88,-0.51,-0.39,-330.90
19870,793.86,775.52,761.97,766.93,774.57,-41.99,-871.09,512.21,-0.45,-3.95,-1.73,-329.00
19909,793.97,775.47,761.94,766.94,774.58,-28.32,-881.35,517.09,-0.91,-0.31,0.06,-329.98
19946,793.97,775.45,761.92,766.94,774.57,-26.86,-895.02,513.18,0.64,-0.38,1.60,-330.38
19982,794.15,775.45,761.94,766.89,774.61,-34.18,-876.95,517.09,-0.40,2.69,1.53,-329.72
20018,794.13,775.44,761.93,766.90,774.60,-34.18,-880.37,516.60,-0.31,-0.15,1.19,-330.00
20054,794.13,775.43,761.90,766.80,774.56,-29.30,-880.86,529.79,0.64,-0.47,-0.29,-329.14
20091,794.17,775.39,761.95,766.87,774.59,-46.39,-880.37,515.62,-1.28,1.59,0.18,-328.65
20131,794.25,775.37,761.89,766.93,774.61,-34.67,-893.55,521.00,1.02,-1.15,-3.16,-330.96
20167,794.22,775.39,761.91,766.82,774.58,-45.90,-879.39,513.67,-0.08,-0.05,-1.14,-329.20
20203,794.23,775.38,761.89,766.77,774.57,-41.02,-862.79,525.39,-1.23,0.02,-0.25,-328.77
20239,794.42,775.28,761.89,766.89,774.62,-55.66,-890.62,530.27,0.02,0.08,-1.56,-330.34
20276,794.62,775.28,761.90,766.72,774.63,-32.23,-865.23,513.67,0.21,1.02,-0.72,-328.27
20312,794.86,775.10,761.86,766.58,774.60,-43.95,-880.37,531.25,-0.66,-3.44,0.85,-326.70
20351,795.00,775.06,761.85,766.55,774.62,-38.09,-868.65,520.02,0.37,1.63,0.49,-326.52
20388,795.34,774.87,761.80,766.36,774.59,-39.55,-891.11,514.16,1.68,2.19,0.18,-324.76
20424,795.91,774.66,761.75,766.21,774.63,-44.92,-885.74,521.97,-1.52,-0.36,-1.93,-324.19
20460,796.49,774.50,761.75,766.06,774.70,-34.67,-884.77,515.62,-2.18,-0.01,0.53,-322.57
20497,796.89,774.26,761.73,765.95,774.71,-39.55,-886.23,508.30,-0.27,-0.53,-0.63,-320.81
20533,797.31,774.09,761.63,765.74,774.69,-41.50,-894.04,512.70,1.56,2.32,2.05,-320.38
20572,797.71,774.02,761.57,765.62,774.73,-37.60,-883.30,518.55,0.15,0.00,-1.02,-320.96
20608,798.18,773.91,761.54,765.46,774.77,-44.92,-870.61,515.14,0.98,2.63,-1.93,-320.03
20644,798.61,773.74,761.50,765.33,774.79,-41.99,-882.32,521.00,-0.37,-0.73,-0.57,-319.10
20680,798.80,773.65,761.56,765.28,774.82,-39.55,-887.21,519.04,-0.26,2.07,0.58,-316.91
20716,799.10,773.70,761.50,765.27,774.89,-41.02,-877.44,525.88,-2.85,-0.77,-1.12,-319.63
20752,799.34,773.62,761.49,765.31,774.94,-36.62,-888.18,518.55,1.15,-1.70,-2.50,-320.68
20791,799.41,773.64,761.46,765.44,774.99,-38.57,-879.39,510.74,0.27,0.73,-3.64,-323.88
20827,799.33,773.69,761.45,765.54,775.00,-37.11,-888.18,523.93,-1.50,0.34,0.00,-325.42
20864,799.11,773.64,761.53,765.51,774.95,-39.55,-881.35,526.86,-0.16,0.56,-1.09,-322.07
20900,798.89,773.61,761.55,765.45,774.87,-34.18,-871.09,513.67,1.86,-0.18,0.34,-319.66
20936,798.79,773.29,761.51,765.42,774.75,-41.50,-874.51,527.34,-1.20,-0.94,0.82,-317.38
20974,799.13,773.25,761.56,765.55,774.88,-41.02,-887.21,527.83,0.70,0.34,-1.11,-318.81
21011,799.29,773.32,761.49,765.65,774.94,-32.71,-880.37,532.71,1.82,-1.37,-2.34,-323.00
21048,798.43,773.43,761.57,766.16,774.90,-40.53,-884.28,514.16,1.14,-1.79,2.21,-326.53
21084,796.59,773.67,761.73,766.58,774.64,-38.09,-877.44,523.93,-1.11,0.44,-1.59,-324.46
21121,794.91,773.91,761.75,767.07,774.41,-44.43,-882.81,523.93,1.58,-1.02,1.47,-327.14
21157,793.61,773.93,761.88,767.51,774.23,-27.83,-869.63,524.41,1.33,1.98,0.10,-326.29
21196,790.51,774.79,762.20,769.18,774.17,-53.22,-889.16,518.07,-2.60,-1.79,-2.84,-339.19
21232,785.45,775.76,762.77,771.27,773.81,-56.64,-882.81,512.70,-5.99,0.27,-3.08,-346.01
21269,779.47,776.92,763.60,773.92,773.48,-52.73,-887.70,523.44,-12.27,2.03,-4.66,-353.04
21305,773.58,777.81,764.72,776.59,773.18,-18.55,-891.11,492.68,-14.69,6.29,-7.60,-351.58
21341,769.52,778.44,765.74,778.93,773.16,-9.28,-891.60,527.34,-4.69,1.98,-9.08,-351.80
21378,767.66,779.04,766.41,780.28,773.35,-11.72,-863.28,514.16,0.11,0.92,-6.11,-353.23
21417,767.15,779.17,766.62,780.57,773.38,-2.44,-871.58,521.97,2.01,-0.32,0.85,-351.50
21453,767.55,779.14,766.43,780.04,773.29,-28.32,-887.21,511.23,2.44,-1.23,2.08,-349.45
21490,768.21,779.10,766.34,779.06,773.18,-20.02,-868.16,523.44,0.28,1.23,0.57,-339.48
21526,769.10,779.14,765.95,777.81,773.00,-29.30,-906.25,531.25,-0.83,1.02,1.89,-333.94
21562,770.42,779.31,765.69,776.70,773.03,-27.83,-880.86,520.51,1.44,0.69,0.85,-330.20
21599,771.34,779.39,765.52,776.35,773.15,-19.04,-908.20,490.72,0.44,0.02,3.08,-333.10
21638,772.45,779.24,765.29,776.03,773.25,-19.04,-889.65,514.16,2.71,0.64,1.39,-336.55
21674,772.89,778.88,765.21,776.08,773.27,-33.20,-910.64,503.91,1.48,1.62,1.91,-337.96
21710,772.60,778.90,765.37,776.40,773.32,-23.44,-905.27,514.65,-3.34,-1.97,-4.65,-337.87
21747,771.43,778.77,765.48,776.68,773.09,-8.79,-875.00,529.30,-6.12,3.57,-1.39,-334.11
21783,770.72,778.70,765.62,776.93,772.99,-35.64,-905.76,512.70,-2.69,-2.61,-1.72,-331.35
21819,769.98,778.13,765.67,776.84,772.66,-28.32,-913.09,519.53,-5.27,0.63,-2.52,-321.80
21858,769.00,777.43,765.62,776.78,772.21,-17.09,-872.56,520.51,-3.48,1.94,-0.25,-312.95
21895,768.70,776.83,765.60,776.52,771.91,-20.02,-829.10,528.81,-4.08,1.97,-1.89,-303.84
21931,768.79,776.55,765.54,776.33,771.80,-27.83,-925.78,486.82,-0.73,0.42,-1.50,-300.65
21967,769.63,776.28,765.52,776.20,771.91,-38.57,-867.68,502.44,-2.46,1.05,-0.05,-299.96
22004,770.27,776.09,765.40,775.63,771.85,-23.93,-863.28,514.65,-2.39,-1.07,-3.73,-295.16
22044,771.02,775.88,765.38,775.42,771.92,-18.07,-860.35,515.14,-0.39,0.20,-0.87,-293.62
22080,771.65,776.13,765.47,775.70,772.24,-34.18,-939.45,485.35,-6.37,-3.46,2.84,-299.52
22116,772.86,776.04,765.33,775.36,772.40,-6.35,-856.45,528.81,-3.95,-2.49,5.15,-301.39
22153,774.10,775.76,765.08,774.60,772.39,-34.67,-949.22,453.61,-0.45,-5.33,0.95,-298.47
22189,775.38,775.01,764.73,773.59,772.18,-36.62,-912.60,478.03,5.91,-1.92,3.15,-290.88
22225,777.13,774.64,764.50,772.53,772.20,-6.35,-873.05,505.37,22.76,-4.54,2.93,-283.83
22264,778.70,774.63,764.35,771.90,772.39,-23.93,-886.72,513.67,1.11,4.59,-2.66,-283.76
22301,780.96,775.49,764.43,772.24,773.28,-62.50,-883.30,511.23,12.66,3.02,-2.37,-301.37
22337,783.66,776.13,764.53,771.96,774.07,-11.23,-896.97,541.50,13.67,-0.27,-4.18,-309.20
22373,784.57,776.75,764.71,772.31,774.59,-6.84,-934.08,497.07,19.58,-6.02,-3.72,-318.00
22409,787.19,777.41,764.56,772.13,775.32,14.65,-859.86,599.61,21.64,-6.26,-2.82,-333.25
22445,785.49,777.47,764.49,772.04,774.87,-56.15,-956.54,489.26,-7.10,-6.27,-5.16,-328.33
22485,783.62,778.50,764.71,773.37,775.05,-17.58,-859.86,581.54,15.14,-1.18,-9.57,-344.35
22520,782.53,778.84,764.71,774.85,775.23,-18.55,-899.90,572.27,-2.28,1.00,-6.45,-365.08
22556,779.46,779.42,765.47,778.22,775.64,1.95,-905.27,523.93,9.58,1.34,-15.15,-389.77
22592,778.09,779.64,766.10,781.74,776.39,31.25,-844.24,589.84,20.05,-1.16,-17.45,-423.11
22628,774.43,779.32,766.82,784.73,776.33,46.39,-944.34,568.85,9.93,1.24,-15.27,-433.97
22664,770.87,779.09,767.87,788.98,776.71,42.97,-777.83,558.11,18.92,1.89,-20.45,-456.28
22703,768.72,779.56,768.80,792.17,777.31,13.18,-883.79,615.72,1.56,3.46,-14.18,-476.35
22739,763.64,778.35,769.67,794.83,776.62,49.80,-907.23,568.85,-0.33,2.09,-18.74,-466.62
22775,761.12,777.82,770.79,798.19,776.98,27.34,-759.77,583.01,1.82,1.22,-14.22,-475.37
22811,759.49,777.92,771.96,800.53,777.47,74.71,-866.21,591.31,3.32,2.64,-12.31,-476.07
22848,757.83,776.90,772.87,800.81,777.10,10.25,-878.42,601.07,-4.34,-9.51,-12.21,-443.55
22886,757.13,776.18,773.85,803.23,777.60,119.63,-831.05,498.05,20.14,-1.48,-16.27,-446.46
22923,756.71,776.16,774.76,803.88,777.88,35.64,-812.99,678.22,13.73,0.83,-12.65,-431.75
22959,756.23,774.85,775.64,802.32,777.26,73.24,-866.70,541.50,7.99,-18.23,-20.56,-374.73
22996,756.13,774.25,776.40,804.06,777.71,194.34,-756.84,485.35,19.24,0.12,-18.69,-376.30
23032,756.01,774.89,776.73,805.57,778.30,18.07,-766.60,763.67,10.94,2.27,-7.46,-394.90
23068,755.67,774.19,776.88,804.27,777.75,132.32,-910.16,514.65,3.07,-16.52,-17.55,-365.32
23107,755.66,774.39,777.24,805.82,778.28,175.78,-725.59,594.73,13.04,10.54,-9.22,-380.67
23143,755.61,774.93,777.29,808.34,779.04,161.13,-713.38,623.05,8.69,11.05,-0.55,-420.71
23179,755.73,775.99,777.04,810.44,779.80,120.61,-785.64,648.93,3.59,14.33,2.64,-466.79
23215,755.72,776.52,776.44,811.33,780.00,132.32,-750.98,649.41,3.29,5.97,8.11,-499.04
23252,755.60,777.17,775.66,811.93,780.09,109.86,-804.20,629.88,-0.06,12.97,9.46,-532.18
23288,755.57,777.47,774.37,811.48,779.72,95.21,-808.11,618.16,4.60,10.66,15.21,-560.05
23327,755.80,777.31,772.76,810.35,779.05,58.59,-820.31,635.25,14.33,10.72,16.19,-582.93
23363,757.02,777.17,771.35,807.53,778.27,22.95,-750.98,689.94,2.41,1.17,17.21,-579.61
23399,758.31,776.65,770.05,804.30,777.33,44.92,-806.64,653.32,-1.69,0.91,13.43,-564.72
23435,759.75,775.89,769.08,801.21,776.48,46.88,-815.92,627.44,-2.12,-1.41,14.44,-542.41
23471,761.08,774.80,768.60,799.41,775.97,25.88,-790.53,668.46,-14.02,-0.29,11.00,-523.56
23508,761.40,774.15,768.29,797.28,775.28,51.76,-822.75,624.02,-12.77,-2.50,6.42,-495.98
23546,762.14,773.33,767.94,795.47,774.72,39.06,-798.34,627.93,-18.38,-2.76,9.11,-473.82
23582,763.33,773.14,767.62,793.87,774.49,23.93,-823.24,616.21,-14.94,-1.60,11.78,-461.01
23619,763.85,773.11,767.62,793.15,774.43,32.23,-837.40,619.63,-18.10,4.53,9.92,-451.93
23655,764.11,773.07,767.50,791.61,774.07,7.32,-825.20,586.43,-26.72,6.04,8.26,-432.78
23691,764.45,773.43,767.26,790.05,773.80,22.46,-842.29,580.57,-14.56,3.59,5.63,-419.75
23730,765.55,774.11,766.81,787.35,773.46,0.00,-848.63,585.45,-18.80,5.27,11.13,-400.49
23766,766.31,774.61,766.50,785.16,773.15,-11.72,-884.77,559.08,-19.37,6.98,7.01,-382.61
23802,767.21,774.83,765.92,782.48,772.61,-0.98,-865.23,541.02,-16.05,2.92,2.65,-362.41
23839,768.42,774.72,765.28,779.45,771.97,-9.77,-856.93,559.57,-11.44,7.53,5.05,-337.06
23875,770.47,774.77,764.85,776.79,771.72,-15.63,-892.09,526.37,-7.62,2.50,3.63,-316.14
23911,771.82,774.24,764.15,773.76,770.99,-25.39,-913.09,587.89,-9.11,2.48,1.98,-289.30
23951,774.32,773.56,763.47,770.92,770.57,-23.93,-858.40,566.89,4.40,3.87,3.73,-267.62
23987,776.79,772.96,762.94,768.77,770.37,-53.22,-908.20,527.34,-4.00,5.24,1.83,-252.84
24023,777.84,772.36,762.61,767.36,770.04,-56.64,-883.79,529.79,-8.72,1.85,1.52,-238.94
24059,777.97,771.74,762.35,766.62,769.67,-36.62,-870.61,516.60,-0.03,0.15,2.69,-230.03
24094,779.02,771.29,762.21,765.96,769.62,-35.64,-883.79,526.37,-0.21,-4.79,4.88,-223.83
24130,781.38,770.46,761.93,765.63,769.85,-60.06,-903.81,514.65,-2.82,0.20,0.47,-227.41
24170,782.12,770.53,761.95,766.69,770.32,-22.46,-859.37,554.69,9.26,-5.46,4.69,-245.78
24208,785.45,770.85,762.07,767.80,771.54,-63.48,-858.40,553.71,7.89,-4.07,1.15,-273.10
24244,785.06,771.64,762.37,769.26,772.08,-58.59,-872.56,537.60,-0.40,-2.13,-0.84,-292.00
24280,783.96,772.82,762.69,770.38,772.46,-19.53,-870.61,557.13,0.64,0.47,0.76,-306.29
24316,783.80,773.04,762.77,770.31,772.48,-29.30,-861.82,547.36,-0.18,2.92,-1.68,-304.53
24352,783.49,772.57,762.64,769.58,772.07,-33.20,-859.86,549.80,-4.92,0.12,-0.51,-291.96
24391,784.40,771.96,762.34,768.18,771.72,-40.53,-871.58,550.78,-1.89,0.71,-1.55,-277.19
24427,786.19,771.30,762.11,766.70,771.57,-31.25,-855.96,556.64,-2.27,5.69,1.56,-262.00
24463,788.58,770.87,761.84,765.63,771.73,-37.60,-864.75,544.92,-4.44,6.60,-1.89,-257.58
24500,791.18,770.47,761.76,764.87,772.07,-36.13,-867.19,558.59,-6.96,3.37,-1.40,-254.32
24536,792.59,770.42,761.56,764.63,772.30,-51.27,-865.23,545.90,-5.75,1.42,1.13,-260.04
24572,795.26,770.89,761.68,764.57,773.10,-55.18,-894.53,537.60,-3.86,1.42,-1.14,-269.09
24611,795.17,770.96,761.65,764.77,773.14,-47.85,-881.35,522.46,-1.50,0.38,-3.16,-273.08
24647,795.07,770.98,761.73,765.15,773.23,-40.04,-873.54,538.57,0.98,-1.13,-0.40,-276.49
24684,793.87,771.10,761.84,765.72,773.13,-49.32,-857.91,553.71,1.60,0.06,-0.88,-279.03
24720,792.68,771.21,761.97,766.11,772.99,-26.86,-861.82,549.32,3.35,1.90,-1.62,-278.45
24756,791.94,771.27,762.00,766.53,772.94,-41.99,-862.79,550.78,1.21,-1.47,0.76,-281.65
24795,789.85,771.27,761.95,766.86,772.48,-34.18,-864.26,539.55,-1.69,0.63,-1.27,-280.60
24831,788.44,771.24,762.05,766.93,772.17,-26.37,-877.93,541.50,-2.72,1.22,2.50,-274.13
24868,787.52,771.23,762.07,767.19,772.00,-47.36,-884.28,537.60,-0.46,-0.69,-0.25,-274.07
24904,787.40,771.40,762.10,767.23,772.03,-33.69,-867.19,548.83,1.59,3.07,1.08,-274.96
24940,787.88,771.66,762.23,767.71,772.37,-43.46,-861.82,563.48,3.48,-0.09,-0.77,-282.51
24976,787.76,772.29,762.31,768.38,772.68,-30.76,-874.51,547.36,0.47,-0.29,-3.22,-295.20
25015,787.05,773.13,762.61,769.55,773.08,-36.13,-885.25,532.71,-0.98,-3.25,-0.89,-309.22
25052,785.27,774.13,763.13,771.03,773.39,-32.23,-876.95,531.74,1.31,0.19,-3.74,-319.96
25088,782.18,775.43,763.71,772.94,773.57,-18.55,-855.96,560.55,-2.70,1.98,-4.88,-333.33
25124,778.91,777.07,764.63,775.25,773.97,-45.90,-884.77,520.02,-10.41,7.24,-8.46,-346.28
25160,774.77,779.50,766.06,778.69,774.76,-33.69,-866.70,532.71,-16.15,8.31,-12.33,-366.68
25197,770.23,782.04,767.87,782.37,775.62,-39.06,-933.59,514.65,-10.37,11.47,-14.77,-380.44
25236,765.26,783.83,769.69,785.39,776.04,2.93,-859.37,520.51,-9.95,9.47,-18.34,-377.01
25273,761.11,784.73,771.20,788.02,776.27,4.39,-935.55,475.10,-16.81,15.63,-15.37,-370.85
25309,757.61,785.67,772.62,789.69,776.40,25.39,-925.78,474.12,-10.61,10.69,-14.71,-355.78
25345,754.89,785.75,773.44,789.18,775.82,-3.91,-935.55,558.59,-9.25,7.86,-12.24,-319.08
25382,753.81,784.92,773.04,787.10,774.72,30.27,-854.00,561.52,-9.89,-3.98,-5.08,-288.08
25418,753.63,784.22,772.29,786.11,774.06,34.67,-896.00,458.01,2.92,4.68,-1.11,-285.96
25457,754.14,783.91,770.60,784.64,773.32,54.20,-824.71,548.83,26.43,9.24,10.44,-305.68
25493,757.31,784.65,769.87,785.18,774.25,28.32,-732.91,618.16,24.85,-10.79,20.93,-348.70
25530,759.63,785.38,769.46,784.24,774.68,-30.76,-1026.86,421.87,4.38,-15.21,17.81,-358.83
25566,761.22,782.96,767.97,779.80,772.99,12.21,-855.47,514.65,5.08,-7.73,7.27,-316.77
25602,762.55,781.05,767.48,779.32,772.60,-51.76,-901.86,535.16,-7.64,-5.67,7.37,-311.14
25641,761.63,781.08,767.52,779.14,772.34,-2.44,-833.50,503.91,-5.47,-0.53,-2.80,-304.45
25677,762.60,779.73,766.29,776.28,771.23,2.44,-871.58,563.48,13.65,-4.87,6.51,-285.38
25714,767.36,777.48,765.12,774.10,771.01,-56.64,-911.62,467.77,17.63,-10.83,10.39,-280.90
25750,771.56,775.05,764.18,771.70,770.62,-35.64,-871.09,548.34,2.86,-4.77,5.04,-263.76
25786,775.63,773.39,763.34,769.14,770.37,-46.88,-907.71,487.30,8.94,-2.47,1.75,-247.84
25822,778.34,772.07,762.70,767.27,770.09,-27.83,-887.70,515.62,1.31,-1.67,2.69,-234.97
25861,781.18,771.37,762.18,765.61,770.09,-47.85,-896.00,520.02,8.30,0.79,-1.98,-227.64
25897,783.56,771.22,762.02,765.15,770.49,-31.74,-804.20,578.12,17.21,-6.50,-4.12,-231.87
25933,784.41,771.18,761.90,764.81,770.58,-39.06,-850.59,517.58,-4.14,0.29,-2.89,-232.43
25970,785.04,771.53,762.02,765.41,771.00,-54.20,-903.32,500.98,3.64,-1.79,-3.37,-243.28
26006,786.50,772.23,762.12,765.82,771.67,-3.91,-839.84,575.20,5.27,-2.00,-1.18,-257.37
26042,785.41,772.28,762.11,766.17,771.49,-14.16,-877.44,533.20,-4.33,0.00,-1.66,-259.29
26080,785.51,772.94,762.33,767.26,772.01,-43.46,-886.72,552.25,7.47,-2.02,-3.11,-275.73
26117,784.82,773.58,762.65,768.03,772.27,-35.16,-914.55,545.41,3.13,-0.49,-3.92,-281.59
26153,782.12,774.02,762.85,769.70,772.17,-5.86,-863.28,537.11,2.21,0.08,-8.91,-295.65
26190,781.72,775.37,763.58,772.37,773.26,11.72,-904.79,526.37,17.81,-6.03,-11.68,-325.96
26226,779.21,775.66,764.00,774.40,773.32,9.77,-848.63,586.91,5.31,-2.64,-13.11,-339.34
26263,777.65,776.43,764.57,777.81,774.11,17.09,-861.33,588.38,23.00,-4.02,-12.04,-376.11
26302,775.12,777.00,765.38,781.84,774.84,28.32,-875.98,557.62,3.62,-2.27,-10.68,-410.90
26338,772.86,777.11,766.24,785.45,775.41,6.35,-822.75,602.05,12.98,-1.27,-14.58,-435.85
26374,770.52,777.17,767.21,789.38,776.07,70.31,-822.75,598.63,6.73,-1.41,-14.04,-462.15
26411,768.16,777.56,768.17,792.82,776.67,57.13,-876.95,588.38,6.56,0.20,-18.66,-483.71
26447,764.25,776.83,769.05,795.21,776.34,57.13,-789.55,618.65,-7.79,0.64,-15.21,-477.76
26486,760.51,776.62,770.28,799.51,776.73,74.71,-882.32,533.69,5.97,-3.56,-15.96,-495.87
26522,759.29,777.25,771.49,803.12,777.79,6.35,-807.13,601.07,9.30,-2.11,-17.12,-519.62
26558,757.29,776.68,772.64,803.96,777.64,32.71,-908.20,656.74,-7.64,-6.79,-17.27,-491.95
26594,756.46,776.25,774.07,806.60,778.34,145.02,-829.59,515.62,12.44,-4.07,-23.19,-488.80
26630,756.19,777.30,775.63,810.40,779.88,166.02,-763.67,593.26,10.24,3.40,-12.66,-513.49
26666,755.89,777.58,776.75,811.45,780.42,76.66,-882.32,618.65,-0.79,-6.06,-12.74,-502.31
26705,755.85,777.83,777.36,813.48,781.13,158.69,-763.67,540.53,10.53,5.22,-9.77,-518.90
26742,755.74,778.25,777.44,814.93,781.59,99.61,-718.75,671.39,2.36,5.82,4.44,-541.15
26778,755.65,778.34,776.88,814.92,781.45,125.98,-812.01,597.17,-1.79,3.35,8.75,-555.42
26814,755.49,778.41,775.97,813.53,780.85,93.75,-791.50,634.28,-9.89,5.30,11.47,-557.62
26850,755.38,778.12,774.54,811.30,779.83,113.77,-870.61,580.57,2.34,9.09,13.76,-557.73
26886,755.67,778.28,773.00,808.53,778.87,70.80,-769.53,622.56,2.97,8.50,15.89,-557.44
26925,756.58,778.14,771.32,804.61,777.66,55.18,-834.96,607.42,-2.17,-0.77,17.34,-543.65
26961,758.19,778.23,769.69,800.09,776.55,57.62,-819.82,628.91,0.91,-0.66,17.69,-524.12
26997,759.92,776.98,768.39,796.04,775.33,63.96,-870.61,584.96,6.75,-7.47,15.70,-492.60
27034,762.45,776.07,767.11,792.38,774.50,22.95,-732.91,624.02,-8.89,-4.50,19.10,-471.99
27070,764.91,776.16,766.05,788.21,773.83,34.67,-875.98,591.31,0.34,3.10,12.48,-446.43
27106,767.47,775.74,765.12,784.87,773.30,-22.46,-824.22,593.26,-11.31,-2.47,17.34,-425.69
27145,770.48,775.21,764.48,781.81,773.00,18.07,-854.00,571.78,-6.55,-1.14,12.02,-402.77
27182,773.46,775.38,764.05,779.57,773.12,14.16,-805.18,610.84,-10.09,2.84,9.82,-392.00
27218,775.16,775.83,763.88,778.40,773.32,-20.02,-883.79,584.47,-11.85,2.49,2.57,-388.43
27254,776.38,775.62,763.94,777.62,773.39,17.58,-857.91,588.38,-6.44,-1.14,4.40,-378.07
27290,778.18,775.59,763.77,776.47,773.50,18.55,-775.39,614.26,-4.87,4.97,5.66,-371.22
27327,780.72,776.41,763.56,774.72,773.85,-31.74,-952.15,541.02,-4.54,1.70,2.18,-366.02
27365,784.07,776.24,763.10,772.34,773.94,33.20,-800.78,614.26,8.07,3.08,1.12,-352.66
27401,788.41,775.78,762.79,770.09,774.27,-27.83,-892.58,502.44,4.08,6.07,3.77,-338.48
27437,794.13,775.10,762.35,768.17,774.94,-3.91,-844.24,606.45,2.08,7.14,2.02,-335.36
27473,799.20,774.35,761.82,765.68,775.27,10.25,-833.01,590.33,-1.19,6.40,1.13,-323.30
27509,804.68,772.75,761.39,764.03,775.71,-30.27,-890.14,533.69,-10.56,4.18,1.56,-315.56
27548,812.55,771.41,760.96,762.83,776.94,-63.96,-897.95,562.99,-8.07,2.81,3.13,-324.91
27584,812.65,770.73,760.87,761.89,776.54,7.81,-863.28,598.14,-1.00,-1.82,0.97,-308.43
27620,817.00,768.94,760.47,760.68,776.77,-46.39,-860.35,543.46,-7.91,0.26,3.71,-301.14
27656,820.11,767.36,760.18,760.18,776.96,-26.37,-794.43,582.52,-12.59,4.66,5.54,-298.81
27692,822.11,769.07,760.46,761.07,778.18,17.09,-920.90,526.86,7.34,-3.67,-3.42,-325.60
27728,822.00,767.26,760.19,759.83,777.32,-6.35,-969.73,470.70,-0.65,-0.71,5.59,-299.27
27766,823.19,766.75,760.16,760.68,777.70,-29.79,-936.52,507.81,13.25,-6.00,-2.50,-312.37
27802,821.62,766.86,760.13,760.24,777.21,82.52,-784.67,672.36,12.15,3.05,0.95,-302.21
27838,824.59,767.02,760.25,760.25,778.03,-60.55,-858.89,546.87,-1.57,4.82,-2.38,-310.94
27874,827.03,767.46,760.29,760.61,778.85,-62.99,-876.46,532.71,0.84,1.80,-2.01,-327.13
27911,825.69,768.68,760.54,761.75,779.17,-23.93,-867.68,562.99,4.70,0.02,-3.08,-342.69
27947,822.29,769.83,760.82,762.87,778.95,-41.50,-878.42,551.76,-3.61,-0.71,1.02,-349.78
27986,818.08,770.46,761.01,763.86,778.35,-26.86,-882.32,551.27,-1.88,-3.25,-2.92,-350.05
28022,813.66,770.73,761.19,764.59,777.54,-13.18,-869.63,553.71,-1.55,-3.25,-2.53,-343.46
28058,810.23,770.86,761.32,764.58,776.75,-15.14,-855.47,587.40,-6.31,1.82,-1.56,-329.33
28095,808.42,770.61,761.27,763.98,776.07,-30.76,-866.70,553.71,-11.48,5.73,-0.70,-313.75
28132,807.64,770.50,761.12,763.24,775.62,-27.34,-862.79,532.23,-16.27,6.17,-2.62,-302.74
28168,810.36,771.22,761.15,763.37,776.53,-45.41,-901.86,514.65,-13.47,4.77,-3.34,-319.25
28207,812.36,772.03,761.36,764.15,777.48,-57.62,-919.43,479.49,1.76,-2.41,-0.37,-338.76
28243,812.06,772.23,761.46,764.84,777.65,-29.79,-881.35,523.93,4.65,-1.40,-0.18,-347.07
28279,808.81,772.48,761.65,765.44,777.09,-26.86,-875.00,527.34,0.02,-2.94,-1.44,-341.93
28315,803.87,772.53,761.77,766.00,776.04,-26.37,-877.44,528.81,-2.17,1.51,-1.29,-330.69
28352,800.70,772.72,761.83,766.77,775.50,-26.37,-865.72,530.76,0.83,-1.19,-1.40,-331.11
28388,797.51,773.39,762.17,768.29,775.34,-36.13,-895.51,512.21,-1.40,-1.73,-1.95,-339.47
28427,794.23,774.14,762.56,769.78,775.18,-30.76,-879.88,529.79,4.95,-6.15,-1.50,-346.29
28463,791.37,774.44,762.92,770.58,774.83,-31.74,-869.63,550.78,-1.08,-0.63,0.63,-341.92
28499,788.25,774.72,763.18,771.40,774.39,-25.39,-875.98,529.30,-4.94,-3.62,-2.37,-339.12
28536,785.89,774.75,763.36,772.07,774.02,-24.90,-888.67,525.88,0.22,0.03,0.01,-336.48
28572,784.14,774.71,763.54,772.45,773.71,-26.86,-879.88,519.04,-1.43,-0.27,-0.49,-331.39
28611,782.96,774.60,763.62,772.92,773.53,-25.88,-882.32,527.34,-1.78,-0.51,-3.02,-331.24
28647,781.85,774.43,763.67,773.19,773.29,-31.74,-862.79,527.34,0.82,1.71,-0.31,-328.82
28684,780.98,774.29,763.76,773.50,773.14,-28.81,-875.98,532.71,-1.66,-0.15,-1.12,-327.08
28720,779.65,774.31,763.92,774.15,773.01,-32.23,-878.42,524.90,-2.09,2.12,-1.74,-328.28
28756,778.56,774.22,764.17,774.90,772.96,-25.39,-890.62,525.39,-2.32,-0.39,-1.92,-328.55
28792,777.16,774.33,764.47,775.92,772.97,-22.95,-878.91,530.27,-2.24,0.31,-2.72,-332.30
28832,775.81,774.48,764.86,777.08,773.06,-31.25,-892.58,518.55,1.60,1.64,-2.64,-336.04
28868,774.59,774.53,765.31,777.96,773.10,-16.60,-868.16,537.11,-0.02,1.17,-6.56,-333.95
28904,773.24,774.46,765.74,778.71,773.04,-23.44,-869.63,528.81,1.06,0.56,-3.21,-329.20
28940,771.77,774.28,766.30,779.54,772.97,-10.25,-875.98,525.39,-3.57,3.92,-3.40,-320.91
28977,770.01,774.09,766.99,780.46,772.89,-15.14,-892.58,531.25,-2.60,1.95,-2.75,-309.82
29013,767.85,773.87,767.68,781.05,772.61,-9.77,-879.88,509.28,-7.72,3.19,-6.79,-292.04
29052,765.66,773.72,768.40,781.79,772.39,-9.77,-875.98,531.25,-6.74,3.07,-6.05,-276.35
29089,763.35,773.52,769.15,781.53,771.89,-4.88,-912.11,508.30,-14.79,4.44,-4.29,-244.37
29125,761.75,772.94,769.50,780.56,771.19,13.18,-844.24,538.57,-9.00,5.07,-2.56,-211.27
29161,760.90,772.83,769.73,780.09,770.89,-12.21,-916.02,466.31,-9.43,-0.56,0.56,-194.69
29197,761.26,772.68,769.48,779.65,770.76,12.70,-854.49,538.57,8.15,-0.12,-0.04,-194.45
29234,761.74,772.79,769.57,780.11,771.05,-20.02,-926.76,490.72,-13.49,-5.76,5.51,-201.63
29273,761.50,772.84,769.97,780.41,771.18,-6.84,-868.65,493.65,-2.40,-3.05,-1.14,-195.50
29309,761.57,772.43,769.29,778.42,770.43,-22.95,-870.61,496.58,-11.85,-1.45,4.65,-180.08
29345,762.95,772.23,768.70,777.38,770.32,9.28,-876.46,503.42,-9.89,-0.98,10.10,-182.77
29381,763.09,772.60,768.64,776.80,770.28,-53.22,-1024.90,398.93,-5.31,3.05,-2.08,-178.97
29417,762.75,772.68,768.64,776.02,770.02,1.46,-856.45,508.30,-2.01,0.88,-5.33,-167.20
29456,764.34,772.33,767.69,773.75,769.53,30.27,-822.27,532.71,17.93,-2.94,2.65,-160.11
29492,766.64,772.16,766.82,772.61,769.56,48.34,-894.04,512.70,5.27,-4.99,1.76,-171.45
29528,770.04,772.48,766.30,772.19,770.25,-50.78,-880.86,499.02,13.24,-0.97,1.57,-192.61
29565,771.43,773.09,766.36,772.54,770.86,-13.67,-864.26,503.91,16.70,0.24,-2.60,-205.65
29601,772.40,774.13,766.54,772.83,771.48,-30.76,-891.60,493.16,8.79,-3.66,-2.66,-217.14
29637,772.01,774.67,766.76,773.58,771.75,-11.72,-771.00,449.71,14.04,-6.34,-8.50,-225.61
29676,773.45,775.94,766.88,774.12,772.60,-42.48,-967.29,496.58,-2.66,-3.60,-2.50,-245.89
29713,772.77,776.05,767.31,775.11,772.81,-15.14,-871.58,553.22,5.56,0.90,-13.82,-248.26
29749,770.89,776.23,768.43,777.66,773.30,-6.35,-867.19,509.28,2.53,-3.47,-11.25,-252.80
29785,770.82,776.39,769.37,779.25,773.96,-12.70,-825.20,589.36,8.18,0.95,-9.89,-253.99
29822,769.86,776.41,769.63,781.17,774.27,20.02,-892.58,520.51,9.92,-0.63,-4.44,-272.59
29858,767.94,777.23,769.22,785.44,774.96,61.04,-867.19,546.39,20.29,-4.03,-10.34,-345.65
29897,767.93,778.34,769.51,790.84,776.66,-5.37,-923.83,551.27,15.69,-5.27,-9.40,-426.61
29933,765.17,778.05,770.45,794.42,777.02,5.86,-863.28,538.09,-3.56,0.55,-15.10,-444.12
29970,761.93,777.51,772.05,798.01,777.37,65.43,-847.17,618.65,5.65,5.86,-19.97,-441.86
30006,760.00,777.58,773.69,802.50,778.44,97.66,-845.70,583.98,10.02,2.02,-19.47,-460.71
30042,757.58,776.89,775.02,803.69,778.30,21.48,-924.32,643.55,-3.82,-7.82,-22.95,-431.30
30079,756.21,775.42,776.13,804.14,777.98,65.43,-829.59,554.69,8.37,-18.43,-27.06,-393.97
30118,755.78,775.46,777.30,805.57,778.53,71.29,-867.68,580.57,7.11,-5.96,-18.20,-384.61
30154,755.44,774.78,778.29,804.97,778.37,97.66,-900.39,560.06,10.40,-13.92,-22.22,-344.40
30191,755.43,774.73,778.90,806.84,778.97,167.97,-770.51,483.89,22.69,3.16,-22.11,-356.41
30227,755.52,775.92,779.47,810.18,780.27,102.54,-697.27,683.11,12.62,17.09,-3.15,-401.13
30263,755.37,775.84,779.28,810.20,780.17,130.37,-844.24,610.35,-3.09,-5.13,2.71,-405.08
30302,755.31,775.99,778.51,810.84,780.16,168.46,-716.80,578.61,6.46,9.55,7.34,-434.72
30339,755.21,776.14,777.31,811.03,779.92,134.28,-749.51,658.69,-8.08,3.44,15.50,-468.17
30375,755.03,776.22,775.99,810.18,779.36,116.21,-797.36,592.77,-7.54,12.54,21.54,-488.66
30441,754.86,776.26,773.22,806.34,777.67,114.75,-796.87,554.69,4.81,11.52,15.91,-500.77
30477,755.71,776.33,771.50,803.92,776.86,35.16,-841.31,694.82,14.15,2.46,22.53,-511.54
30513,757.27,775.99,769.93,800.14,775.83,62.01,-904.79,552.25,4.67,0.47,14.31,-497.70
30556,759.86,775.22,768.25,796.17,774.87,30.76,-756.84,664.55,5.32,-0.61,14.50,-483.75
30592,762.07,774.79,767.26,792.82,774.24,22.95,-840.33,604.98,-2.47,2.06,14.82,-463.24
30628,764.28,774.10,766.45,790.24,773.77,37.60,-842.29,596.19,1.78,-2.73,12.65,-447.61
30664,766.57,773.35,765.76,788.16,773.46,22.95,-803.22,623.05,-3.94,-0.59,11.01,-436.16
30700,767.95,772.91,765.58,786.93,773.34,11.23,-878.42,586.91,-6.32,1.09,5.96,-423.59
30736,769.20,772.60,765.32,785.74,773.22,21.48,-778.32,648.44,-9.53,-1.16,8.71,-414.23
30776,769.32,772.32,765.52,785.92,773.27,-18.55,-961.91,525.88,-6.44,4.66,-1.37,-410.14
30811,769.71,772.20,765.50,784.98,773.10,35.64,-728.52,651.37,-7.33,1.93,3.60,-397.35
30847,770.21,772.38,765.43,783.94,772.99,-0.98,-883.30,582.52,-11.82,4.30,4.83,-386.76
30883,770.96,772.65,765.41,783.59,773.15,6.84,-851.56,616.70,-15.56,8.28,7.62,-386.91
30919,770.54,772.90,765.62,783.01,773.02,21.97,-854.49,577.15,-14.79,5.51,-2.08,-373.75
30954,769.95,773.15,765.73,781.62,772.61,7.32,-869.63,544.92,-19.47,7.69,1.44,-350.58
30993,769.56,773.64,765.57,780.01,772.20,-1.95,-838.87,608.40,-10.40,7.90,2.64,-333.43
31029,769.93,774.04,765.34,778.01,771.83,-22.95,-862.79,558.59,-13.11,4.08,5.85,-314.20
31065,769.60,774.17,765.12,776.31,771.30,-40.53,-918.46,535.64,-21.58,3.98,2.98,-294.42
31100,767.74,773.95,765.08,775.41,770.54,-24.90,-887.21,505.86,-9.83,1.04,-0.85,-274.12
31136,766.81,774.13,765.17,775.58,770.42,-85.45,-937.50,496.58,-13.75,1.66,0.44,-272.56
31172,765.26,774.24,765.38,775.93,770.20,-36.62,-878.42,530.27,-21.24,11.11,-4.12,-268.05
31210,762.96,773.97,765.61,776.31,769.71,-6.84,-871.09,517.58,-3.26,4.70,-3.70,-257.74
31246,762.76,773.80,765.91,777.43,769.97,-34.18,-861.82,513.67,5.40,-1.18,-1.16,-264.85
31282,763.35,773.69,766.04,778.29,770.34,15.63,-817.87,536.62,16.34,-7.79,5.11,-275.43
31318,764.46,773.34,765.96,778.71,770.62,4.39,-879.39,526.37,11.26,-7.85,4.47,-284.64
31355,766.10,773.16,765.77,778.53,770.89,-8.30,-878.42,534.18,6.69,-3.22,5.30,-290.84
31394,767.27,772.54,765.38,777.23,770.61,-7.32,-855.47,540.04,2.84,1.96,2.36,-280.55
31430,768.44,772.24,764.91,775.97,770.39,-29.30,-867.19,530.27,-2.83,1.76,3.44,-275.30
31466,769.71,772.24,764.55,774.31,770.20,-11.72,-836.43,537.11,-0.76,4.76,1.53,-264.12
31502,771.80,772.82,764.30,773.50,770.60,-30.27,-889.65,519.53,3.43,3.82,2.57,-270.23
31538,774.16,773.67,764.26,772.80,771.22,-18.07,-843.75,545.90,0.16,5.90,0.43,-275.81
31574,777.48,774.89,764.10,772.27,772.19,-42.48,-908.20,517.58,-2.79,4.15,3.18,-293.26
31612,779.80,775.42,764.12,772.30,772.91,-52.73,-893.55,514.65,-2.71,-1.23,0.67,-305.41
31649,779.10,775.06,764.14,772.04,772.59,-23.93,-872.07,516.60,-0.75,2.14,-1.02,-295.94
31684,777.86,774.69,764.12,772.43,772.28,-37.60,-886.72,497.56,-0.19,-0.52,-3.66,-294.94
31720,777.36,774.71,764.28,772.73,772.27,-36.62,-867.68,528.32,0.61,2.47,-3.34,-293.60
31757,777.95,774.89,764.24,772.79,772.47,0.49,-857.91,552.73,3.40,1.54,1.65,-299.11
31793,778.79,775.19,764.20,772.53,772.68,-28.32,-856.93,553.22,0.05,-0.91,0.02,-301.34
31831,779.70,775.35,764.17,772.37,772.90,-35.16,-873.05,542.97,-1.54,0.27,0.91,-304.42
31867,780.44,775.45,764.00,772.27,773.04,-32.71,-882.81,504.88,-0.64,-1.36,1.46,-310.37
31903,780.99,775.50,764.00,772.54,773.26,-27.34,-872.56,515.62,-1.28,-0.92,-0.21,-316.77
31939,781.00,775.15,764.05,772.90,773.28,-43.95,-884.28,524.90,2.04,-2.15,-1.17,-318.12
31975,780.37,774.95,764.18,773.35,773.21,-21.48,-870.61,541.50,1.78,-0.16,0.43,-317.55
32011,779.10,774.72,764.22,773.95,773.00,-16.11,-868.16,541.50,-1.00,-0.38,-0.36,-319.26
32050,777.43,774.64,764.50,774.88,772.86,-21.48,-868.16,539.55,-1.13,-0.99,-2.11,-319.48
32086,776.19,774.62,764.74,775.58,772.78,-26.86,-869.63,526.37,-3.39,1.31,1.48,-319.42
32122,774.82,774.68,764.93,776.20,772.66,-23.44,-869.14,537.60,-3.02,2.72,-4.11,-319.67
32158,773.71,774.86,765.04,776.52,772.53,-5.37,-863.77,532.71,-2.31,1.08,-4.37,-319.15
32194,773.57,774.98,765.14,776.65,772.58,-26.86,-881.84,533.69,-1.05,1.25,-0.18,-319.20
32230,773.31,775.00,765.11,776.79,772.55,-25.88,-885.74,523.44,-2.01,-0.96,-1.98,-321.18
32268,773.52,775.15,765.25,777.01,772.73,-32.23,-879.88,535.64,-0.31,2.16,0.97,-322.80
32305,773.35,775.01,765.17,777.16,772.67,-11.23,-894.04,508.79,-0.41,-2.62,-3.05,-325.43
32341,773.25,774.69,765.24,777.20,772.59,-28.81,-881.35,526.86,-0.44,-0.53,-1.61,-321.20
32377,772.72,774.02,765.04,776.70,772.12,-21.97,-866.70,540.04,-1.06,-2.12,2.11,-311.74
32413,772.23,773.40,765.03,776.99,771.91,-31.25,-897.95,509.28,-0.37,-1.61,-1.82,-309.47
32452,770.74,772.96,765.29,777.67,771.66,-7.81,-885.25,523.93,-0.51,-1.83,-4.35,-304.40
32488,769.04,772.70,765.78,779.04,771.64,-26.37,-901.37,528.32,-2.92,4.07,-10.85,-304.42
32524,766.03,772.81,766.66,780.83,771.58,-19.04,-892.09,523.44,-6.73,4.11,-10.74,-299.48
32560,763.07,772.89,767.57,782.26,771.45,0.00,-842.77,536.13,-7.81,7.02,-11.76,-288.46
32596,761.14,773.46,768.34,784.02,771.74,5.86,-882.32,510.74,-4.83,-0.74,-7.40,-292.84
32632,761.51,773.99,768.33,784.24,772.02,8.79,-809.08,558.59,0.45,-3.98,1.98,-302.17
32670,762.57,774.08,768.16,783.71,772.13,-20.51,-935.06,488.77,-5.40,-1.45,6.56,-302.81
32706,762.69,774.03,768.28,783.33,772.08,-26.86,-902.34,515.14,-9.74,3.56,-2.42,-294.13
32742,762.12,773.70,768.33,782.91,771.77,-2.44,-872.07,492.68,-10.44,5.61,-1.50,-282.25
32778,761.87,773.28,768.27,782.17,771.40,-13.18,-882.32,528.81,-4.70,0.59,-2.83,-268.57
32814,761.93,772.94,768.24,781.09,771.05,-13.67,-860.84,525.88,-6.89,-0.27,1.79,-250.85
32850,761.98,772.41,767.88,779.34,770.40,-8.79,-883.30,478.03,-13.34,-3.37,2.68,-230.06
32888,762.57,772.24,767.72,778.30,770.21,-37.11,-907.71,485.35,-11.26,-1.02,2.73,-219.35
32925,763.17,772.12,767.60,776.79,769.92,-8.30,-915.53,493.16,-4.98,1.59,0.98,-201.23
32961,763.37,771.90,767.60,775.51,769.60,-1.95,-908.20,449.71,-0.76,1.08,1.04,-181.32
32997,765.35,772.05,767.64,774.70,769.94,-102.05,-888.18,516.11,1.68,-2.17,4.40,-176.38
33033,766.29,772.13,767.56,774.11,770.02,-2.93,-935.06,449.71,27.92,-9.61,-3.02,-173.72
33069,768.40,772.93,767.56,774.04,770.73,-1.46,-908.20,485.84,11.06,-3.26,2.43,-186.34
33108,769.77,773.07,767.38,774.04,771.06,-43.46,-940.43,464.36,9.34,-1.44,-9.14,-196.60
33144,769.55,773.50,767.75,774.58,771.35,-9.28,-861.33,522.46,4.36,0.27,-9.27,-198.05
33181,769.91,774.50,768.05,775.16,771.90,25.88,-943.36,497.56,30.42,-5.72,-12.49,-208.21
33217,770.15,775.21,767.60,775.49,772.11,-17.09,-865.23,542.97,7.09,-6.71,-3.26,-230.91
33253,769.69,776.56,767.38,777.63,772.82,-54.20,-883.79,502.93,9.21,-1.91,-7.28,-277.06
33292,770.39,777.48,767.29,780.74,773.97,19.04,-842.77,616.21,27.96,-2.85,-8.57,-334.81
33328,769.53,777.94,767.47,783.44,774.60,-42.48,-896.48,534.67,2.04,-3.63,-5.51,-370.86
33365,768.54,778.11,767.85,786.50,775.25,-13.67,-834.47,562.50,10.49,-6.67,-10.31,-404.37
33401,767.27,777.85,768.29,788.99,775.60,3.91,-827.64,586.43,3.28,-2.41,-7.81,-423.84
33437,765.07,777.25,768.72,791.60,775.66,56.15,-883.79,580.08,3.71,0.86,-5.44,-438.93
33473,762.83,776.52,769.56,794.41,775.83,24.90,-871.09,608.89,-0.18,4.40,-11.09,-445.88
33512,759.74,775.46,770.68,796.33,775.55,100.10,-804.20,580.57,-0.89,1.41,-13.85,-427.27
33548,757.92,775.06,771.99,799.87,776.21,74.22,-839.84,558.59,11.26,-5.32,-15.65,-437.15
33584,756.64,775.02,773.49,802.22,776.84,-21.97,-873.54,599.61,4.74,-6.31,-22.40,-429.80
33620,755.97,774.21,775.05,802.10,776.83,47.36,-835.45,606.93,0.02,-8.31,-26.19,-380.37
33656,755.39,773.42,776.77,801.31,776.72,82.52,-877.44,543.95,2.10,-14.91,-25.04,-317.42
33692,755.35,773.13,778.78,801.69,777.24,180.18,-820.31,498.54,14.46,-4.63,-30.98,-270.60
33731,755.21,773.16,780.67,800.82,777.46,97.17,-806.15,671.39,19.12,-0.61,-25.99,-210.38
33767,755.02,772.14,781.85,799.36,777.09,189.45,-802.73,600.59,19.08,-13.45,-22.18,-150.53
33803,755.08,772.10,782.98,802.10,778.07,263.18,-658.20,510.74,20.15,3.07,-10.94,-162.63
33839,755.08,772.94,783.91,804.46,779.10,126.95,-714.84,744.14,10.05,10.89,4.48,-181.03
33876,754.95,772.78,783.76,802.74,778.56,122.07,-801.76,666.02,-5.84,-0.74,6.22,-157.74
33915,754.37,771.59,783.34,797.62,776.73,119.63,-816.89,646.97,-10.57,1.42,5.61,-81.24
33951,753.97,769.91,782.18,793.59,774.91,181.64,-734.86,550.78,-8.24,-6.47,9.56,-36.04
33987,753.78,769.34,780.66,793.21,774.25,156.74,-768.07,513.18,-6.21,7.73,18.74,-63.12
34023,753.74,769.93,779.05,796.37,774.77,133.30,-759.28,655.27,-6.28,25.91,33.53,-154.25
34059,753.71,770.52,777.42,797.94,774.90,35.16,-911.62,598.63,-3.84,15.11,32.74,-222.61
34095,753.80,771.12,775.47,798.48,774.72,66.89,-845.21,581.54,7.95,14.02,24.46,-284.30
34134,754.65,771.35,773.24,797.22,774.11,5.86,-860.35,753.42,17.01,-4.24,18.59,-326.04
34170,756.16,771.29,771.75,795.15,773.59,54.20,-758.79,613.77,-1.07,-0.50,14.50,-337.17
34206,758.13,771.26,770.55,792.43,773.09,43.95,-883.79,595.70,-2.76,-2.12,13.85,-333.71
34243,760.84,770.84,769.04,789.23,772.49,44.43,-740.23,641.60,-6.36,-2.77,17.93,-330.26
34279,764.20,770.64,767.61,786.02,772.12,20.51,-829.59,607.42,-11.37,-1.37,21.49,-328.71
34315,767.01,770.28,766.30,783.06,771.66,19.53,-856.93,592.77,-16.76,-0.27,18.05,-324.28
34354,769.87,769.90,765.44,780.95,771.54,-16.60,-833.01,586.91,-21.73,3.22,18.51,-321.45
34390,772.02,769.70,764.86,779.29,771.47,-13.67,-833.50,606.45,-18.65,5.15,11.98,-317.36
34426,773.17,769.67,764.59,777.96,771.35,-38.09,-856.45,562.50,-22.00,4.39,7.49,-308.29
34462,773.39,769.61,764.29,776.28,770.89,-11.72,-833.98,564.94,-12.78,2.69,4.01,-291.16
34498,773.56,769.21,763.98,773.97,770.18,-2.93,-912.11,587.40,-21.73,5.50,6.92,-262.32
34534,773.75,769.26,763.86,772.94,769.95,-94.73,-901.37,517.58,-20.98,7.29,-4.02,-251.02
34572,771.88,769.46,763.83,772.10,769.32,-50.29,-888.67,548.34,-15.13,4.08,-3.35,-234.88
34608,769.90,769.88,764.01,772.12,768.98,-33.20,-880.86,508.79,-4.98,1.43,-4.25,-227.10
34645,768.67,770.38,764.41,772.47,768.98,-65.43,-896.97,504.88,-18.47,5.35,-5.37,-222.17
34681,765.51,770.27,764.75,772.34,768.22,-38.09,-931.64,466.80,-27.36,9.18,-7.35,-199.95
34717,763.72,770.37,764.99,772.68,767.94,-11.72,-897.95,521.97,-18.97,6.27,-3.60,-193.77
34756,762.87,770.14,765.16,772.82,767.75,-4.88,-890.14,503.42,6.31,-0.12,-5.24,-186.69
34792,762.92,769.57,765.04,772.86,767.60,-25.39,-924.32,479.98,1.73,-3.84,1.54,-185.91
34828,764.21,768.99,764.71,772.70,767.65,-4.39,-818.36,550.29,17.41,-7.18,3.11,-191.63
34864,766.18,768.94,764.42,772.45,768.00,-28.81,-888.18,516.11,5.61,-5.10,6.59,-201.46
34900,767.45,769.11,764.28,772.43,768.32,-10.25,-855.47,531.25,7.03,-2.89,0.46,-210.49
34937,769.01,769.70,764.15,772.37,768.81,-25.88,-871.09,541.02,3.86,0.22,1.42,-222.70
34976,770.33,770.52,764.00,772.17,769.25,-46.88,-875.98,512.21,2.11,-0.89,-0.15,-234.59
35012,772.41,771.29,763.93,771.74,769.84,-32.23,-852.05,544.43,4.85,-1.08,-0.78,-243.44
35048,774.57,771.45,763.73,770.83,770.14,-25.88,-878.42,542.97,3.82,-0.69,1.54,-243.80
35084,777.56,771.61,763.41,770.21,770.70,-34.18,-890.62,518.55,3.11,2.82,-0.51,-254.11
35120,779.82,772.01,763.46,770.29,771.40,-55.66,-888.18,525.88,-0.59,-1.66,-0.63,-264.98
35156,779.95,772.12,763.43,770.23,771.43,-25.39,-882.32,541.02,-3.00,1.74,1.08,-266.21
35196,778.88,772.56,763.66,770.77,771.47,-21.48,-881.84,535.16,-5.73,-1.73,-1.24,-268.40
35232,777.24,773.19,764.03,772.14,771.65,-64.45,-890.62,492.19,-8.99,0.73,-3.31,-278.58
35268,775.82,773.77,764.60,773.37,771.89,-17.58,-885.74,525.88,-4.86,2.35,-5.53,-282.27
35304,775.02,774.19,764.85,774.12,772.04,-19.04,-865.23,551.27,2.26,0.10,-3.15,-287.57
35340,774.55,774.47,765.15,774.79,772.24,-31.74,-877.93,506.35,-2.80,-1.47,-2.22,-290.67
35377,773.69,774.63,765.41,775.09,772.20,-15.63,-858.40,545.90,-4.02,0.81,-2.43,-287.10
35415,773.03,774.79,765.58,775.39,772.20,-19.04,-871.09,534.18,-4.10,1.14,-0.76,-286.41
35452,772.52,774.86,765.83,776.14,772.34,-35.16,-893.07,508.30,-6.08,0.76,-1.79,-289.89
35488,771.53,774.89,766.13,776.70,772.31,-22.46,-873.54,522.46,-4.99,0.57,-2.76,-287.45
35524,770.87,774.63,766.25,777.02,772.19,-21.97,-877.93,539.55,-1.82,1.31,-2.46,-284.64
35560,770.49,774.33,766.48,777.27,772.14,-34.18,-883.79,520.02,0.39,-0.86,-1.10,-279.04
35596,769.60,774.07,766.61,777.75,772.01,-24.90,-889.16,528.32,-4.15,0.49,-2.84,-277.90
35635,768.50,773.80,766.80,778.10,771.80,-19.53,-881.35,528.81,-0.89,-1.01,-3.05,-272.31
35672,767.83,773.56,767.00,778.43,771.70,-10.25,-867.68,526.37,-0.95,0.76,-2.70,-267.93
35708,767.29,773.30,767.01,778.58,771.54,-22.95,-884.28,531.25,-0.75,-1.66,-2.10,-266.09
35744,766.84,773.03,767.11,778.62,771.40,-5.37,-880.86,532.23,1.87,-1.35,-2.04,-260.43
35780,766.66,772.79,767.00,778.60,771.26,-13.18,-877.44,522.95,-0.47,-1.26,-0.63,-260.37
35819,766.49,772.63,767.16,778.75,771.26,-27.34,-886.23,516.60,-0.43,-3.50,-1.37,-256.66
35855,765.89,772.39,767.05,778.99,771.08,-18.07,-875.98,522.46,-1.05,0.66,-1.82,-259.09
35891,765.19,772.35,767.10,779.42,771.02,-24.41,-876.46,529.30,-0.44,1.09,-2.88,-261.13
35927,764.88,772.38,767.20,779.87,771.08,-13.67,-861.33,538.09,1.29,-0.15,-1.11,-264.54
35963,764.72,772.60,767.22,780.53,771.27,-10.25,-870.61,521.97,1.57,0.44,-2.86,-275.07
35999,764.73,772.89,767.23,780.80,771.41,-6.84,-856.45,537.11,1.14,1.43,-1.08,-281.05
36038,765.20,773.41,767.13,780.50,771.56,-12.70,-859.86,521.97,-1.59,0.44,1.28,-284.90
36074,765.66,773.45,766.89,779.68,771.42,-30.27,-879.39,523.44,-1.96,0.34,2.66,-280.73
36110,766.05,773.21,766.53,778.33,771.03,-12.70,-857.91,540.04,-2.85,-1.16,1.18,-269.24
36146,766.64,772.72,765.99,776.85,770.55,-9.77,-873.54,536.13,-1.30,1.08,4.88,-258.89
36182,767.40,772.37,765.47,775.35,770.15,-10.74,-888.67,524.41,-1.28,-4.05,4.36,-249.75
36219,768.68,771.97,765.10,774.62,770.09,-24.41,-897.95,512.21,4.40,0.43,3.95,-249.20
36257,768.92,771.63,765.04,774.43,770.01,-39.55,-896.00,530.76,-2.37,0.99,2.29,-246.07
36294,767.98,771.46,765.22,774.35,769.75,-24.41,-870.61,545.90,-5.22,3.56,-3.77,-235.79
36330,766.87,771.45,765.44,774.31,769.52,-7.81,-879.39,519.53,-7.87,4.29,-2.06,-225.97
36366,766.40,771.80,765.83,775.03,769.77,-44.92,-881.84,490.23,-5.00,-1.19,-2.48,-227.91
36402,765.44,772.13,766.49,776.00,770.01,-71.78,-947.27,480.96,-12.25,-2.20,-3.61,-225.19
36438,764.59,772.34,766.92,776.13,770.00,12.21,-816.89,532.23,0.53,-1.79,-3.46,-215.00
36477,764.80,772.19,767.57,776.99,770.39,-41.99,-1021.00,427.73,-19.98,-1.88,2.73,-211.04
36513,763.93,772.93,768.76,778.25,770.97,-14.65,-853.52,519.04,-9.31,2.85,-10.90,-202.99
36549,762.19,772.87,769.06,777.34,770.36,30.27,-877.93,471.19,-12.61,1.13,-1.43,-175.82
36586,764.78,772.23,768.26,775.20,770.12,22.46,-820.31,551.76,35.68,-15.70,13.28,-168.05
36622,766.03,772.07,768.42,774.69,770.30,-120.12,-1047.85,386.72,-6.56,1.94,-5.73,-159.29
36660,766.00,771.98,768.51,774.17,770.16,20.51,-749.02,583.01,10.77,-3.95,0.60,-148.74
36696,768.20,772.26,767.88,773.72,770.51,-46.39,-997.56,450.68,11.22,5.01,-0.53,-167.58
36733,769.00,772.76,768.08,774.53,771.09,-25.88,-869.63,483.89,3.97,-2.52,-9.85,-181.29
36769,771.10,773.46,768.11,774.45,771.78,-15.14,-901.86,570.31,11.66,-0.77,-4.49,-192.20
36805,769.91,773.27,767.89,773.74,771.20,-1.95,-882.81,535.16,12.35,-3.85,-8.85,-181.57
36841,771.12,774.45,767.36,774.65,771.89,6.84,-859.37,582.52,26.00,1.36,-6.37,-221.59
36880,771.77,776.52,766.25,776.34,772.72,-24.41,-916.99,527.83,11.21,-2.14,-4.53,-293.05
36916,771.13,777.33,765.95,779.03,773.36,4.39,-814.94,542.48,27.37,-0.99,-10.40,-344.51
36952,771.24,778.04,766.15,781.82,774.31,54.20,-818.85,596.19,17.53,-4.38,-5.81,-386.72
36988,770.92,778.29,766.46,784.36,775.01,30.76,-866.70,572.27,10.52,-1.98,-5.28,-417.09
37024,769.56,778.69,766.98,787.34,775.64,37.60,-838.38,611.33,3.89,-2.00,-9.04,-446.69
37060,768.48,779.83,767.78,790.29,776.59,3.42,-829.59,612.79,-2.45,2.59,-9.91,-475.55
37099,766.56,780.68,768.92,793.52,777.42,20.02,-868.65,572.27,-1.05,3.84,-13.08,-494.90
37136,763.94,781.39,769.96,796.53,777.95,16.60,-854.98,534.18,-6.40,-0.02,-13.44,-510.13
37172,762.68,782.48,771.10,800.00,779.06,10.74,-850.10,592.77,-10.78,-1.31,-8.25,-537.05
37208,761.90,783.64,772.24,803.86,780.41,20.02,-879.88,551.76,4.79,5.36,-13.15,-571.96
37245,761.13,785.00,773.44,807.06,781.66,27.34,-843.75,596.68,-2.60,-0.10,-11.04,-597.45
37281,760.60,786.17,774.57,810.55,782.97,67.38,-832.52,573.73,6.48,-0.95,-9.40,-628.37
37320,760.82,787.37,775.24,812.88,784.08,33.20,-818.36,602.05,5.86,-1.08,-3.42,-656.22
37356,760.39,787.41,775.74,813.29,784.21,66.41,-846.68,583.01,5.89,-0.56,-3.94,-648.91
37392,759.58,786.88,775.55,811.82,783.46,78.61,-812.01,597.17,-5.24,-4.71,2.81,-624.78
37428,758.98,785.72,774.76,809.71,782.29,113.28,-817.38,582.52,2.24,0.52,8.14,-602.18
37464,758.90,784.27,773.65,807.11,780.98,56.64,-848.14,578.12,5.36,-3.27,11.79,-579.67
37503,759.38,782.74,772.20,803.47,779.45,59.57,-835.94,578.12,9.73,-0.59,12.96,-551.59
37539,760.33,781.83,771.19,800.49,778.46,60.55,-769.53,625.00,3.69,2.02,11.70,-528.80
37575,761.18,780.87,770.25,797.39,777.42,55.18,-881.35,556.64,0.80,0.32,10.31,-501.81
37611,762.22,780.24,769.74,795.82,777.00,21.97,-828.12,626.46,-6.15,0.16,12.44,-489.95
37646,762.27,779.84,769.72,794.83,776.66,2.93,-866.70,583.50,-17.63,5.82,5.49,-472.68
37682,761.95,779.68,769.72,793.85,776.30,44.92,-842.29,576.66,-14.73,-0.02,4.02,-455.86
37721,762.06,779.58,769.50,792.93,776.02,27.34,-865.72,549.32,-10.53,-0.41,6.63,-447.53
37757,762.16,779.92,769.38,792.15,775.90,-4.88,-877.44,559.08,-24.71,4.99,6.66,-442.13
37793,762.47,780.20,769.41,791.66,775.94,-0.49,-874.51,533.20,-13.64,4.05,3.45,-437.35
37829,762.42,779.94,769.42,791.23,775.75,11.23,-845.70,568.85,-9.34,1.14,4.23,-428.57
37865,762.58,779.41,769.45,790.58,775.51,8.30,-884.28,525.88,-9.90,-0.13,5.50,-414.76
37901,762.93,779.51,769.13,789.21,775.20,-8.30,-882.32,539.06,-7.90,3.33,3.63,-404.40
37940,763.57,779.57,768.62,787.13,774.72,12.21,-804.20,561.04,-5.54,3.90,6.56,-389.17
37976,765.17,779.86,768.05,784.84,774.48,-41.99,-879.88,539.55,-15.35,0.12,14.55,-377.67
38012,765.02,779.58,767.90,783.01,773.88,-52.25,-935.55,450.20,-11.15,1.79,-3.04,-351.62
38048,765.81,778.79,767.07,780.22,772.98,21.48,-798.34,580.08,0.74,0.63,7.76,-327.56
38084,768.43,778.30,766.31,777.89,772.74,-27.83,-908.20,499.51,2.55,1.92,3.15,-317.25
38121,771.58,777.72,765.75,776.02,772.77,-90.82,-942.87,460.94,-0.52,-1.55,1.38,-309.92
38160,772.01,777.53,765.36,774.43,772.33,-39.55,-865.72,558.11,0.04,1.59,2.91,-296.10
38196,771.72,776.99,764.93,772.96,771.65,-42.48,-903.81,489.75,-5.00,5.63,-0.56,-279.95
38232,772.26,776.47,764.53,771.87,771.28,3.42,-920.90,458.98,-3.54,5.51,-1.21,-271.31
38268,773.90,775.75,764.25,771.53,771.36,-36.62,-888.18,530.27,5.34,-4.16,2.48,-273.43
38304,776.74,774.77,763.87,771.20,771.64,-20.02,-871.58,526.37,6.39,-4.77,0.03,-279.82
38341,779.63,774.73,763.88,771.06,772.32,-25.39,-867.19,555.66,5.08,-0.66,0.22,-287.16
38380,781.59,775.32,763.91,771.14,772.99,-34.67,-865.23,546.39,-7.25,1.89,-0.63,-298.96
38416,782.76,776.91,764.32,771.93,773.98,-52.73,-879.88,523.93,-8.27,6.07,-4.36,-317.29
38452,782.53,778.71,764.73,772.74,774.68,-33.20,-879.88,516.60,-8.73,6.50,-3.40,-332.40
38488,781.62,779.92,765.20,773.48,775.05,-29.30,-885.74,517.58,-6.14,2.97,-1.86,-338.33
38524,780.30,780.23,765.52,774.10,775.04,-23.93,-894.04,511.23,-3.02,2.58,-5.52,-337.52
38560,778.13,779.92,765.80,774.64,774.62,-18.07,-883.79,521.97,-1.76,-0.40,-3.62,-328.24
38599,776.49,779.47,765.97,775.10,774.26,-37.11,-880.86,515.62,-4.44,-1.38,-4.30,-321.75
38635,775.22,778.97,766.00,775.16,773.84,-25.88,-875.98,529.30,-0.16,-0.21,0.82,-313.50
38671,775.29,778.65,765.90,775.00,773.71,-33.20,-885.25,512.21,3.49,-0.36,0.09,-311.43
38707,775.88,778.35,765.71,774.41,773.59,-18.07,-875.49,517.09,1.77,-1.14,0.26,-306.79
38743,776.96,777.93,765.47,773.60,773.49,-20.02,-896.97,503.42,2.37,1.45,4.27,-301.38
38782,778.27,777.33,765.01,772.56,773.29,-26.86,-880.86,523.93,2.36,-2.22,1.82,-297.30
38818,780.06,776.55,764.43,771.34,773.09,-28.32,-863.77,531.74,6.84,0.09,2.10,-293.46
38855,781.48,775.94,764.14,770.84,773.10,-39.55,-889.16,526.37,3.93,1.63,-1.19,-293.49
38891,782.06,775.52,763.89,770.35,772.95,-37.11,-880.37,523.93,2.16,-1.54,1.75,-291.01
38927,782.23,775.05,763.78,769.95,772.75,-25.88,-866.70,543.46,-0.99,0.27,-0.41,-284.79
38963,782.33,774.71,763.60,769.72,772.59,-33.20,-868.65,524.41,0.21,-0.29,2.45,-283.54
39002,782.37,774.65,763.54,769.67,772.55,-32.23,-889.16,523.93,-0.68,-2.12,1.42,-283.88
39038,782.48,774.48,763.51,769.77,772.56,-23.93,-875.49,535.64,1.38,1.50,-0.71,-285.17
39075,782.82,774.28,763.37,769.67,772.53,-34.67,-879.39,531.74,1.15,-2.21,-3.09,-286.47
39111,782.90,773.98,763.42,769.86,772.54,-38.57,-884.77,528.81,-0.41,-1.06,-0.24,-286.03
39148,782.31,773.81,763.50,770.55,772.54,-36.62,-890.62,528.81,1.31,-2.10,-1.85,-290.75
39184,780.57,774.03,763.80,771.56,772.49,-33.69,-873.05,551.76,-1.07,-1.01,0.10,-293.96
39223,778.24,774.40,764.29,773.15,772.52,-27.34,-886.72,526.37,-3.81,-2.33,-5.63,-300.10
39259,776.12,774.74,764.68,774.37,772.48,-25.88,-867.68,524.90,-4.05,-0.55,-2.05,-303.73
39295,774.25,775.24,765.12,775.79,772.60,-6.35,-874.51,533.20,-2.46,0.24,-4.98,-311.38
39331,773.07,775.69,765.46,776.59,772.70,-13.67,-875.98,532.71,-1.69,-0.65,-1.21,-314.42
39367,771.96,776.15,765.77,777.19,772.77,-18.55,-882.81,524.90,-4.72,0.47,-2.34,-315.23
39403,771.24,776.22,765.89,777.51,772.72,-21.97,-871.09,521.97,-3.67,4.91,-0.13,-315.01
39442,770.40,776.31,766.06,778.08,772.71,-13.18,-876.46,517.58,-3.28,0.70,-0.30,-317.09
39478,769.72,776.21,766.35,779.21,772.87,-41.02,-905.27,496.58,-1.49,-0.49,-2.73,-323.23
39514,768.34,776.15,766.81,780.62,772.98,-23.93,-900.39,528.32,-0.17,-2.13,-6.53,-327.39
39550,766.39,775.89,767.28,781.87,772.86,-5.86,-880.86,511.23,-0.56,3.77,-4.89,-325.36
39586,764.60,775.75,767.79,783.29,772.86,-2.93,-883.30,520.02,-2.30,1.84,-6.26,-326.28
39624,762.90,775.45,768.25,784.37,772.74,-5.37,-863.28,523.44,-0.24,0.96,-5.32,-322.47
39660,761.88,775.20,768.50,785.04,772.66,-13.67,-893.55,499.51,-2.66,3.12,-1.98,-320.47
39697,761.06,774.97,768.48,784.69,772.30,0.00,-854.98,528.32,0.24,2.11,-4.24,-311.30
39733,761.16,774.65,768.24,784.32,772.09,-11.72,-852.54,546.87,4.40,-1.82,0.77,-309.52
39769,762.07,774.61,767.76,783.86,772.08,11.72,-868.65,523.93,11.15,-4.63,5.67,-317.63
39805,763.83,775.09,767.39,783.41,772.43,-3.42,-887.21,529.30,6.06,-5.94,8.07,-329.89
39844,765.82,775.06,766.86,781.92,772.42,-15.14,-857.91,537.11,4.77,-2.53,5.56,-327.82
39880,767.20,774.75,766.31,780.24,772.13,-16.60,-896.00,521.97,-0.31,0.19,4.07,-319.27
39917,767.83,774.23,765.81,778.57,771.61,-31.74,-886.23,521.00,-0.38,-2.05,5.35,-305.07
39953,768.97,773.71,765.26,776.85,771.20,-24.90,-846.19,555.18,0.60,1.39,7.91,-293.11
39989,770.53,773.01,764.55,774.35,770.61,-14.65,-905.27,543.95,2.98,-1.02,1.49,-273.70
40025,772.61,771.53,763.73,771.51,769.84,-28.32,-850.59,548.34,3.53,1.24,5.54,-247.69
40065,773.63,770.89,763.57,770.41,769.62,-50.78,-911.13,506.35,-11.33,2.95,-1.31,-233.99
40101,772.64,770.34,763.32,769.80,769.02,0.98,-855.47,544.43,-7.73,1.94,-0.79,-223.14
40137,772.61,770.71,763.77,770.68,769.44,-62.01,-930.66,500.00,-11.47,-1.60,-1.27,-227.97
40173,771.68,771.53,764.50,772.46,770.04,-10.74,-869.63,515.62,-5.33,-0.95,-1.75,-239.33
40210,770.89,772.38,765.25,773.36,770.47,-21.48,-875.98,516.60,-16.30,3.92,-5.70,-237.85
40246,770.29,773.26,765.91,774.27,770.93,7.32,-906.74,508.30,-5.43,2.14,-4.23,-240.02
40284,770.76,774.18,766.47,774.85,771.56,-32.71,-881.35,503.91,-11.25,7.94,-7.08,-243.59
40321,770.85,775.01,766.88,774.78,771.88,51.76,-844.73,495.12,38.32,-4.69,-3.57,-239.20
40357,774.25,775.53,766.76,774.03,772.64,-70.80,-916.99,495.12,11.76,-1.54,-4.08,-247.06
40393,772.53,775.68,766.83,774.16,772.30,-1.46,-822.75,536.13,-13.27,6.41,-8.03,-242.40
40429,774.76,777.29,767.19,774.34,773.39,-75.68,-936.04,467.77,2.55,0.76,-0.08,-256.76
40467,774.47,776.95,767.24,773.82,773.12,-21.48,-881.35,574.71,-0.60,-3.40,-4.68,-244.10
40503,774.31,777.75,767.42,774.90,773.60,-20.51,-921.39,505.37,18.63,0.47,-3.18,-261.37
40540,773.67,778.94,767.43,775.68,773.93,90.82,-810.06,558.59,38.94,-7.63,-6.85,-279.88
40576,773.26,778.98,767.63,776.60,774.12,14.16,-916.02,513.67,14.10,-3.73,-5.65,-287.24
40612,772.41,778.96,767.81,777.61,774.20,29.79,-831.54,524.90,14.66,-3.43,-8.92,-294.79
40648,771.92,779.14,767.68,779.69,774.61,-3.42,-882.81,491.21,17.00,-9.15,-4.80,-328.38
40686,771.63,780.27,767.58,781.90,775.35,22.95,-816.89,557.13,6.24,-8.26,-5.49,-371.34
40723,770.86,780.79,767.80,784.41,775.96,6.35,-903.81,537.60,7.13,-6.35,-5.24,-404.44
40759,768.78,780.12,768.09,786.29,775.82,21.00,-833.50,582.03,1.49,-2.61,-9.44,-412.26
40795,766.25,779.36,768.67,788.54,775.70,33.69,-908.20,535.16,-1.06,-2.37,-9.06,-416.27
40831,765.44,779.51,769.35,792.17,776.62,37.60,-832.03,566.41,14.16,1.88,-10.61,-451.06
40867,763.40,779.72,770.18,795.46,777.19,64.94,-887.70,583.98,2.64,-0.48,-11.61,-473.51
40905,761.54,779.38,771.03,798.90,777.71,78.12,-834.47,582.03,3.23,-1.34,-10.53,-493.86
40941,759.64,778.72,772.02,802.37,778.19,68.36,-863.28,564.45,5.46,-4.56,-14.12,-508.64
40977,758.28,778.55,773.13,805.27,778.81,56.15,-827.64,586.91,-2.25,-4.79,-17.98,-517.40
41014,756.88,778.45,774.67,806.71,779.18,56.15,-865.72,616.21,-7.48,-6.42,-19.31,-494.55
41049,756.27,778.55,776.27,809.06,780.04,135.74,-890.62,468.75,8.10,-2.25,-22.40,-487.96
41085,756.17,779.75,777.43,812.18,781.38,81.54,-792.48,623.05,15.11,11.02,-17.00,-514.27
41124,756.12,780.59,778.38,815.05,782.54,107.91,-767.58,590.82,13.03,4.37,-9.27,-539.51
41160,756.13,781.41,778.28,817.56,783.34,127.44,-775.88,572.75,15.54,6.34,-0.86,-585.46
41196,756.21,781.80,777.50,817.23,783.19,50.29,-814.94,643.55,7.25,3.60,7.63,-603.58
41232,756.12,781.40,776.46,814.94,782.23,86.43,-746.58,631.35,-5.21,1.71,13.46,-592.19
41267,755.98,780.68,775.05,811.54,780.81,75.20,-893.55,568.85,-11.05,-3.60,14.09,-571.12
41303,756.13,779.92,773.40,808.02,779.37,81.05,-873.54,579.59,7.35,8.18,11.23,-554.86
41342,757.06,778.87,771.61,804.16,777.93,48.83,-717.29,668.46,4.53,-0.40,16.59,-537.28
41378,758.59,778.48,770.10,800.64,776.95,-10.74,-876.46,586.43,7.32,0.11,19.58,-525.27
41414,760.08,777.83,768.96,797.42,776.07,50.78,-844.24,607.91,11.48,-2.08,10.73,-506.12
41450,761.66,776.74,768.17,794.80,775.34,23.44,-798.34,632.32,-6.44,-1.69,15.40,-484.02
41486,763.02,776.11,767.58,792.49,774.80,14.16,-843.26,598.14,-11.14,1.98,12.03,-464.41
41525,764.32,776.31,767.08,790.37,774.52,30.27,-812.99,628.42,-6.48,0.84,8.54,-451.76
41561,765.17,776.34,766.90,788.52,774.23,19.53,-878.42,578.61,-8.54,0.02,7.19,-432.16
41597,766.29,776.08,766.61,787.43,774.10,24.90,-802.73,625.98,-10.06,0.52,7.89,-424.95
41633,767.75,775.73,766.37,786.53,774.09,8.30,-859.37,594.24,-8.48,0.95,9.17,-419.99
41669,768.72,775.49,766.12,785.06,773.85,29.79,-815.43,589.36,-4.48,1.20,5.25,-405.90
41705,770.22,775.28,765.74,783.81,773.76,22.46,-824.22,592.29,-8.84,2.36,6.38,-400.48
41743,772.09,774.30,765.34,781.97,773.43,21.48,-833.50,550.78,0.05,0.80,8.93,-381.97
41779,773.70,773.99,765.03,779.97,773.17,3.42,-859.37,548.83,-14.91,5.73,6.82,-363.09
41815,775.15,773.66,764.64,777.47,772.73,-14.65,-819.34,585.94,-20.85,5.43,7.08,-338.39
41851,776.69,773.02,764.20,774.78,772.17,-3.91,-854.49,548.83,-1.63,9.99,2.70,-310.22
41887,779.44,772.87,763.75,771.90,771.99,-48.83,-895.02,541.02,-8.07,7.60,2.11,-286.94
41924,778.89,772.63,763.43,770.22,771.29,-22.46,-867.68,538.09,-13.08,5.27,1.27,-266.53
41963,779.62,772.21,763.17,769.26,771.07,-118.65,-910.16,533.69,-20.91,6.89,1.45,-258.05
41999,777.84,771.89,762.96,768.12,770.20,-25.88,-808.11,585.94,-24.15,8.19,-0.54,-237.74
42035,775.48,771.27,762.86,767.42,769.26,-45.90,-925.29,460.94,-17.00,1.31,1.98,-217.05
42071,775.04,770.29,762.52,766.89,768.68,-12.70,-875.00,517.09,2.56,0.28,3.28,-208.24
42107,775.99,770.10,762.35,766.86,768.82,-43.95,-892.58,497.07,1.45,-2.65,2.64,-213.88
42143,777.40,769.80,762.33,767.19,769.18,-40.53,-861.82,547.85,8.27,-3.31,2.40,-221.55
42182,780.33,770.20,762.39,767.67,770.15,-23.93,-846.19,571.29,13.01,-0.92,1.47,-240.31
42218,785.09,771.03,762.47,767.98,771.64,-28.81,-855.96,553.71,8.00,-0.16,-1.10,-265.82
42254,787.59,771.69,762.60,767.99,772.47,-13.67,-847.17,565.43,2.65,0.52,-4.07,-276.76
42290,789.43,771.91,762.46,767.10,772.73,-26.86,-852.54,571.29,-5.61,4.47,-5.27,-275.33
42326,793.90,771.86,762.29,765.90,773.49,-33.20,-861.82,557.13,-7.94,7.06,-5.87,-276.71
42362,798.56,771.92,762.12,764.92,774.38,-11.23,-859.86,518.55,-12.88,8.84,-3.46,-282.79
42400,804.81,772.08,761.94,764.60,775.86,-44.92,-906.74,511.23,0.26,1.87,0.33,-305.48
42437,806.55,771.67,761.87,764.37,776.11,-45.41,-894.04,523.44,0.82,-0.30,-0.66,-306.63
42473,804.27,771.19,761.71,764.26,775.35,-39.06,-884.77,531.74,2.81,-0.96,0.17,-297.13
42509,802.78,771.00,761.76,764.34,774.97,-45.41,-879.39,525.88,3.80,1.91,-1.73,-290.57
42545,802.27,771.24,761.87,764.67,775.01,-32.23,-874.51,540.04,3.17,1.24,-0.66,-292.89
42584,801.96,771.30,761.92,764.96,775.03,-34.18,-874.51,543.46,3.87,1.71,-1.09,-295.06
42620,800.23,771.78,762.10,765.53,774.91,-34.18,-867.68,531.25,-1.90,-1.64,-1.97,-297.13
42655,798.07,772.07,762.17,765.84,774.54,-24.41,-862.30,535.16,-4.40,-0.63,-0.84,-294.91
42691,796.31,772.44,762.23,766.22,774.30,-32.71,-876.46,532.71,-4.35,1.54,0.11,-295.75
42727,794.81,773.01,762.50,767.07,774.35,-47.36,-877.44,514.65,-4.53,-0.41,-1.84,-300.97
42763,791.52,773.63,762.79,768.20,774.03,-32.71,-881.35,533.20,1.72,-1.21,-1.27,-304.04
42802,788.04,774.31,763.23,769.66,773.81,-20.02,-882.32,517.58,-0.49,0.08,-1.25,-308.27
42838,784.96,774.57,763.57,770.51,773.40,-23.44,-844.73,547.36,-2.55,-0.87,-3.46,-303.75
42874,782.76,774.77,763.90,771.61,773.26,-17.09,-872.56,529.79,-0.93,-1.66,-2.84,-305.80
42910,780.95,774.93,764.15,772.62,773.16,-33.69,-870.61,535.64,-2.72,-1.06,-1.34,-309.43
42946,779.70,775.09,764.48,773.69,773.24,-27.34,-878.42,514.65,-1.84,-3.02,-0.22,-313.98
42982,778.02,775.15,764.74,774.53,773.11,-14.65,-872.56,527.34,-3.45,1.71,-3.28,-314.56
43021,776.02,775.01,765.01,775.24,772.82,-21.00,-873.54,539.55,-3.56,-1.16,-3.00,-310.15
43057,774.56,774.90,765.25,775.81,772.63,-21.48,-886.72,536.13,-3.73,0.63,-1.04,-306.70
43093,773.26,774.66,765.42,776.47,772.45,-16.60,-880.86,533.20,-2.76,0.91,-2.73,-305.84
43129,772.23,774.43,765.53,777.03,772.30,-20.51,-877.44,518.07,0.82,-1.77,-1.12,-306.08
43166,771.40,774.17,765.85,777.98,772.35,-30.27,-901.86,516.11,2.15,0.67,-1.92,-307.08
43202,769.91,773.90,766.18,779.17,772.29,-22.95,-868.16,523.93,-1.12,-2.73,-7.01,-309.16
43240,767.74,773.90,766.91,780.79,772.34,-20.51,-876.46,521.97,-0.19,0.97,-7.52,-307.22
43277,765.42,773.83,767.48,782.03,772.19,5.86,-873.05,523.93,-4.85,3.75,-10.87,-302.94
43313,763.63,773.83,767.96,782.69,772.03,4.88,-845.70,546.39,-5.82,2.52,-6.37,-294.35
43349,762.52,773.80,768.19,783.18,771.92,-4.39,-882.32,517.58,-3.66,2.39,-2.88,-291.79
43385,762.22,774.06,768.49,783.53,772.07,15.14,-872.07,527.34,-1.12,2.97,-2.11,-290.68
43424,762.23,774.50,768.57,783.56,772.21,-7.81,-877.44,528.81,-3.70,0.45,0.50,-292.66
43460,762.54,774.73,768.38,783.07,772.18,-16.60,-888.67,521.00,-4.65,1.30,1.60,-293.02
43496,762.83,774.72,768.04,782.23,771.96,-10.74,-893.07,515.62,-3.53,0.44,0.85,-290.07
43532,763.14,774.59,767.68,781.33,771.69,-13.67,-876.95,512.70,-4.07,-2.67,4.66,-285.78
43569,763.52,774.37,767.57,781.13,771.65,-18.07,-930.66,494.63,0.90,-1.69,1.50,-285.20
43605,763.43,774.16,767.41,780.91,771.48,-15.63,-896.48,503.42,3.83,0.79,-2.53,-283.85
43644,763.28,773.94,767.25,780.79,771.32,-3.42,-875.98,515.14,3.26,-1.40,-3.98,-283.83
43680,763.15,773.79,767.20,780.93,771.27,-13.67,-879.88,523.93,0.10,-0.50,-2.05,-285.43
43716,763.34,773.37,766.89,779.98,770.90,-6.35,-874.51,524.41,3.23,-0.76,-1.79,-276.37
43752,763.93,772.84,766.42,779.04,770.56,3.42,-890.62,521.97,2.69,-0.85,2.16,-272.19
43788,763.72,772.50,766.50,778.83,770.39,-35.64,-904.30,494.63,1.50,2.76,-4.65,-263.54
43825,763.09,772.09,766.47,778.36,770.00,-12.21,-839.36,539.06,3.69,2.37,-6.93,-251.93
43863,763.27,772.35,766.48,778.78,770.22,-5.86,-873.54,510.25,0.56,-1.84,0.23,-260.54
43900,764.01,772.34,766.31,778.03,770.17,13.18,-829.10,540.53,4.49,-6.10,3.17,-256.29
43937,765.69,772.13,765.83,776.35,770.00,14.65,-843.26,528.32,-12.21,-7.08,12.08,-247.69
43973,766.47,772.87,766.30,777.00,770.66,-75.68,-1025.88,444.34,-16.64,-0.35,-0.37,-254.27
44009,765.34,773.24,766.70,777.36,770.66,-35.16,-878.42,499.02,-8.56,4.35,-8.32,-248.51
44045,765.37,773.04,766.40,775.89,770.18,18.55,-830.57,513.18,-5.40,-4.28,3.72,-233.06
44084,767.08,773.24,766.36,775.50,770.55,-73.24,-995.61,468.75,-14.46,-2.31,4.23,-235.49
44120,766.59,773.40,766.82,775.83,770.66,-28.32,-937.01,483.40,-6.21,3.79,-6.42,-228.59
44157,767.25,773.27,766.80,775.03,770.59,5.86,-820.31,503.42,21.95,-9.74,4.92,-218.52
44193,770.21,773.69,766.88,774.57,771.34,-45.90,-950.68,535.64,4.40,-1.73,5.98,-223.27
44229,770.84,774.07,767.42,774.68,771.75,-16.11,-916.02,497.56,-4.79,-0.38,-6.02,-216.55
44266,770.19,774.40,768.44,775.34,772.09,20.02,-993.16,523.93,4.48,3.86,-7.35,-201.36
44305,769.81,774.35,769.14,775.75,772.26,-31.74,-878.91,519.53,5.92,2.67,-8.07,-188.11
44341,769.66,774.22,769.22,776.59,772.42,53.71,-771.00,563.96,25.45,-8.69,-4.97,-197.05
44377,769.24,774.68,768.76,778.59,772.81,-30.27,-997.07,463.38,13.48,-0.60,-8.20,-240.28
44413,768.69,775.19,768.87,779.77,773.13,0.98,-789.55,581.05,16.63,-3.73,-11.44,-256.97
44449,768.41,776.30,769.04,780.95,773.67,5.37,-914.55,512.21,11.54,-1.85,-11.02,-278.19
44488,767.12,776.82,769.51,782.92,774.09,-23.93,-884.28,545.90,-3.47,-2.36,-7.97,-295.07
44524,766.93,776.56,770.07,784.95,774.63,31.25,-819.34,606.93,23.02,-1.01,-9.44,-308.40
44560,765.69,776.07,770.21,787.58,774.89,57.13,-864.75,566.89,11.34,0.89,-9.91,-335.33
44596,764.04,776.23,770.17,790.75,775.30,53.22,-881.84,569.82,11.71,0.79,-10.63,-378.80
44632,762.91,776.12,770.34,794.03,775.85,58.11,-827.64,609.86,13.49,0.07,-6.61,-417.87
44668,761.29,775.59,770.60,795.69,775.79,50.29,-842.77,606.93,-5.82,-0.18,-6.34,-426.11
44707,759.15,774.89,770.97,797.33,775.59,26.86,-884.28,565.92,0.84,1.32,-7.78,-427.88
44743,758.50,775.15,771.40,800.27,776.33,42.97,-833.01,593.26,16.11,4.47,-13.93,-460.34
44779,757.96,775.76,772.38,802.72,777.20,44.43,-850.59,589.36,7.25,0.58,-13.52,-475.13
44816,757.30,776.22,773.16,804.48,777.79,68.85,-815.43,599.12,7.91,-3.16,-15.86,-482.89
44852,757.27,777.49,774.07,808.00,779.21,101.56,-757.81,610.84,10.94,4.31,-7.21,-522.11
44889,758.05,779.68,774.44,811.34,780.88,70.80,-875.98,632.32,25.66,13.05,-8.87,-582.50
44928,759.61,781.59,774.68,813.49,782.34,78.12,-749.51,650.39,23.94,8.86,-3.15,-628.87
44964,760.93,782.22,774.01,812.79,782.49,59.08,-724.12,663.09,8.96,-1.31,3.24,-644.74
45000,761.55,782.19,772.93,810.37,781.76,78.61,-828.61,659.67,-2.34,-0.04,9.63,-637.83
45037,762.01,781.30,771.41,806.31,780.26,67.87,-798.83,651.37,-2.59,-3.89,13.75,-610.52
45073,762.33,779.96,769.71,801.67,778.42,45.90,-856.93,581.54,12.09,3.61,9.92,-574.87
45109,763.37,778.40,768.07,796.85,776.67,60.06,-764.65,671.87,14.44,0.97,10.44,-535.65
45148,765.10,777.02,766.76,792.80,775.42,24.41,-720.70,683.11,9.70,0.24,13.76,-503.70
45184,766.35,775.81,765.84,789.78,774.44,68.36,-770.02,630.37,0.82,-7.03,17.31,-476.76
45220,767.51,775.11,765.46,787.85,773.98,22.95,-744.14,647.95,-11.37,-2.00,17.92,-456.40
45257,768.45,774.48,765.10,786.24,773.57,43.95,-825.68,665.53,-12.45,-5.23,13.76,-439.79
45293,769.66,773.59,764.93,785.19,773.34,31.74,-746.58,655.76,-23.68,3.15,16.71,-425.46
45332,770.17,773.56,765.04,784.99,773.44,8.30,-853.52,607.91,-12.14,-2.45,5.15,-421.21
45368,770.52,773.34,764.98,784.40,773.31,47.85,-757.32,645.02,-15.41,1.00,6.85,-413.38
45404,770.96,773.30,765.04,784.35,773.41,-7.81,-902.83,567.87,-23.60,4.21,6.37,-412.69
45440,771.20,772.88,765.10,784.51,773.42,-9.28,-820.80,615.23,-9.02,-1.21,0.62,-410.93
45477,771.21,772.77,765.22,784.01,773.30,-18.07,-844.73,588.87,-19.27,5.95,4.78,-399.52
45513,771.71,772.45,765.21,783.34,773.18,-50.29,-840.82,592.29,-13.69,-1.21,7.02,-389.11
45552,772.26,772.19,765.09,782.64,773.04,-8.79,-802.73,588.38,-5.29,4.14,-1.03,-381.63
45588,772.10,772.33,765.04,781.86,772.83,0.00,-838.38,571.78,-22.75,5.48,3.95,-372.04
45624,771.69,772.47,765.12,780.74,772.51,-6.84,-924.32,495.61,-10.50,4.63,-1.36,-353.37
45661,771.35,772.35,765.08,779.44,772.06,11.72,-777.83,569.82,-14.59,4.39,0.93,-333.11
45697,771.80,772.86,764.90,778.36,771.98,-89.36,-926.27,598.14,-17.13,9.87,3.68,-327.14
45733,771.05,773.36,765.01,777.83,771.81,-2.44,-868.16,535.64,-6.50,2.60,-2.64,-318.20
45772,770.67,773.77,765.27,777.82,771.88,-9.28,-902.34,527.83,-3.40,-1.29,-1.30,-313.61
45808,768.96,773.90,765.48,778.14,771.62,-21.48,-856.45,541.02,-9.41,3.87,-4.56,-308.16
45845,767.10,774.24,765.92,778.07,771.33,-13.18,-903.32,490.72,-27.20,9.65,-6.02,-292.39
45881,764.86,774.34,766.29,778.16,770.91,-19.53,-916.99,484.86,-16.59,8.71,-4.53,-277.67
45917,764.06,774.58,766.58,778.33,770.89,-21.48,-893.55,503.91,6.27,-4.10,-1.64,-272.32
45954,764.43,774.11,766.33,777.49,770.59,-29.79,-888.67,500.49,2.28,-4.21,3.37,-263.50
45992,766.51,772.92,765.77,776.53,770.43,-26.37,-871.09,509.28,22.47,-10.00,9.22,-260.98
46028,769.41,771.77,765.37,775.23,770.45,-35.16,-889.65,501.95,17.08,-5.26,3.89,-252.60
46064,770.87,771.81,765.34,774.96,770.74,-53.71,-879.88,534.67,-3.96,4.60,-1.40,-254.66
46100,770.96,772.69,765.55,774.76,770.99,-20.51,-844.24,558.59,-8.67,7.56,-4.01,-253.64
46136,771.10,774.12,766.04,775.42,771.67,-30.27,-886.72,519.53,-6.47,1.85,1.76,-263.24
46172,771.28,775.41,766.43,776.15,772.32,-55.66,-888.18,517.58,-5.29,0.38,0.84,-275.30
46211,770.42,775.47,766.79,776.57,772.31,-50.29,-932.62,497.07,-8.47,2.39,-4.90,-270.07
46247,768.26,774.61,767.15,776.86,771.72,-41.02,-937.01,472.17,-9.60,2.21,-10.22,-250.79
46283,766.38,773.30,767.35,777.32,771.09,-13.18,-878.91,510.74,7.12,9.50,-15.04,-235.71
46319,765.08,772.53,767.63,777.74,770.74,-14.16,-852.54,520.51,1.88,6.50,-11.02,-224.44
46355,764.33,772.19,767.73,777.78,770.51,6.84,-812.99,564.45,1.04,3.45,-0.71,-217.15
46394,764.13,772.41,767.68,777.67,770.47,1.95,-871.58,511.23,-2.92,0.85,2.66,-217.77
46430,764.39,772.60,767.61,777.51,770.53,-3.91,-888.67,510.74,-1.79,0.34,0.31,-219.57
46466,764.72,772.74,767.52,777.17,770.54,1.95,-865.72,527.83,-3.11,-1.19,0.76,-219.08
46502,764.87,772.84,767.41,776.93,770.51,-28.81,-924.80,475.10,-3.31,1.01,0.65,-219.73
46539,764.74,772.73,767.43,777.04,770.49,-27.34,-897.46,501.95,2.60,-0.50,-0.69,-219.44
46575,764.26,772.61,767.55,777.05,770.37,-20.02,-883.79,520.02,0.07,-0.44,-4.58,-214.00
46614,763.63,772.35,767.61,777.09,770.17,-10.74,-898.44,506.84,-0.36,3.05,-1.76,-208.80
46650,763.35,772.28,767.59,777.18,770.10,-7.32,-882.81,512.21,0.79,3.74,-0.31,-209.09
46686,763.34,772.14,767.65,777.23,770.09,-0.49,-858.89,521.00,1.30,-1.40,-1.60,-207.23
46722,763.42,772.18,767.50,777.33,770.11,-9.28,-888.18,511.23,-1.22,-4.02,2.10,-213.02
46759,763.58,772.34,767.60,777.43,770.24,-12.70,-908.69,504.88,-0.77,-0.34,2.08,-213.81
46795,763.76,772.18,767.54,777.33,770.20,-13.18,-880.37,519.04,1.35,-0.08,0.27,-213.29
46835,763.96,771.83,767.29,776.99,770.02,-4.88,-904.30,513.18,2.41,-2.08,0.66,-212.35
46871,764.31,771.76,767.23,777.07,770.09,-15.63,-911.62,502.93,2.74,-1.27,-2.13,-215.66
46907,764.54,771.62,767.21,777.14,770.12,-12.21,-876.46,537.60,2.29,-0.35,-0.98,-216.87
46943,764.34,771.56,767.31,777.49,770.18,-26.86,-891.11,518.55,4.34,0.79,-1.15,-218.40
46980,764.34,771.71,767.42,778.10,770.40,-11.72,-884.28,512.70,2.89,-0.13,-2.13,-225.70
47016,764.24,771.72,767.44,778.28,770.42,0.98,-873.05,524.90,2.94,0.86,-1.97,-227.75
47055,764.43,771.67,767.42,777.95,770.37,3.91,-877.44,524.90,0.48,1.80,-1.88,-223.35
47091,764.57,771.59,767.27,777.44,770.22,-5.86,-861.82,540.53,-1.62,-0.84,-0.21,-219.45
47128,764.94,771.60,766.98,776.94,770.12,-11.23,-871.09,534.18,-0.34,-1.04,-0.01,-220.71
47164,765.38,771.67,766.91,776.57,770.13,-9.28,-880.86,523.93,-2.05,1.34,0.84,-219.14
47200,765.60,771.80,766.94,776.46,770.20,-10.25,-901.37,514.16,-2.95,0.92,-0.03,-218.77
47236,765.64,771.95,766.90,776.47,770.24,-15.14,-885.25,521.97,-2.34,0.66,-2.10,-221.10
47275,765.42,772.12,767.09,776.62,770.31,-14.16,-875.49,517.09,-2.83,1.10,-2.16,-219.08
47311,765.29,772.26,767.12,776.79,770.37,-13.18,-877.93,519.53,-3.76,0.11,-0.34,-221.60
47348,765.15,772.41,767.28,777.03,770.47,-13.67,-888.67,510.74,0.31,1.84,-1.79,-221.93
47384,765.00,772.42,767.40,777.39,770.55,-3.91,-883.30,520.02,0.79,1.08,-0.66,-223.72
47420,764.71,772.50,767.49,777.75,770.61,-20.51,-881.84,526.86,-1.53,-0.66,-0.76,-226.58
47460,764.44,772.55,767.63,777.92,770.64,-18.07,-886.23,523.44,-0.22,-2.82,-2.18,-224.90
47496,763.98,772.53,767.79,777.98,770.57,-7.81,-870.12,525.39,-2.27,-0.09,-0.11,-220.26
47532,763.76,772.50,767.75,778.18,770.55,-18.55,-875.00,521.00,-2.21,0.73,-0.62,-223.22
47569,763.65,772.50,767.81,778.21,770.54,-9.77,-890.62,517.58,-1.40,0.44,-0.47,-221.55
47605,763.61,772.61,767.82,778.35,770.60,-7.32,-892.09,517.58,0.07,0.18,-1.01,-224.17
47641,763.87,772.69,767.92,778.62,770.78,-15.14,-886.23,518.55,-0.69,-2.16,0.26,-227.29
47680,764.01,772.94,767.99,778.76,770.92,-5.37,-885.25,519.04,-1.11,-0.92,-2.25,-230.09
47716,764.27,772.96,767.99,778.90,771.03,-4.39,-869.14,533.69,0.11,1.86,0.67,-233.15
47753,764.50,773.03,768.06,779.03,771.15,-13.18,-880.86,529.79,-0.07,-2.92,0.83,-234.82
47789,764.82,773.18,768.08,779.21,771.32,-21.00,-880.37,530.27,2.17,-0.76,0.42,-239.06
47826,765.15,773.33,768.04,779.12,771.41,-5.37,-878.42,523.93,1.31,0.34,0.37,-241.21
47862,765.43,773.31,767.94,778.87,771.39,-7.81,-871.09,528.81,1.06,0.76,-0.29,-240.72
47901,765.70,773.38,767.81,778.49,771.35,-14.16,-878.91,545.41,-1.18,1.21,-1.63,-239.79
47937,766.14,773.51,767.62,778.07,771.33,-14.16,-863.77,523.44,0.61,0.99,0.60,-241.08
47973,766.76,773.55,767.42,777.68,771.35,-24.41,-874.02,534.67,-1.65,0.17,0.12,-242.59
48009,767.12,773.52,767.25,777.20,771.27,-10.74,-875.98,526.86,-0.89,-1.10,0.66,-240.87
48045,767.39,773.56,767.07,776.82,771.21,-12.70,-871.09,528.81,-3.20,0.17,2.58,-241.10
48081,767.56,773.59,766.88,776.60,771.16,-18.55,-870.12,521.97,0.18,-2.27,-0.91,-243.32
48120,767.88,773.62,766.85,776.48,771.21,-17.58,-888.18,531.74,1.17,-0.37,1.47,-243.71
48156,768.23,773.63,766.58,776.27,771.18,-3.91,-885.74,530.27,0.88,-2.04,2.70,-248.51
48193,768.66,773.66,766.45,775.94,771.18,-14.16,-885.74,533.20,1.41,1.15,1.75,-248.71
48229,769.09,773.61,766.22,775.58,771.12,-14.16,-882.81,526.37,0.19,-1.03,3.24,-250.21
48265,769.62,773.62,766.01,774.97,771.06,-13.18,-880.37,520.02,-1.11,-0.86,1.08,-248.42
48302,770.22,773.57,765.79,774.51,771.02,-13.67,-884.28,519.53,-1.26,-1.67,2.44,-248.61
48341,770.69,773.39,765.62,773.78,770.87,-26.86,-888.67,522.46,-0.50,3.12,1.78,-242.22
48377,771.01,773.40,765.56,773.35,770.83,-19.04,-878.91,528.32,-1.23,-1.82,0.54,-238.66
48413,771.38,773.23,765.36,772.89,770.71,-27.83,-896.97,518.07,-1.49,-1.63,2.07,-236.80
48450,771.56,773.25,765.33,772.59,770.68,-18.07,-880.86,523.44,-2.31,4.14,-0.66,-233.96
48486,771.59,773.12,765.22,772.30,770.56,-23.93,-882.32,539.55,0.05,2.40,-2.66,-231.32
48525,771.42,773.03,765.22,772.09,770.44,-21.00,-874.02,524.90,-1.77,-0.53,-1.83,-227.00
48561,771.37,772.89,765.12,771.97,770.34,-30.27,-870.12,525.39,-0.47,-1.31,-2.37,-226.49
48598,771.42,772.97,765.08,771.85,770.33,-28.32,-887.21,534.67,-1.80,-1.88,-0.41,-226.59
48634,771.37,773.08,765.12,771.78,770.34,-16.60,-897.46,527.83,-0.48,0.92,-1.82,-225.04
48670,771.40,773.19,765.25,771.80,770.41,-21.00,-893.55,517.58,-2.73,2.76,-0.21,-223.32
48707,771.25,773.19,765.28,771.78,770.37,-28.32,-898.93,519.53,-1.40,1.94,-1.46,-221.67
48746,771.13,773.27,765.36,772.01,770.45,-21.48,-880.86,520.51,-1.02,2.06,-1.67,-223.23
48783,770.90,773.36,765.43,772.14,770.46,-21.48,-870.12,523.44,-1.21,3.80,-0.23,-223.46
48819,770.61,773.49,765.62,772.46,770.55,-18.55,-872.07,529.79,-2.40,2.08,-1.43,-223.39
48855,770.28,773.57,765.77,772.58,770.55,-21.97,-873.05,516.11,0.48,0.30,-4.74,-221.00
48892,770.04,773.63,765.79,772.78,770.56,-24.41,-880.86,521.00,0.76,-0.18,-1.69,-223.11
48928,769.98,773.66,765.81,773.01,770.61,-21.97,-882.32,512.21,1.08,-1.46,0.93,-226.08
48967,770.09,773.84,765.85,773.09,770.72,-30.76,-886.23,509.77,-0.18,0.24,-0.74,-227.91
49003,770.11,773.81,765.86,773.08,770.72,-27.34,-895.51,513.67,0.22,0.18,-2.37,-227.36
49040,770.02,773.73,765.84,772.96,770.64,-17.09,-895.02,512.21,0.39,1.06,1.87,-225.26
49076,769.85,773.60,765.84,772.82,770.53,-15.14,-890.14,524.41,-1.63,3.30,0.05,-221.56
49112,769.82,773.48,765.78,772.70,770.44,-11.72,-881.84,514.65,-1.60,-1.24,-1.76,-220.10
49149,769.88,773.24,765.62,772.44,770.30,-21.97,-878.42,522.95,0.46,-3.11,1.69,-218.47
49188,769.88,773.02,765.46,772.15,770.13,-19.53,-896.97,510.25,-1.17,1.11,-2.66,-216.67
49224,769.94,772.68,765.24,771.68,769.88,-15.14,-874.51,514.16,-1.30,-0.60,-0.40,-212.55
49260,770.07,772.41,764.99,771.17,769.66,-15.63,-874.02,519.53,1.92,-0.81,0.13,-209.57
49297,770.34,772.22,764.83,770.75,769.54,-41.99,-879.39,507.81,-0.91,0.34,2.79,-206.73
49333,770.77,771.98,764.65,770.28,769.42,-11.72,-887.21,530.76,1.78,-2.61,2.55,-204.03
49369,771.13,771.85,764.51,769.96,769.36,-33.20,-883.79,510.25,1.61,-0.80,0.72,-203.01
49408,771.51,771.68,764.33,769.74,769.32,-32.71,-879.39,520.51,0.10,-1.73,1.98,-204.20
49444,771.73,771.59,764.39,769.65,769.34,-25.88,-895.02,525.39,0.62,-0.90,1.94,-201.28
49480,772.08,771.47,764.25,769.52,769.33,-25.39,-872.56,523.44,1.27,-0.93,-0.20,-203.00
49516,771.93,771.32,764.26,769.53,769.26,-31.74,-886.23,520.51,-0.15,1.56,-1.63,-201.32
49552,771.63,771.12,764.26,769.35,769.09,-28.32,-873.54,516.60,-2.54,-0.40,-1.10,-195.93
49591,771.12,770.85,764.20,769.30,768.87,-22.46,-884.77,529.79,-1.01,-1.94,-0.78,-192.84
49627,770.75,770.79,764.12,769.17,768.71,-32.71,-875.00,522.46,-1.31,1.92,-3.34,-191.17
49663,770.49,770.43,764.07,768.98,768.49,-21.97,-888.67,513.67,-1.13,-1.08,-2.84,-185.92
49699,770.27,770.52,764.01,768.96,768.44,-17.09,-870.12,521.48,0.53,0.43,-1.98,-187.12
49736,770.44,770.57,764.02,769.06,768.52,-19.04,-858.89,523.44,-0.35,-2.24,1.73,-189.38
49772,771.02,770.82,763.90,769.08,768.70,-37.60,-874.51,520.02,1.77,-0.94,2.65,-196.66
49811,772.03,770.98,763.92,769.08,769.00,-31.74,-884.77,522.95,3.60,-2.63,3.40,-200.68
49847,773.30,771.20,763.89,769.07,769.37,-33.20,-880.86,529.79,2.51,-1.69,0.70,-207.35
49884,774.28,771.46,763.80,769.18,769.68,-35.64,-868.16,541.99,1.91,-2.19,2.09,-216.67
49920,774.94,771.59,763.78,769.21,769.88,-26.37,-860.84,530.27,0.62,-2.42,-0.21,-220.95
49956,775.21,771.74,763.85,769.10,769.97,-39.55,-874.02,528.32,-0.29,2.46,1.08,-219.87
49993,775.38,771.96,763.79,769.22,770.09,-36.62,-892.09,525.39,-1.03,1.44,0.05,-225.27
50032,775.43,772.20,763.92,769.22,770.19,-28.32,-872.56,532.23,-1.42,1.49,-0.84,-224.20
50068,775.31,772.51,763.88,769.42,770.28,-35.64,-878.42,519.53,-1.95,-0.34,-3.85,-230.20
50104,775.15,772.74,764.03,769.58,770.37,-22.95,-870.12,529.30,-0.98,0.69,-0.75,-230.01
50141,774.86,773.04,764.13,769.93,770.49,-21.48,-873.05,524.41,-2.12,2.44,-2.24,-234.32
50177,774.70,773.40,764.23,770.11,770.61,-24.41,-886.72,516.60,0.05,-0.74,-0.82,-236.87
