currTime,s1,s2,s3,s4,s,AccX,AccY,AccZ,GyroX,GyroY,GyroZ,GRF,Frame,SubFrame,Weight,Fx,Fy,Fz,Mx,My,Mz,Cx,Cy,Cz
10460,753.26,761.7,766.75,760.2,760.47,236.82,-921.87,303.22,40.66,12.34,4.2,139.25,2093,0,82,-10.1488,-0.723652,-56.3145,7276.97,-6505.13,-1208.73,-614.624,-129.955,0
10494,753.51,762.22,768.74,760.65,761.28,142.58,-943.85,368.65,-4.67,-7.12,2,177.33,2100,0,82,0.602852,2.73556,-93.4685,11844.8,-9701.27,74.9651,-601.782,-126.708,0
10528,755.68,763.56,771.81,761.52,763.14,102.54,-917.97,377.44,2.67,-6.23,5.23,222.78,2107,0,82,8.4111,5.30984,-116.09,13463.6,-10768.1,913.727,-590.758,-115.986,0
10564,760.77,766,776.1,763.12,766.49,104.49,-925.29,335.94,10.21,-3.19,6.02,268.91,2114,0,82,8.19519,14.0482,-136.389,14455.2,-12411,-335.026,-589.009,-106.02,0
10598,766.48,768.05,779.83,765.12,769.87,115.23,-926.76,358.89,14.84,3.63,3.27,296.38,2121,0,82,8.51888,28.1921,-197.155,20366.4,-18063.6,-1882.02,-589.608,-103.299,0
10632,773,769.7,783.14,766.89,773.18,106.93,-919.43,380.37,20.58,6.87,1.41,317.2,2127,0,82,7.61341,39.0199,-289.315,31151.2,-27499.4,-3177.71,-593.04,-107.667,0
10667,780.97,771.19,785.75,768.5,776.6,132.32,-925.78,359.86,13.76,-0.34,-3.53,319.18,2134,0,82,5.17653,44.7309,-409.653,46870.7,-40596.8,-4477.73,-597.095,-114.403,0
10701,787.32,772.64,787.14,769.92,779.26,95.21,-902.34,413.57,12.95,1.82,0.74,299.44,2141,0,82,-0.226248,53.0154,-530.463,62789.5,-53747.3,-7133.76,-599.318,-118.365,0
10735,788.95,773.81,788.14,771.28,780.54,142.58,-952.64,389.16,7.44,2.14,0.9,289.49,2148,0,82,-9.64322,63.3864,-656.917,80822.3,-68447.2,-10942.9,-602.192,-123.029,0
10769,790.87,774.05,788.87,772.02,781.45,101.07,-922.36,407.23,5.29,-0.36,-2.15,288.33,2155,0,82,-18.7312,73.3858,-760.643,95772.5,-81185.4,-13870.5,-604.732,-125.909,0
10803,792.04,773.85,788.27,772.09,781.56,109.86,-900.39,410.16,7.28,0.03,0.19,270.01,2162,0,82,-21.5768,83.7276,-811.603,102012,-86572.8,-15775.9,-604.669,-125.693,0
10837,791.75,773.47,787.91,771.94,781.27,108.4,-914.06,396,1.44,1.31,-0.64,267.15,2168,0,82,-25.2425,89.467,-835.391,105321,-89219.9,-17266.4,-604.8,-126.074,0
10871,790.93,772.95,787.27,771.49,780.66,112.79,-932.13,383.3,1.24,-1.61,-1.87,264.87,2175,0,82,-31.9662,82.1738,-837.462,107908,-90427.8,-17705.5,-605.978,-128.851,0
10905,790.07,772.48,786.82,770.99,780.09,127.93,-919.43,396.97,-1.78,2.5,2.38,267.67,2182,0,82,-35.1277,80.4046,-804.229,103581,-86881.4,-18004.1,-606.031,-128.795,0
10940,790.05,772.03,786.14,770.36,779.64,127.44,-913.57,414.06,-3.53,-3.87,0.04,263.69,2189,0,82,-37.55,70.2647,-762.098,98786.7,-82253,-16860.5,-605.93,-129.625,0
10975,791.1,771.38,785.43,769.34,779.31,133.79,-945.8,372.07,1.71,-3.95,1.31,262.6,2196,0,82,-37.9752,65.2291,-722.105,93771.4,-77795.6,-15469,-605.735,-129.859,0
11010,793.12,771.18,785.22,768.65,779.54,118.16,-897.95,434.08,-2.67,-3.63,2.36,262.29,2203,0,82,-41.676,60.0296,-695.943,91530.9,-75348.3,-14069.8,-606.268,-131.521,0
11044,795.42,771.17,785.38,768.16,780.03,120.61,-942.38,384.77,-0.36,-5.95,4.35,265.64,2210,0,82,-41.6909,51.8598,-685.876,93093.9,-74936.5,-11370.7,-607.257,-135.73,0
11078,795.6,770.85,785.05,767.44,779.73,134.77,-899.41,406.25,0.34,-4.54,6.97,269.84,2217,0,82,-43.5934,50.9654,-705.771,97542,-77339.7,-9550.84,-607.582,-138.205,0
11111,793.71,770.71,784.83,766.63,778.97,123.54,-933.11,421.87,-0.44,-4.68,4.76,283.93,2223,0,82,-47.2776,51.951,-733.445,103222,-80873.4,-8422.68,-608.265,-140.735,0
11145,790.81,770.71,784.71,766.16,778.1,122.07,-951.17,371.58,-6.18,-0.44,6.5,297.79,2230,0,82,-47.147,49.8801,-703.037,100056,-77718.5,-6464.35,-608.547,-142.32,0
11178,786.25,770.5,783.84,765.3,776.47,152.34,-901.86,401.37,5.61,0.4,6.91,306.09,2237,0,82,-45.806,50.1697,-663.396,93702.7,-72620.6,-4797.42,-607.467,-141.246,0
11212,783.37,770.12,782.96,764.53,775.25,110.35,-951.17,365.72,0.6,-1.05,-0.21,308.37,2243,0,82,-45.1574,47.4746,-612.903,85499.5,-66409.7,-3598.67,-606.352,-139.499,0
11246,775.86,769.84,782.47,764.03,773.05,131.35,-981.45,342.77,7.8,8.66,1.25,331.58,2250,0,82,-43.4182,35.6978,-521.922,71054.9,-56048.3,-1228.32,-605.388,-136.136,0
11279,769.86,769.9,782.56,763.92,771.56,152.34,-985.84,351.56,18.09,7.73,4.1,355.74,2257,0,82,-43.2229,23.4905,-460.937,62182.8,-49265.6,-36.4425,-604.882,-134.906,0
11313,765.5,769.61,783.76,764.54,770.85,121.58,-1026.86,497.56,29.79,8.33,14.83,393.88,2264,0,82,-34.4427,13.6108,-380.933,47917.6,-38964.4,1695.27,-600.279,-125.777,0
11349,759.93,768.49,785.2,765.28,769.73,93.75,-1032.23,407.23,46.24,21.37,25.44,446.78,2271,0,82,-20.9257,15.8264,-322.71,35903.4,-30221.2,3570.13,-591.644,-111.251,0
11384,756.35,767.73,786.54,765.9,769.13,-150.88,-664.55,453.12,13.79,-2.63,19.91,489.52,2278,0,82,-16.3817,15.9731,-301.801,29871.3,-25829.3,4248.47,-583.579,-98.9699,0
11418,755.93,767.11,786.83,766,768.97,68.36,-919.43,373.54,47.79,-22.98,25.34,501.46,2285,0,82,-7.18889,13.4833,-257.757,20752.8,-19060,4877.56,-571.937,-80.4989,0
11452,756.05,766.56,786.89,766.17,768.92,89.36,-765.14,507.32,27.62,-41.8,33.69,504.48,2291,0,82,-5.99541,23.2378,-233.932,15448.1,-15647.1,3176.9,-564.887,-66.0348,0
11486,756.16,766.4,787.18,766.34,769.02,163.09,-683.11,765.62,32.58,-1.99,11.89,510.09,2298,0,82,-4.16374,21.672,-228.02,15138.9,-14532.4,3093.22,-561.733,-66.3932,0
11519,756.61,766.5,786.89,765.76,768.94,41.02,-903.81,490.23,-23.2,-3.06,-13.27,509.31,2305,0,82,-1.06258,19.7562,-229.325,16124.8,-14443.4,3812.05,-560.982,-70.3137,0
11554,758.59,766.43,785.37,764.87,768.81,46.39,-877.93,499.51,13.06,-8,-7.27,478.29,2312,0,82,-2.32452,25.4597,-239.46,17965.7,-15206.4,3354.41,-561.504,-75.0249,0
11588,760.89,766.39,782.74,763.64,768.41,38.09,-811.52,549.32,-3.5,-5.09,-20.37,423.12,2319,0,82,-12.0666,29.4424,-233.309,18207.1,-15702.5,1620.63,-565.304,-78.0394,0
11622,762.84,766.39,779.9,762.49,767.9,124.51,-952.64,474.61,-15.69,-7.07,-19.29,362.85,2325,0,82,-11.496,21.2988,-238.18,22793.4,-17425.5,2746.26,-571.16,-95.695,0
11656,764.23,766.38,777.91,761.8,767.58,105.47,-912.11,480.47,-4.12,-4.79,-5.62,318.65,2332,0,82,-15.6791,13.2773,-241.143,28215.5,-19647.6,2800.51,-579.476,-117.005,0
11690,765.57,766.49,776.65,761.23,767.49,94.73,-912.6,499.51,-3.05,-2.85,-5.2,289.96,2339,0,82,-20.6542,5.06062,-244.194,32676.9,-21699.5,2659.82,-586.862,-133.815,0
11724,767.38,765.78,774.95,760.69,767.2,82.03,-958.01,468.26,3.07,0.11,-3.72,255.07,2346,0,82,-21.232,1.084,-247.413,35518.3,-22857,3181.14,-590.384,-143.559,0
11760,768.6,765.33,773.79,760.32,767.01,125.98,-857.91,515.14,-10.95,-12.74,0.36,231.25,2353,0,82,-19.7538,4.83315,-250.048,37614.8,-23851.1,3065.49,-593.388,-150.435,0
11794,768.61,765.03,772.86,760.21,766.68,101.56,-968.75,472.17,0.09,3.55,-1.46,211.89,2360,0,82,-13.8121,-0.965715,-243.421,39771.9,-23526.5,3803.13,-594.649,-163.386,0
11828,768.81,764.56,771.61,760.16,766.29,73.73,-917.97,485.84,16.41,4.92,2.31,184.46,2367,0,82,-15.4304,1.84424,-255.54,43195.4,-24891.1,2980.91,-595.406,-169.036,0
11862,768.8,764.04,770.59,759.88,765.83,55.18,-753.91,573.73,-10.29,-4.99,-4.2,167.45,2373,0,82,-13.1433,3.46273,-245.567,42119.1,-24129.2,2625.22,-596.259,-171.519,0
11896,768.36,763.91,769.84,759.77,765.47,159.67,-826.66,464.84,-29.7,-13.37,-3.69,153.04,2380,0,82,-5.23578,1.93737,-228.582,40403.4,-22211.4,3566.96,-595.17,-176.758,0
11931,767.29,763.74,769.28,759.51,764.96,131.35,-977.05,437.5,-23.14,-2.57,-2.72,147.91,2387,0,82,-7.85687,6.43501,-216.406,39517.1,-21336.3,1931.62,-596.594,-182.608,0
11965,765.9,763.44,768.17,759.25,764.19,69.34,-895.02,508.79,-13.75,-4.97,0.31,131.37,2394,0,82,-12.5901,9.6679,-202.475,37087.2,-20244.4,405.623,-597.986,-183.171,0
11999,764.39,763.04,767.19,759.07,763.43,43.46,-906.25,499.51,-21.38,-23.37,8.09,117.97,2401,0,82,-11.3227,11.3235,-173.381,31674.2,-17605.8,164.17,-599.543,-182.696,0
12033,762.37,762.56,765.85,758.85,762.41,87.89,-939.45,465.82,-14.86,-30.63,8.05,98.54,2408,0,82,-5.9765,8.96827,-139.27,25833.5,-14259.7,700.886,-600.392,-185.506,0
12067,760.04,761.96,764.77,758.62,761.34,143.07,-997.07,380.37,-5.44,-33.23,14.69,87.83,2414,0,82,-4.33278,7.89462,-117.508,21937.8,-12142.4,736.562,-601.337,-186.706,0
12101,757.81,761.6,763.95,758.67,760.51,177.25,-1071.78,447.75,7.31,-28.85,4.17,77.26,2421,0,82,0.221041,4.01748,-84.8012,16690.8,-8986.21,1141.16,-603.981,-196.86,0
12135,755.78,761.29,763.55,758.62,759.81,81.54,-947.75,356.93,39.95,-19.29,3.45,77.5,2428,0,82,3.84901,0.286435,-56.5719,11580.2,-5855.24,1695.36,-601.479,-204.737,0
12171,753.73,761.07,763.34,758.66,759.2,-0.98,-1009.28,449.71,63.37,-47.7,13.89,80.28,2435,0,82,6.06109,-1.50336,-35.5598,7566.57,-3728.49,1906.66,-602.834,-212.747,0
15216,752.03,759.68,761.24,758.48,757.86,340.33,-933.11,239.26,12.89,11.18,5.49,47.73,3044,0,82,-2.42953,0.59533,-22.5003,3428.2,1665.04,-219.242,-424,-152.401,0
15250,752.31,759.8,761.27,758.56,757.99,340.82,-903.32,251.46,7.66,10.88,6.31,45.46,3051,0,82,-2.37101,0.324704,-26.5144,4023.56,1994.26,-266.302,-422.782,-151.738,0
15284,752.67,759.71,761.27,758.65,758.08,358.89,-913.57,220.7,11.24,3.47,7.53,43.47,3058,0,82,-1.6872,0.295156,-26.3186,4260.94,2126.26,-124.991,-417.211,-161.902,0
15318,753.18,759.68,761.32,758.65,758.21,356.45,-944.34,208.98,10.81,4.92,9.56,43.31,3065,0,82,-1.92253,-0.424015,-28.8492,4448.82,2275.64,-220.898,-419.077,-154.297,0
15352,753.66,759.76,761.29,758.64,758.34,343.75,-934.08,227.54,13.85,10.37,9.1,40.47,3071,0,82,-2.16689,-0.971839,-32.7115,5010.27,2451.19,-321.041,-423.069,-153.148,0
15386,754.24,759.69,761.27,758.67,758.47,323.24,-908.2,282.71,14.34,10.68,8.37,38.13,3078,0,82,-2.54219,-1.34617,-35.5462,5663.27,2858.47,-463.915,-417.579,-159.329,0
15422,754.88,759.74,761.23,758.67,758.63,315.43,-911.62,302.25,13.41,9.92,9.96,34.53,3085,0,82,-2.35951,-1.7332,-39.1827,6259.43,3187.22,-301.857,-416.655,-159.759,0
15456,755.46,759.83,761.16,758.65,758.77,314.94,-911.13,293.46,10.24,5.01,14.2,30.44,3092,0,82,-1.9904,-2.2805,-42.4884,6814.83,3623.31,-242.543,-412.726,-160.391,0
15490,756.02,759.87,761.23,758.64,758.94,291.5,-947.27,263.18,8.39,5.11,10.05,29.94,3099,0,82,-2.15675,-1.88656,-46.8854,7447.67,3987.38,-255.784,-412.954,-158.85,0
15524,756.42,759.76,761.27,758.65,759.02,303.22,-940.92,280.27,8.61,8.08,13.6,30.25,3106,0,82,-2.70583,-1.43701,-49.4306,8064.74,4322.68,-250.615,-410.545,-163.155,0
15558,756.68,759.76,761.28,758.68,759.1,274.9,-953.61,306.15,4.11,6.8,10.25,29.2,3113,0,82,-2.81175,-1.15025,-54.3822,8671.29,4555.49,-252.402,-414.217,-159.464,0
15593,756.7,759.83,761.32,758.7,759.14,285.16,-919.92,296.39,5.46,2.67,6.57,29.25,3120,0,82,-2.52685,-1.07191,-56.16,8862.84,4829.32,-98.0808,-412.007,-157.817,0
15627,756.72,759.83,761.32,758.65,759.13,270.51,-942.87,289.06,3.35,0.81,3.57,29.91,3126,0,82,-2.11981,-0.863472,-57.5138,9041.76,5022.39,-78.1616,-410.675,-157.21,0
15661,756.65,759.78,761.26,758.61,759.08,282.71,-913.09,278.81,2.06,2.57,6.27,29.74,3133,0,82,-2.41134,-1.02106,-57.2471,8929.64,5001.08,-29.4022,-410.64,-155.988,0
15695,756.38,759.81,761.26,758.53,759,298.83,-896.97,277.34,6.94,3.16,12.29,31.56,3140,0,82,-2.57419,-0.99519,-57.0759,8885.6,5005.47,-102.159,-410.301,-155.684,0
15729,756.19,759.65,761.24,758.62,758.93,294.43,-878.91,264.16,6.5,8.28,23.66,31.63,3147,0,82,-2.54566,-1.21181,-56.2266,8692.75,4847.82,-111.471,-411.781,-154.604,0
15763,755.97,759.63,761.28,758.57,758.86,263.67,-892.09,293.95,6.01,6.64,30.64,34.15,3154,0,82,-2.22361,-1.93877,-51.7096,8085.62,4717.21,-167.01,-406.771,-156.369,0
15797,755.72,759.58,761.28,758.56,758.78,240.72,-877.44,379.39,10.79,11.21,41.23,35.88,3160,0,82,-1.86625,-2.53347,-50.7291,7424.11,4495.05,-230.915,-409.391,-146.34,0
15833,755.33,759.51,761.2,758.57,758.65,214.36,-941.89,299.32,-1.97,10.56,46.08,35.52,3168,0,82,-1.58474,-2.74018,-49.1272,6856.88,4408.35,-90.6476,-408.266,-139.578,0
15867,755.25,759.54,761.31,758.63,758.68,152.83,-1009.28,302.25,2.52,13.5,47.31,37.45,3174,0,82,-1.43699,-3.41511,-45.9465,6337.97,4217.81,-154.051,-406.178,-137.935,0
15901,755.24,759.58,761.24,758.7,758.69,107.91,-1047.85,314.45,7.89,7.69,29.05,34.41,3181,0,82,-1.56553,-3.76411,-44.1608,5717.54,3978.17,-87.6119,-407.916,-129.472,0
15935,755.11,759.51,761.27,758.75,758.66,24.41,-887.7,470.7,14.2,-1.08,-0.68,35.33,3188,0,82,-2.20937,-3.16403,-43.0348,5244.74,3834.34,-67.6365,-408.9,-121.876,0
15968,754.97,759.53,761.27,758.71,758.62,138.67,-936.04,306.15,-9.65,-0.76,1.73,36.16,3195,0,82,-2.05355,-1.9401,-46.8885,5192.25,4146.08,14.4635,-409.563,-110.776,0
16002,754.94,759.59,761.27,758.71,758.63,153.32,-973.63,262.7,4.21,3.86,0.06,35.93,3201,0,82,-0.484024,-2.02354,-46.0726,5168.85,4251.22,45.9526,-405.693,-112.204,0
16036,755.1,759.62,761.36,758.67,758.69,147.46,-960.94,308.11,4.99,4.4,2.36,37.9,3208,0,82,-1.55582,-3.30035,-41.2928,4760.66,3644.31,-220.814,-409.749,-115.293,0
16069,754.96,759.65,761.3,758.66,758.64,119.63,-963.87,343.26,-3.06,0.08,-2.36,36.87,3215,0,82,-1.626,-2.63882,-43.5387,4822.51,3851.95,-185.921,-409.531,-110.754,0
16104,754.52,759.55,761.27,758.73,758.52,134.77,-976.07,300.78,-17.31,-4.31,-2.18,37.21,3222,0,82,-1.15053,-1.52346,-46.465,4985.46,4270.11,52.3063,-406.101,-107.295,0
16139,753.72,759.52,761.23,758.69,758.29,112.3,-1006.35,333.01,-26.56,-13.21,-2.89,39.85,3229,0,82,-0.875976,-2.47705,-45.7255,4828.34,4103.41,15.8645,-408.259,-105.584,0
16172,752.94,759.55,761.26,758.76,758.13,58.59,-930.18,371.58,5.03,-14.09,2.01,42.06,3235,0,82,-0.943034,-5.18195,-38.9007,4420.59,3528.33,-208.627,-407.301,-113.646,0
16206,752.58,759.65,761.19,758.81,758.06,66.89,-840.33,316.41,9.14,-24.59,19.61,39.97,3242,0,82,-1.2046,-8.84068,-31.0436,3652.7,2659.34,-590.272,-412.303,-117.743,0
16242,752.35,759.57,761.3,758.83,758.01,318.85,-991.21,102.54,-10.27,2.65,3.82,43.83,3249,0,82,-0.441532,-11.7826,-22.6704,2706.58,1987.91,-867.46,-410.38,-119.45,0
16411,752.54,759.82,761.52,758.9,758.19,112.3,-961.91,350.1,16.27,6.97,-0.11,45.68,3283,0,82,-1.49396,-11.9549,-22.6314,1875.84,1820.15,-824.41,-417.568,-82.8927,0
16445,752.57,759.84,761.58,758.94,758.23,136.23,-944.34,315.92,7.02,3.65,1.11,46.36,3290,0,82,-3.07096,-5.36256,-28.377,1853.6,2298.64,-252.619,-417.015,-65.5131,0
16480,752.43,759.75,761.5,758.95,758.16,124.51,-954.59,310.06,-2.81,3.49,-0.27,45.42,3297,0,82,-2.20094,-2.98761,-37.4416,2961.53,3279.89,-36.2473,-410.398,-79.1008,0
16514,752.23,759.73,761.38,758.81,758.04,152.34,-974.12,315.43,-0.82,2.71,2.22,45.34,3304,0,82,-2.31371,-1.47368,-38.6764,2952.53,3339.63,-11.9313,-411.652,-76.3393,0
16548,752.08,759.76,761.48,758.93,758.06,129.39,-954.1,318.36,-1.05,1.18,-1.51,46.21,3311,0,82,-1.72043,-3.11203,-34.1334,2723.63,2901.29,-329.311,-413.001,-79.8418,0
16582,751.82,759.79,761.47,758.93,758,134.28,-935.06,334.47,-5.03,0.51,-0.89,46.81,3317,0,82,-1.55016,-4.92374,-29.9435,2583.85,2520.4,-688.823,-413.813,-86.285,0
16616,751.67,759.71,761.42,758.97,757.94,145.51,-952.15,296.39,-4.73,-2.21,-0.56,46.04,3324,0,82,-1.32975,-5.49308,-27.5364,2201.14,2368.81,-632.472,-411.977,-79.9414,0
16652,751.65,759.66,761.46,758.92,757.92,133.79,-949.22,318.85,-3.02,0.89,0.21,48.29,3331,0,82,-0.871588,-7.7797,-22.6163,1916.97,1854.12,-878.958,-416.012,-84.7406,0
16924,752.38,759.86,761.68,759.05,758.24,162.6,-934.08,306.15,19.4,8.53,-2.68,47.74,3386,0,82,-0.742178,-11.5124,-22.9696,1726.94,1831.29,-761.222,-418.283,-75.1548,0
16959,752.69,760.05,761.88,759.09,758.43,131.84,-937.5,330.57,8.66,0.28,1.32,49.53,3393,0,82,-1.56388,-0.630307,-28.5493,1720.25,2545.63,323.539,-408.841,-60.1435,0
16993,752.72,760.03,762,759.13,758.47,134.77,-966.8,320.8,-0.95,3.03,3.32,51.83,3400,0,82,-1.41038,1.56574,-44.2507,3349.79,4067.51,449.789,-406.071,-75.7274,0
17028,752.76,759.99,761.86,759.14,758.44,139.65,-954.59,315.43,0.01,2.16,-0.01,48.43,3407,0,82,-1.94725,6.08991,-52.1368,3733.92,4606.92,981.492,-409.638,-71.617,0
17064,752.9,760,761.95,759.1,758.49,136.23,-955.08,327.64,-0.8,2.4,-0.16,50.6,3414,0,82,-2.45743,6.45244,-49.9445,3750.81,4430.15,945.706,-409.299,-75.0979,0
17098,753,760.02,761.85,759.08,758.49,137.7,-960.94,310.55,3.56,2.87,1.02,48.06,3421,0,82,-2.79115,6.56457,-50.4211,3688.07,4380.77,992.069,-411.117,-73.1502,0
17132,753.09,760.03,761.88,759.01,758.5,146.97,-954.1,319.82,-0.06,1.78,1.83,49.6,3427,0,82,-2.66153,7.04428,-49.3297,3816.01,4423.01,977.866,-408.335,-77.3509,0
17166,753.19,760.09,761.81,759.12,758.55,141.11,-954.59,320.8,-0.11,1.46,0.6,45.18,3434,0,82,-2.91026,6.99994,-50.3914,4044.79,4521.58,1001.17,-408.27,-80.2738,0
17201,753.36,759.96,761.82,759.03,758.54,137.7,-955.08,326.66,-0.67,-0.66,-1.79,47.23,3441,0,82,-2.6268,6.93253,-50.6059,4251.68,4526.51,970.933,-408.544,-84.0002,0
17235,753.52,760,761.84,758.99,758.59,150.39,-945.31,332.52,0.69,3.26,0.76,47.46,3448,0,82,-2.69143,6.53562,-50.5447,4302.45,4549.67,847.191,-407.986,-85.1273,0
17269,753.74,759.94,761.91,759.01,758.65,135.25,-957.52,317.87,1.63,-0.69,0.79,48.77,3455,0,82,-2.87678,6.60595,-51.9875,4531.95,4667.96,855.247,-408.211,-87.1765,0
17303,754,759.96,761.87,759.04,758.72,141.6,-956.54,322.27,-0.57,1.73,1.26,46.26,3462,0,82,-2.83824,7.00547,-52.9821,4818.68,4783.71,874.791,-407.71,-90.9473,0
17337,754.26,759.98,761.88,759.04,758.79,143.55,-957.03,324.22,3.21,1.06,-1.6,45.54,3468,0,82,-2.48617,7.10495,-55.1501,4988.25,4996.42,934.37,-407.403,-90.4495,0
17371,754.34,759.96,761.88,759.04,758.81,139.16,-953.61,326.17,0.09,1.81,2.05,45.23,3475,0,82,-2.4672,7.16387,-56.023,5273.15,5098.94,998.512,-406.986,-94.1288,0
17405,754.47,760.09,761.86,759,758.85,144.53,-950.2,319.82,2.84,3.56,-0.62,44.01,3482,0,82,-2.25359,7.17447,-58.767,5486.83,5291.59,937.464,-407.954,-93.3585,0
17439,754.51,760.03,761.88,758.94,758.84,133.79,-955.08,336.43,2.11,0.53,-0.21,45.57,3489,0,82,-2.37321,7.59996,-59.4296,5786.46,5438.78,991.117,-406.477,-97.3728,0
17475,754.62,760.07,761.83,758.99,758.88,131.84,-939.45,333.5,0.78,1.31,0.64,42.88,3496,0,82,-2.2996,7.66228,-60.8215,5879.79,5533.24,1019.8,-407.024,-96.6658,0
17510,754.65,760.07,761.89,758.97,758.9,139.65,-957.52,329.1,-1.49,2.34,1.49,44.53,3503,0,82,-1.98749,7.3692,-61.9857,5887.47,5567.84,1019.79,-408.175,-94.985,0
17543,754.66,760.05,761.85,759.05,758.91,134.77,-958.01,328.12,-0.24,0.44,-0.48,42.54,3510,0,82,-2.06883,7.7076,-61.8447,6005.48,5639.39,1143.43,-406.813,-97.1057,0
17577,754.71,760,761.91,759.04,758.91,136.23,-949.22,327.64,1.46,0.85,-2.17,44.41,3516,0,82,-2.29557,7.66122,-62.3391,6021.21,5604.94,1115.45,-408.089,-96.588,0
17610,754.67,759.96,761.9,758.95,758.87,135.25,-946.78,323.73,0.57,0.89,-0.66,45.78,3523,0,82,-2.22587,7.64206,-61.6043,5992.32,5650.82,1202.8,-406.272,-97.2704,0
17644,754.71,760.02,761.91,759.06,758.92,140.62,-951.17,326.66,-0.31,0.26,0,44.03,3530,0,82,-2.17785,7.65406,-62.4077,6002.08,5624.62,1116.56,-407.87,-96.1746,0
17677,754.74,759.95,761.93,759.04,758.91,142.58,-953.12,335.45,-0.64,1.13,0.09,45.28,3536,0,82,-2.03416,7.39141,-62.4648,6031.45,5636.95,1133.86,-407.757,-96.5567,0
17711,754.79,759.93,761.94,758.98,758.91,138.18,-952.15,330.08,2.31,1.3,1.68,46.42,3543,0,82,-1.99591,7.11623,-61.9908,6046.11,5654.83,1181.15,-406.78,-97.5335,0
17745,754.77,760,761.92,759,758.92,137.7,-949.22,324.22,-0.05,2.47,0.15,45.13,3550,0,82,-2.02567,7.11644,-62.5375,5970.58,5694.48,1144.69,-406.943,-95.4726,0
17779,754.81,760.08,761.91,759,758.95,131.84,-937.01,332.03,-0.32,-0.95,-0.29,44.11,3557,0,82,-2.03738,7.27434,-62.2355,6053.08,5692.59,1223.27,-406.529,-97.259,0
17813,754.84,760.06,761.92,759.08,758.98,144.53,-959.47,323.73,-1.63,1.87,-0.3,43.22,3564,0,82,-2.17019,7.0657,-62.5244,5986.61,5787.67,1201.09,-405.433,-95.7474,0
17848,754.88,760.17,761.95,759.1,759.02,132.81,-937.99,324.71,-1.08,1.37,-1.01,42.61,3571,0,82,-1.92483,7.26142,-62.5518,6062.42,5841.15,1194.16,-404.619,-96.917,0
17882,754.9,760.07,761.86,759.12,758.99,133.79,-958.98,321.78,1.55,-0.42,0.55,40.73,3577,0,82,-1.67633,7.39371,-63.4754,6084.61,5868.52,1166.5,-405.545,-95.8683,0
17916,754.95,760.02,762.02,759.08,759.02,137.21,-949.71,313.48,1,0.56,2.47,45.55,3584,0,82,-1.787,7.39117,-63.9272,6220.99,5868.95,1247.18,-406.185,-97.3213,0
17949,755.02,760.02,761.92,759.01,758.99,139.16,-946.29,325.68,-0.76,2.94,1.42,43.86,3591,0,82,-1.89046,7.57311,-64.373,6302,5970.77,1262.14,-405.243,-97.9118,0
17985,755.13,760.14,761.94,759.02,759.06,132.32,-946.78,330.08,0.59,1.63,1.97,43.02,3598,0,82,-1.97187,7.76477,-65.0995,6327.43,6051.4,1221.6,-405.042,-97.1958,0
18019,755.17,760.08,761.99,758.99,759.06,141.11,-948.24,328.12,1.02,2.48,-1.43,44.92,3605,0,82,-1.68298,7.83346,-64.8529,6344.81,5985.15,1254.99,-405.709,-97.8376,0
18053,755.15,760.1,761.98,759.04,759.07,131.84,-954.59,334.96,0.66,0.63,0.61,43.76,3612,0,82,-1.76923,8.29838,-66.9947,6402.6,6169.3,1435.94,-405.914,-95.5695,0
18088,755.14,759.96,761.92,759.07,759.02,136.72,-951.66,325.68,-0.44,-0.22,-0.11,43.21,3619,0,82,-1.40033,8.51066,-67.7196,6615.33,6329.23,1566.27,-404.538,-97.6857,0
18122,755.02,760.02,761.96,758.99,759,134.77,-956.54,334.47,-0.51,3.72,0.72,45.23,3625,0,82,-1.5607,8.23616,-67.9461,6521.27,6255.03,1439.79,-405.941,-95.9773,0
18156,755,760,761.9,759.07,758.99,136.23,-953.61,334.47,0.05,-0.15,0.51,42.68,3632,0,82,-1.16126,7.93348,-65.641,6381.92,6040.67,1325.26,-405.964,-97.2484,0
18190,755.03,760.05,761.93,759.01,759,125,-944.82,333.01,1.24,1.35,1.77,43.98,3639,0,82,-1.38334,7.58748,-63.7914,6213.47,5820.95,1284.3,-406.75,-97.4056,0
18224,755,760.06,761.9,759.03,758.99,138.18,-951.66,325.68,0.5,1.57,1.3,42.88,3646,0,82,-1.56061,7.43608,-63.599,6146.37,5729.43,1309.83,-407.912,-96.6459,0
18260,755.01,759.98,761.98,759.01,758.99,145.51,-959.47,318.36,-0.43,3.18,1.2,45.75,3653,0,82,-1.65052,7.34799,-62.2534,6102.16,5711.38,1323.72,-406.256,-98.0219,0
18294,755.03,760.05,761.97,759.1,759.04,148.93,-955.57,330.57,0.08,1.02,0.33,43.64,3660,0,82,-1.50945,7.9861,-63.1912,6232.86,5716.93,1313.11,-407.527,-98.6409,0
18328,755.04,760.01,761.91,759.07,759.01,131.84,-960.45,335.94,1.36,0.4,2.41,42.92,3667,0,82,-1.468,7.74666,-62.3395,6169.24,5749.59,1392.86,-405.77,-98.9617,0
18362,755.02,760.07,761.97,759.03,759.02,137.7,-942.87,323.24,-0.37,1.44,1.96,44.38,3673,0,82,-1.62079,7.89245,-63.2069,6112.82,5765.55,1399.27,-406.776,-96.7063,0
18396,754.97,760.04,761.96,759.07,759.01,140.62,-950.68,326.17,-0.76,-0.64,0.54,44.17,3680,0,82,-1.52826,8.13265,-63.5978,6081.77,5736.59,1406.83,-407.799,-95.6284,0
18430,754.83,760.06,761.91,759.11,758.98,138.18,-949.71,317.87,-1.05,3.44,-0.15,42.51,3687,0,82,-1.93358,7.75341,-61.7899,6062.17,5616.59,1223.57,-407.1,-98.1072,0
18465,754.86,760,761.89,758.98,758.93,130.86,-951.66,316.89,0.78,1.5,-1.33,44.21,3694,0,82,-1.79664,7.14012,-60.3631,5796.76,5549.94,1223.03,-406.058,-96.0314,0
18499,754.7,759.99,761.85,759.01,758.89,137.7,-946.78,324.71,-0.21,2.52,-0.73,43.34,3701,0,82,-1.67636,6.96745,-58.1923,5749.3,5301.22,1144.73,-406.899,-98.7993,0
18533,754.73,760,761.9,758.97,758.9,137.21,-950.2,322.75,-0.18,2.57,-1.5,45.13,3708,0,82,-1.85289,6.45199,-57.4447,5610.43,5261.38,1056.34,-406.41,-97.6665,0
18567,754.71,759.95,761.91,758.93,758.87,130.37,-949.71,320.31,-0.26,0.47,1.02,46.39,3714,0,82,-1.95138,6.03855,-55.5039,5524.12,5161.81,1039.66,-405,-99.5281,0
18601,754.65,759.93,761.82,758.99,758.85,137.21,-945.8,320.8,-0.07,2.65,-0.06,43.72,3721,0,82,-2.0232,5.82951,-54.8209,5371.96,5035.41,1003.96,-406.148,-97.9911,0
18635,754.65,759.95,761.89,758.99,758.87,139.16,-955.08,327.15,-0.92,0.81,0.09,45.27,3728,0,82,-2.0248,5.8107,-53.2033,5366.12,4925.1,1087.03,-405.415,-100.904,0
18671,754.61,759.95,761.81,759,758.84,126.95,-944.82,318.36,-0.34,2.45,-0.21,43.28,3735,0,82,-1.8417,6.21562,-54.0493,5450.59,4970.19,1074.12,-406.04,-100.844,0
18705,754.56,759.88,761.85,758.95,758.81,142.58,-961.43,315.43,-2.32,0.69,2.6,45.73,3742,0,82,-2.26336,6.0123,-54.281,5293.9,4951.83,890.593,-406.772,-97.526,0
18739,754.58,759.85,761.83,758.95,758.8,146.48,-954.1,316.41,-0.78,1.45,1.05,45.29,3749,0,82,-2.22956,5.85085,-53.0847,5300.54,4920.14,1016.95,-405.313,-99.8513,0
18773,754.57,759.89,761.79,759.03,758.82,130.37,-947.27,325.68,-1.12,2.82,1.33,43.06,3756,0,82,-2.24204,5.95672,-52.5251,5308.55,4763.17,917.631,-407.316,-101.068,0
18807,754.51,759.88,761.83,758.95,758.79,137.21,-965.33,310.06,-0.01,0.13,0.47,45.38,3762,0,82,-2.23591,5.79466,-50.986,5188.27,4680.48,953.286,-406.201,-101.758,0
18842,754.45,759.88,761.85,758.94,758.78,124.51,-946.78,316.41,0,2.01,-1.61,46.16,3769,0,82,-2.54527,5.33059,-50.8997,5075.81,4522.47,1012.15,-409.149,-99.7202,0
18876,754.43,759.85,761.77,759,758.76,139.65,-962.4,309.57,0.36,1.31,0.84,43.75,3776,0,82,-2.54304,5.41294,-50.6438,5152.84,4521.98,971.681,-408.711,-101.749,0
18911,754.3,759.92,761.71,759.02,758.74,146.48,-950.2,321.78,0.99,0.2,2.95,41.93,3783,0,82,-2.644,5.23095,-49.9041,5078.94,4401.13,921.159,-409.808,-101.771,0
18945,754.36,759.84,761.81,759.01,758.75,139.16,-956.54,318.85,-2.26,1.53,1.98,44.85,3790,0,82,-2.62767,5.16405,-49.2194,4925.28,4302.96,895.653,-410.576,-100.069,0
18980,754.33,759.87,761.76,758.99,758.74,126.95,-949.22,328.61,-1.98,0.68,2.22,43.74,3797,0,82,-2.96572,5.07412,-47.1968,4817.41,4138.07,886.878,-410.323,-102.069,0
19014,754.24,759.85,761.77,758.91,758.69,141.6,-958.98,313.96,0.56,1.15,0.62,45.59,3804,0,82,-2.94897,5.06218,-47.118,4776.04,4180.39,839.385,-409.278,-101.363,0
19048,754.23,759.86,761.76,758.9,758.69,131.35,-953.12,312.5,-0.85,0.98,1.31,45.6,3811,0,82,-2.70892,5.16847,-45.8677,4680.53,4085.81,784.429,-408.917,-102.057,0
19084,754.31,759.85,761.77,759,758.73,134.77,-957.03,324.22,0.52,0.13,1.85,43.96,3818,0,82,-3.00026,5.24869,-46.305,4616.75,4041.34,745.691,-410.723,-99.7025,0
19118,754.39,759.84,761.78,759.01,758.75,136.23,-959.47,321.78,0.05,3.57,-2.37,44.09,3825,0,82,-3.05813,5.0966,-45.4802,4618.8,4060.22,681.331,-408.725,-101.553,0
19152,754.42,759.93,761.9,759.02,758.82,145.51,-954.1,320.8,1.43,2.36,0.98,46.01,3831,0,82,-3.05117,5.30494,-46.6665,4567.75,4204.41,755.265,-407.906,-97.8821,0
19186,754.51,759.86,761.88,758.96,758.8,142.58,-950.2,318.36,0.44,2.5,1.95,46.78,3838,0,82,-2.83198,5.87846,-49.9188,4847.67,4436.36,819.231,-409.129,-97.1123,0
19219,754.68,759.93,761.95,759.03,758.9,147.95,-952.15,317.87,3.1,3.36,0.62,46.36,3845,0,82,-2.79613,6.66051,-52.0794,4987.08,4702.85,876.437,-407.698,-95.7583,0
19253,754.82,759.95,761.96,759.03,758.94,132.32,-938.96,324.71,2.98,1.44,-0.54,45.92,3852,0,82,-2.85682,7.51403,-54.7367,5082.49,4978.42,1021.74,-407.042,-92.8575,0
19286,754.9,760.03,762.04,759.14,759.03,136.72,-959.47,327.15,0.75,1.9,-2.47,45.34,3858,0,82,-2.53652,8.30122,-56.8995,5326.02,5292.01,1151.02,-404.995,-93.6031,0
19320,755.03,760.07,762.07,759.13,759.07,129.39,-950.2,331.05,3.17,1.37,0.31,45.37,3865,0,82,-2.37662,9.53456,-61.221,5561.55,5684.79,1258.47,-405.146,-90.8458,0
19353,755.16,760.13,762.13,759.2,759.16,149.41,-940.92,337.4,0.75,2.91,2.48,44.99,3872,0,82,-2.06452,10.2024,-63.1667,5832.07,5952.57,1368.98,-403.763,-92.3277,0
19388,755.24,760.12,762.13,759.19,759.17,138.67,-945.8,331.54,-0.57,2.34,-0.77,44.87,3879,0,82,-1.93353,11.0819,-67.6123,6225.44,6339.94,1446.07,-404.231,-92.0835,0
19421,755.27,760.12,762.27,759.18,759.21,136.23,-948.73,339.36,1.52,0.21,-1.39,48.46,3885,0,82,-1.69371,11.1572,-69.9164,6327.4,6591.58,1562.37,-403.719,-90.4998,0
19455,755.3,760.17,762.28,759.21,759.24,140.62,-960.94,334.96,0.94,1.05,2.55,47.79,3892,0,82,-1.4522,11.4426,-69.885,6272.76,6576.18,1532.64,-403.9,-89.7581,0
19491,755.39,760.15,762.24,759.3,759.27,138.18,-948.73,324.71,1.6,1.57,1.95,45.28,3899,0,82,-1.70275,11.5603,-71.5111,6368.6,6674.88,1543.92,-404.659,-89.0601,0
19524,755.43,760.14,762.26,759.23,759.26,135.74,-954.59,332.03,2.32,2.77,1.47,46.65,3906,0,82,-1.73518,12.1979,-70.9666,6406.29,6742.64,1496.21,-402.986,-90.2764,0
19558,755.46,760.22,762.25,759.26,759.3,152.34,-964.84,333.01,0.4,3.33,-1.75,45.28,3913,0,82,-1.93784,11.7206,-71.7479,6464.19,6753.63,1591.3,-403.867,-90.0984,0
19592,755.43,760.21,762.2,759.2,759.26,148.93,-951.17,320.31,-0.87,-0.83,1.02,45.18,3919,0,82,-1.79446,11.8142,-72.6573,6489.59,6737.77,1546,-405.267,-89.3193,0
19626,755.42,760.18,762.28,759.23,759.28,131.35,-958.98,323.73,-1.2,2.4,0.76,46.81,3926,0,82,-1.77446,11.9244,-72.0449,6465.2,6746.48,1599.2,-404.357,-89.7392,0
19660,755.48,760.2,762.28,759.22,759.29,140.14,-965.82,333.5,1.61,3.26,-1.02,46.69,3933,0,82,-1.78847,11.7477,-72.8037,6410.96,6762.21,1690.21,-405.117,-88.0575,0
19694,755.48,760.2,762.27,759.16,759.28,142.09,-928.22,337.89,2.65,2.87,-1.38,47.43,3940,0,82,-1.72981,12.5061,-72.2918,6633.06,6802.85,1692.89,-403.897,-91.7539,0
19729,755.55,760.21,762.21,759.17,759.29,132.32,-948.24,334.96,1.81,2.24,0.02,45.34,3947,0,82,-1.84511,12.3942,-73.2617,6637.9,6842.77,1688.85,-404.597,-90.6027,0
19763,755.44,760.18,762.34,759.21,759.29,146.97,-952.15,325.68,1.81,1.31,-2.28,48.64,3954,0,82,-1.76756,12.4326,-72.0694,6668.77,6824.45,1595.8,-403.307,-92.5322,0
19797,755.46,760.22,762.25,759.24,759.29,138.67,-939.94,319.82,0.28,1.71,0.4,45.63,3960,0,82,-1.54158,12.477,-72.6884,6648.34,6848.93,1645.42,-403.777,-91.4635,0
19831,755.52,760.21,762.27,759.16,759.29,141.6,-946.78,320.8,-0.19,3.15,2.07,47.24,3967,0,82,-1.49294,12.0482,-73.068,6393.24,6807.82,1582.01,-404.829,-87.4969,0
19867,755.52,760.17,762.25,759.16,759.28,141.11,-937.99,331.05,0.64,1.18,0.63,47.13,3974,0,82,-1.2818,12.0166,-71.0966,6528.55,6701.78,1555.28,-403.737,-91.8303,0
19903,755.5,760.19,762.22,759.14,759.26,143.55,-958.5,313.48,-0.65,-2.18,0.55,46.61,3982,0,82,-1.60604,11.7294,-71.4023,6332.31,6690.89,1525.71,-404.292,-88.6848,0
19937,755.54,760.21,762.26,759.18,759.29,152.34,-948.24,319.34,-0.76,1.63,-1.31,46.59,3988,0,82,-1.64527,12.1374,-70.7026,6495.25,6631.5,1611.94,-404.206,-91.8672,0
19971,755.52,760.22,762.25,759.14,759.28,147.46,-954.1,326.17,2.46,0.34,3.47,46.88,3995,0,82,-1.84192,11.3946,-70.8962,6349.67,6612.06,1629,-404.736,-89.5617,0
20005,755.52,760.15,762.25,759.25,759.29,132.32,-955.57,331.05,0.21,2.04,-0.46,45.94,4002,0,82,-1.69288,11.7618,-70.8553,6558.41,6649.56,1600.04,-404.153,-92.5606,0
20039,755.58,760.19,762.24,759.17,759.3,130.86,-958.5,323.73,1.82,2.05,0.93,46.18,4009,0,82,-1.73898,11.8648,-71.9634,6536.18,6681.45,1626.42,-405.155,-90.8264,0
20073,755.69,760.24,762.28,759.17,759.35,142.58,-956.05,325.2,1.23,-0.37,-0.23,46.31,4016,0,82,-1.66702,12.0102,-73.1367,6566.11,6847.41,1585.06,-404.375,-89.7786,0
20107,755.75,760.15,762.32,759.2,759.36,144.04,-956.54,327.15,1.23,-0.5,1.18,47.53,4022,0,82,-1.07159,12.4044,-73.3588,6695.05,6939.29,1642.76,-403.406,-91.2622,0
20141,755.83,760.27,762.36,759.21,759.42,136.72,-947.27,342.77,2.91,1.24,0.63,47.1,4029,0,82,-1.06759,12.4196,-75.1753,6700.44,7010.15,1668.28,-404.747,-89.1311,0
20176,755.84,760.29,762.4,759.25,759.44,143.07,-941.41,340.82,1.4,2.34,-2.54,47.24,4036,0,82,-1.05801,12.9435,-75.878,6843.27,7193.31,1721.89,-403.199,-90.1882,0
20210,755.76,760.3,762.43,759.24,759.43,152.34,-947.27,326.17,3.42,3.44,3.02,48.56,4043,0,82,-0.902511,13.4028,-78.026,6963.73,7305.77,1815.75,-404.365,-89.2525,0
20244,755.54,760.38,762.54,759.22,759.42,136.23,-930.66,333.98,5.34,0.37,2.29,51.69,4050,0,82,-0.984901,13.5202,-77.4001,7020.83,7397.07,1737.55,-402.427,-90.7182,0
20278,755.21,760.62,762.84,759.44,759.53,134.28,-954.1,331.54,4.88,3.18,0.64,54.88,4057,0,82,-0.860418,14.0374,-79.1182,6939.45,7431.17,1815.8,-404.074,-87.7095,0
20314,754.89,760.76,763.14,759.46,759.56,129.39,-953.12,327.15,5.51,3.59,0.97,62.21,4064,0,82,-0.893549,14.9275,-79.3545,6308.47,7403.81,1906.5,-404.698,-79.4967,0
20348,754.72,760.81,763.41,759.51,759.61,135.74,-949.22,344.24,4.41,-0.27,1.35,68.45,4071,0,82,-1.151,16.9162,-79.9195,5710.01,7473.58,2130.75,-404.486,-71.447,0
20382,754.69,760.93,763.61,759.64,759.72,140.14,-945.31,351.07,0.42,1.02,2.79,70.5,4077,0,82,-1.25457,17.9889,-81.3992,5268.58,7507.42,2361.16,-405.77,-64.7252,0
20416,754.82,760.86,763.58,759.62,759.72,134.77,-950.68,353.52,-0.95,3.56,-0.27,70.24,4084,0,82,-1.18146,18.7614,-80.247,4572.35,7466.64,2336.15,-404.954,-56.9782,0
20450,755.04,760.72,763.42,759.6,759.7,140.62,-951.66,340.82,-0.89,1.01,0.1,66.8,4091,0,82,-1.12897,19.1241,-81.0891,4373.25,7436.12,2482.64,-406.297,-53.9314,0
20484,755.37,760.69,763.32,759.43,759.7,140.62,-947.27,334.96,-1.24,0.44,0.24,65.99,4098,0,82,-0.999525,18.5375,-80.0759,4731.98,7527.65,2394.52,-403.994,-59.0936,0
20518,755.63,760.57,763.19,759.36,759.69,138.67,-951.17,330.08,-2.24,3.4,-1.21,63.92,4105,0,82,-0.807667,17.8835,-81.5224,5391.14,7605.16,2354.74,-404.711,-66.1302,0
20552,755.81,760.49,763.12,759.36,759.7,138.67,-955.08,333.01,1.07,-0.73,-0.6,62.06,4111,0,82,-0.810181,16.4193,-81.5292,5946.13,7721.98,2128.13,-403.286,-72.9333,0
20587,755.89,760.47,763.02,759.31,759.67,148.44,-948.24,340.82,-0.17,2.18,-1.73,60.33,4118,0,82,-0.727925,15.475,-81.0532,6657.94,7757.73,1991.42,-402.288,-82.1429,0
20621,756.03,760.46,762.97,759.34,759.7,128.91,-948.24,353.03,-2.46,1.56,0.44,58.2,4125,0,82,-0.553051,15.1173,-82.135,6954.02,7747.72,2022.74,-403.671,-84.665,0
20655,756.11,760.47,762.94,759.3,759.71,143.07,-949.71,345.7,-0.95,2.04,1.17,57.78,4132,0,82,-0.502023,14.9058,-81.2553,7106.44,7799.18,1946.37,-402.016,-87.4575,0
20689,756.12,760.48,762.97,759.38,759.74,133.79,-957.03,333.01,-1.39,1.59,-1.69,57.06,4139,0,82,-0.385383,14.4474,-82.2389,7128.71,7731.91,1985.82,-403.981,-86.6815,0
20725,756.15,760.5,762.92,759.2,759.69,127.93,-948.24,329.59,-0.93,1.15,-0.73,58.19,4146,0,82,-0.440372,14.2991,-81.4237,7253.24,7778.23,1842.16,-402.472,-89.08,0
20759,756.17,760.47,762.99,759.32,759.74,148.44,-947.27,335.94,-0.56,2.77,-0.58,58.4,4153,0,82,-0.715993,14.1438,-81.8999,7231.7,7788.47,1903.31,-402.902,-88.2988,0
20795,756.17,760.47,762.91,759.34,759.72,126.46,-946.78,346.19,-0.89,0.66,-0.17,56.11,4160,0,82,-0.479908,14.2672,-82.2291,7411.42,7790.21,1965.89,-403.258,-90.1354,0
20828,756.2,760.54,762.94,759.32,759.75,139.16,-951.66,341.8,-0.13,1.58,-2.4,56.36,4167,0,82,-0.539339,14.1517,-81.9199,7455.95,7765.08,1906.49,-403.211,-91.0185,0
20862,756.2,760.49,762.91,759.3,759.72,132.81,-948.24,338.38,-1.33,0.81,-2.01,56.41,4173,0,82,-0.33148,14.0823,-82.2764,7332.2,7760.99,1989.88,-403.672,-89.1152,0
20895,756.25,760.45,762.89,759.37,759.74,149.41,-958.5,335.45,0.27,1.51,0.08,55.24,4180,0,82,-0.453572,13.9996,-81.4665,7412.52,7751.84,2021.44,-402.846,-90.9889,0
20929,756.17,760.52,762.94,759.32,759.74,141.11,-946.78,330.08,0.76,3.67,0.37,56.78,4187,0,82,-0.136045,14.0624,-81.7521,7342.74,7777.18,1990.38,-402.869,-89.8171,0
20962,756.18,760.5,762.91,759.35,759.74,133.3,-938.96,335.94,-0.22,-0.56,-2.86,55.72,4193,0,82,-0.179861,14.4703,-81.2971,7428.7,7727.84,1887.66,-402.937,-91.3787,0
20996,756.17,760.48,762.93,759.36,759.73,150.39,-948.24,347.17,-0.29,1.96,-0.37,56.19,4200,0,82,0.0681074,14.3386,-81.5589,7247.26,7756.14,2017.42,-402.902,-88.8598,0
21030,756.19,760.45,762.97,759.34,759.74,145.51,-943.85,346.19,-0.53,1.45,1.4,57.81,4207,0,82,-0.336424,14.4165,-82.1411,7174.28,7711.33,2019.2,-404.121,-87.3406,0
21064,756.16,760.46,762.86,759.32,759.7,132.81,-938.96,328.12,0.2,-1.06,-0.46,55.4,4214,0,82,-0.143456,14.545,-81.4195,7183.42,7710.51,2044.11,-403.299,-88.2277,0
21100,756.17,760.52,762.94,759.31,759.74,154.79,-943.85,345.7,1.66,1.05,-0.18,56.88,4221,0,82,-0.100903,14.4954,-81.8783,7246.53,7695.48,2008.19,-404.013,-88.5034,0
21133,756.17,760.52,762.88,759.39,759.74,133.3,-939.45,331.54,-0.33,1.51,-0.46,54.38,4228,0,82,-0.31122,14.4464,-80.9684,7174.78,7745.27,2001.24,-402.342,-88.612,0
21167,756.16,760.52,762.92,759.24,759.71,138.67,-953.61,345.21,1.44,3.38,1.05,57.38,4234,0,82,-0.0249151,14.1188,-80.6395,7134.13,7706.06,2018.21,-402.436,-88.4671,0
21201,756.19,760.45,762.88,759.25,759.69,127.44,-944.34,334.96,1.06,3.42,2.72,56.74,4241,0,82,-0.377881,13.8262,-79.0772,6995.46,7622.7,2067.22,-401.604,-88.4637,0
21235,756.15,760.43,762.92,759.32,759.71,134.77,-955.57,335.94,-0.67,1.75,0.08,57.1,4248,0,82,-0.00586246,13.7622,-79.335,7068.3,7579.32,1962,-402.464,-89.0935,0
21269,756.1,760.36,762.88,759.29,759.66,120.12,-948.24,344.24,1.47,-0.85,-1.58,57.32,4255,0,82,-0.0215091,13.4628,-79.5507,7084.05,7489.36,1978.08,-403.853,-89.0501,0
21303,756.17,760.4,762.89,759.27,759.68,133.3,-941.89,337.4,-1.08,1.54,-1.07,57.31,4262,0,82,-0.0357677,13.6803,-78.7397,7170.69,7519.67,1936.77,-402.5,-91.0685,0
21338,756.11,760.33,762.87,759.25,759.64,136.23,-950.2,349.12,-1.22,1.89,-1.21,57.69,4269,0,82,0.0516305,13.1432,-78.159,7128.93,7486.83,1818.84,-402.207,-91.2116,0
21372,756.11,760.41,762.86,759.33,759.68,139.16,-957.03,347.66,0.01,-0.51,-1.5,55.73,4275,0,82,-0.00859309,13.2461,-77.4586,7109.94,7487.95,1909.32,-401.329,-91.7908,0
21455,756.21,760.39,762.87,759.29,759.69,145.02,-941.89,335.94,0.88,2.7,0.43,56.48,4292,0,82,-0.111761,13.2516,-77.4372,7075.16,7374.18,1876.72,-402.772,-91.3699,0
21491,756.16,760.34,762.86,759.33,759.67,132.32,-958.5,329.1,0.43,1.52,0.18,55.95,4299,0,82,-0.371357,13.0826,-78.1115,7042.91,7414.03,1945.04,-403.084,-90.1647,0
21563,756.21,760.4,762.82,759.34,759.69,144.53,-957.03,332.52,0.45,0.05,1.65,54.26,4314,0,82,-0.409332,12.8963,-77.6176,7091.06,7385.78,1820.01,-402.844,-91.3588,0
21615,756.16,760.34,762.89,759.3,759.67,131.84,-942.38,330.57,0.53,3.08,1.4,57.26,4324,0,82,-0.152109,12.8843,-77.2377,7074.85,7384.39,1794.4,-402.394,-91.5973,0
21649,756.18,760.38,762.88,759.34,759.69,131.84,-945.31,343.26,0.08,0.76,0.24,56.04,4331,0,82,-0.4004,12.6279,-77.4235,7025.21,7346.4,1925.35,-403.114,-90.7353,0
21683,756.13,760.42,762.79,759.28,759.65,137.7,-945.8,328.12,0.06,0.67,1.73,54.54,4338,0,82,-0.455359,12.765,-76.7133,7084.22,7381.36,1915.42,-401.78,-92.3463,0
21717,756.18,760.37,762.85,759.34,759.68,136.23,-951.17,331.54,0.11,1.67,0.34,55.28,4344,0,82,-0.0654893,12.2687,-77.1498,7017.22,7388.06,1828.23,-402.237,-90.9544,0
21752,756.21,760.37,762.86,759.31,759.69,140.14,-946.78,336.91,0.79,2.27,-2.05,55.96,4351,0,82,-0.277555,12.705,-77.5377,6997.96,7420.9,1946.92,-402.29,-90.2547,0
21786,756.24,760.41,762.78,759.31,759.68,143.07,-953.12,341.8,-1.02,0.79,0.98,53.53,4358,0,82,-0.0629435,12.3831,-77.3608,6920,7450.81,1902.49,-401.686,-89.4497,0
21820,756.23,760.41,762.81,759.32,759.69,139.65,-951.17,335.94,0.46,-0.02,-0.64,54.36,4365,0,82,-0.00243492,12.7029,-78.0136,7004.83,7407.86,1853.93,-403.044,-89.7897,0
21854,756.18,760.41,762.87,759.33,759.7,141.6,-949.22,325.2,1.32,0.18,0.89,55.72,4372,0,82,-0.00235429,12.6712,-77.4215,7037.45,7400.24,1886.8,-402.417,-90.8982,0
21888,756.19,760.49,762.88,759.28,759.71,131.35,-952.15,347.66,-1.96,1.03,0.54,55.89,4379,0,82,0.0893046,12.5688,-78.3744,6899.75,7451.3,1860.07,-402.926,-88.037,0
21922,756.28,760.48,762.86,759.31,759.73,129.88,-946.78,333.01,1.26,2.19,0.53,54.75,4385,0,82,0.0107665,12.4867,-77.3908,6975.84,7437.73,1994.23,-401.893,-90.1383,0
21956,756.18,760.38,762.83,759.37,759.69,132.81,-958.5,332.03,1.59,1.72,1.95,54.52,4392,0,82,-0.198112,12.4501,-77.6089,6936.22,7418.04,2013.55,-402.418,-89.3739,0
21990,756.27,760.41,762.85,759.3,759.71,139.65,-946.29,331.05,1.21,0.89,1.82,55.43,4399,0,82,-0.614853,12.5946,-78.7029,6940.11,7428.15,1921.53,-403.618,-88.182,0
22026,756.17,760.4,762.93,759.3,759.7,144.53,-944.34,328.61,-1.55,5.11,1.84,57.84,4406,0,82,-0.369008,12.9569,-77.715,6990.5,7433.8,1946.71,-402.345,-89.95,0
22060,756.18,760.46,762.85,759.32,759.7,146.97,-946.78,342.29,-0.15,-0.56,-0.5,54.91,4413,0,82,-0.427668,12.8658,-77.9962,6943.72,7397.1,1849.48,-403.161,-89.0267,0
22095,756.27,760.43,762.92,759.3,759.73,126.95,-954.1,337.89,-1.59,3.25,0.66,56.94,4420,0,82,-0.451744,12.5152,-77.4849,6963.54,7451.42,1829.27,-401.834,-89.87,0
22129,756.27,760.36,762.94,759.25,759.71,134.77,-948.73,335.45,-1.5,1.94,-0.92,58.7,4427,0,82,-0.297374,12.4773,-78.0709,6919.17,7457.79,1809.77,-402.474,-88.6269,0
22163,756.27,760.41,762.9,759.31,759.72,141.11,-944.34,329.59,-1.27,-0.08,1.19,56.62,4434,0,82,-0.43824,12.6927,-76.5878,7041.69,7425.53,1838.72,-401.044,-91.9408,0
22197,756.25,760.4,762.89,759.26,759.7,137.7,-944.82,338.87,1.21,0.26,-0.28,57.19,4440,0,82,-0.223404,12.6836,-78.0045,7002.3,7435.85,1856,-402.673,-89.7698,0
22231,756.24,760.38,762.91,759.33,759.71,134.77,-958.5,328.12,0.26,0,2.26,56.72,4447,0,82,-0.20106,13.0268,-78.4445,7062.54,7446.25,1816.59,-403.076,-90.0335,0
22265,756.19,760.48,762.91,759.33,759.73,138.18,-940.43,344.24,1.93,1.5,-0.54,56.2,4454,0,82,-0.326686,12.8193,-77.9015,7035.29,7490.8,1839.53,-401.84,-90.3061,0
22301,756.2,760.33,762.91,759.28,759.68,153.32,-952.15,331.54,0.44,0.58,-1.1,58.04,4461,0,82,-0.301076,12.9248,-78.348,6861.85,7460.6,1787.98,-402.776,-87.5818,0
22336,756.23,760.37,762.9,759.3,759.7,134.28,-956.05,334.47,1.72,0.95,2.67,57.08,4468,0,82,-0.213313,13.1427,-77.961,6888.08,7469.92,1862.37,-402.183,-88.3526,0
22370,756.21,760.37,762.9,759.26,759.68,131.84,-953.12,336.43,2.46,1.37,1.4,57.77,4475,0,82,-0.413433,13.1007,-78.2445,6993.98,7440.67,1912,-402.905,-89.386,0
22404,756.28,760.49,762.93,759.31,759.75,148.93,-955.57,342.29,0.18,-0.92,-1.66,56.54,4482,0,82,-0.441076,13.0802,-77.3661,7065.72,7437.55,1836.86,-401.866,-91.3293,0
22440,756.3,760.41,762.87,759.27,759.71,138.67,-947.27,338.87,0.85,0.56,-0.4,56.43,4489,0,82,-0.583737,12.9589,-77.8681,6948.92,7479.82,1867.67,-401.941,-89.2401,0
22474,756.25,760.41,762.94,759.3,759.73,138.18,-958.5,339.36,-0.97,-0.05,-0.82,57.61,4496,0,82,-0.326086,12.7814,-77.8272,6926.37,7414.12,1845.36,-402.731,-89.0043,0
22509,756.31,760.43,762.86,759.27,759.72,147.46,-957.52,338.87,1.16,0.16,1.37,55.81,4503,0,82,-0.456979,13.2607,-77.3854,7048.87,7404.64,1920.75,-402.313,-91.0931,0
22542,756.19,760.41,762.87,759.36,759.71,142.09,-950.68,331.54,-1.34,1.15,0.02,55.24,4509,0,82,-0.3944,13.4223,-78.4096,6969.04,7398.62,1940.69,-403.64,-88.8829,0
22576,756.19,760.43,762.89,759.33,759.71,134.28,-951.66,345.7,0.27,3.44,2.3,55.87,4516,0,82,-0.43028,13.4711,-77.6593,7006.99,7418.37,1842.51,-402.475,-90.2274,0
22609,756.26,760.47,762.9,759.31,759.74,146,-948.73,343.75,0.98,1.05,-2.47,56.15,4523,0,82,-0.488869,13.0873,-78.2436,6923.36,7430.87,1921.32,-403.029,-88.4845,0
22643,756.22,760.4,762.9,759.24,759.69,131.84,-947.27,341.31,-1.41,1.93,-0.15,57.64,4530,0,82,-0.361547,12.8722,-76.9924,6919.84,7405.44,1956.45,-401.816,-89.8768,0
22676,756.24,760.48,762.91,759.32,759.74,139.65,-942.38,334.47,-0.19,-0.47,1.73,56.06,4536,0,82,-0.339191,12.7741,-77.7099,6965.06,7398.91,1899.5,-402.788,-89.6292,0
22710,756.2,760.43,762.87,759.26,759.69,139.65,-952.64,337.89,0.95,1.76,-0.09,56.61,4543,0,82,-0.357355,12.6163,-78.4244,6931.9,7422.84,1864.32,-403.351,-88.3902,0
22745,756.27,760.44,762.91,759.4,759.76,143.55,-955.08,339.84,-1.11,-0.05,-1.49,55.25,4550,0,82,-0.218707,12.728,-77.8127,6938.51,7402.5,1967.38,-402.868,-89.1695,0
22778,756.26,760.41,762.85,759.25,759.69,132.32,-944.82,340.33,0.78,0.56,0.18,56.19,4557,0,82,0.0166054,12.881,-78.3727,7019.27,7374.95,2000.11,-403.898,-89.5632,0
22812,756.25,760.44,762.9,759.33,759.73,143.07,-947.27,334.47,-0.32,2.29,3.3,55.95,4563,0,82,-0.325579,12.7228,-77.194,6944.36,7363.29,1890.97,-402.613,-89.9581,0
22848,756.21,760.43,762.92,759.34,759.72,143.55,-947.27,329.1,-1.05,1.37,0.9,56.49,4571,0,82,-0.162017,12.8132,-78.2519,7076.99,7319.64,1953.83,-404.46,-90.4385,0
22881,756.25,760.45,762.91,759.29,759.73,142.58,-947.27,348.14,0.04,-0.96,2.89,56.83,4577,0,82,-0.20979,12.5789,-77.3573,6961.55,7372.83,1990.69,-402.691,-89.993,0
22915,756.31,760.43,762.84,759.34,759.73,141.11,-961.91,334.47,1.04,1.82,-0.73,54.3,4584,0,82,-0.337494,12.6641,-77.464,7005.03,7382.53,1984.64,-402.697,-90.4301,0
22949,756.25,760.49,762.87,759.32,759.74,139.65,-943.36,338.87,-1.13,2.07,2.73,55.02,4591,0,82,-0.43405,12.6426,-78.3605,6953.07,7409.71,1899.99,-403.44,-88.7313,0
22983,756.26,760.44,762.91,759.27,759.72,128.91,-942.38,348.63,0.4,2.73,-0.87,57.13,4598,0,82,-0.45137,12.937,-77.5865,7003.29,7439.51,2069.94,-402.113,-90.2635,0
23017,756.21,760.39,762.88,759.27,759.68,141.6,-946.78,342.77,-1.67,1.23,-0.04,56.91,4604,0,82,-0.292775,12.7271,-77.4842,6965.58,7380.56,2093.51,-402.747,-89.8993,0
23051,756.32,760.48,762.91,759.31,759.75,147.46,-952.64,341.8,-0.26,-1.04,0.58,55.93,4611,0,82,-0.245537,12.3647,-77.3821,6926.55,7426.89,2060.97,-402.023,-89.5095,0
23086,756.29,760.47,762.89,759.26,759.73,137.21,-946.78,327.64,0.68,2.3,1.27,56.47,4618,0,82,-0.336311,12.7692,-78.2193,7056.05,7366.21,2006.63,-403.826,-90.2085,0
23120,756.34,760.48,762.86,759.27,759.74,136.72,-939.94,330.57,-0.2,1.6,0.73,55.28,4625,0,82,-0.526979,12.6332,-77.5387,6955.03,7429.06,1970.12,-402.185,-89.7106,0
23154,756.29,760.45,762.87,759.35,759.74,139.16,-946.78,321.78,0.01,1.29,0.58,54.72,4632,0,82,-0.505918,12.7941,-78.1456,7010.27,7453.22,1997.6,-402.623,-89.7061,0
23188,756.26,760.49,762.88,759.38,759.75,130.37,-947.27,349.12,-1.37,-0.42,-2.79,54.32,4639,0,82,-0.356965,12.7325,-78.2771,6956.84,7390.06,1960.04,-403.591,-88.8751,0
23224,756.3,760.44,762.84,759.37,759.74,132.81,-947.75,333.5,0.48,1.21,-1.56,53.64,4646,0,82,-0.419892,12.7254,-78.1449,6983.47,7464.82,1927.57,-402.474,-89.3646,0
23260,756.27,760.58,762.87,759.32,759.76,144.04,-957.03,346.68,1.51,0.44,0.93,54.09,4653,0,82,-0.238269,12.9808,-78.8416,7037.89,7441.64,2007.63,-403.613,-89.2672,0
23294,756.26,760.46,762.94,759.29,759.74,133.79,-944.34,325.68,0.02,-0.73,1.74,57.33,4660,0,82,-0.418945,12.9097,-77.9075,7121.83,7414.61,1980.54,-402.828,-91.4132,0
23328,756.25,760.48,762.89,759.32,759.74,135.74,-944.82,325.68,-1.58,2.5,0.5,55.63,4667,0,82,-0.288272,13.1523,-78.3822,7104.3,7449.3,2043.28,-402.962,-90.637,0
23362,756.34,760.53,762.84,759.36,759.77,143.55,-953.12,338.38,0.07,0.85,1.63,53.22,4673,0,82,-0.13489,12.8152,-77.3673,7056.52,7435.21,2012.8,-401.898,-91.2055,0
23396,756.29,760.45,762.87,759.36,759.74,140.62,-961.91,334.96,0.95,2.47,0.07,54.72,4680,0,82,-0.240572,12.5811,-77.6979,7087.9,7390.59,1939.8,-402.88,-91.2242,0
23431,756.29,760.47,762.87,759.37,759.75,129.88,-959.47,330.57,1.84,1.37,0.17,54.13,4687,0,82,-0.351946,12.5565,-78.1136,7070.58,7419.53,1905.66,-403.017,-90.5167,0
23465,756.33,760.45,762.96,759.4,759.79,130.86,-964.36,334.96,0.44,3.11,3.62,55.96,4694,0,82,-0.322521,12.9762,-77.9204,7132.29,7389.27,1966.6,-403.169,-91.5343,0
23499,756.32,760.49,762.93,759.35,759.78,145.02,-944.82,337.89,1.48,2.18,-1.97,55.68,4701,0,82,-0.517526,12.9366,-78.3643,7075.65,7368.99,1872.46,-403.965,-90.2909,0
23533,756.32,760.43,762.95,759.32,759.75,139.65,-948.24,324.71,0.3,-0.14,2.07,57.16,4708,0,82,-0.292623,12.6086,-77.4923,7038.89,7429.05,1892.43,-402.131,-90.8307,0
23567,756.37,760.51,762.91,759.34,759.78,133.79,-950.2,333.01,0.15,0.93,1.54,55.29,4714,0,82,-0.26725,12.6367,-77.9551,6984.78,7403.95,1974.75,-403.022,-89.5993,0
23601,756.32,760.48,762.88,759.32,759.75,138.18,-948.73,328.12,-0.98,-0.81,-0.38,55.09,4721,0,82,-0.311222,12.9964,-77.7416,7050.37,7436.76,1963.17,-402.337,-90.6964,0
23635,756.32,760.5,762.91,759.36,759.77,145.02,-960.94,342.29,-1.32,-0.24,3.8,55.17,4728,0,82,-0.497228,13.2044,-78.0317,7126.77,7400.76,1997.64,-403.156,-91.3317,0
23671,756.31,760.49,762.95,759.37,759.78,133.79,-942.87,328.61,-0.02,2.24,-0.69,56.05,4735,0,82,-0.277678,12.8801,-78.3565,7016.58,7339.76,1953.35,-404.328,-89.5463,0
23705,756.27,760.48,762.9,759.32,759.74,138.18,-957.52,354.49,0.18,2.01,-1.66,55.72,4742,0,82,-0.319681,12.788,-77.6104,7114.35,7345.11,1921.9,-403.359,-91.6675,0
23739,756.31,760.45,762.86,759.3,759.73,143.07,-945.8,343.26,2.08,2.47,1.84,55.21,4749,0,82,-0.146742,12.6006,-77.6652,7070.83,7345.98,1981.03,-403.414,-91.0435,0
23774,756.3,760.52,762.99,759.34,759.79,134.28,-961.43,330.08,-0.52,-0.4,1.01,57.33,4756,0,82,-0.0365757,12.7826,-77.5406,7053.52,7303.02,1920.81,-403.817,-90.9656,0
23808,756.31,760.52,762.95,759.3,759.77,139.65,-945.8,343.75,-0.23,0.1,-0.42,56.83,4763,0,82,-0.0181113,12.5491,-77.5134,6891.96,7312.92,1866.28,-403.656,-88.9135,0
23842,756.33,760.52,762.95,759.28,759.77,138.67,-947.75,323.24,0.44,-1.65,3.5,57.14,4769,0,82,0.168367,12.6363,-76.9298,6952.94,7362.14,1880.83,-402.297,-90.3867,0
23876,756.37,760.47,762.95,759.37,759.79,133.3,-949.71,339.36,2.2,1.18,-0.87,56,4776,0,82,0.0154481,12.8114,-77.3143,6966.69,7337.13,1791.74,-403.1,-90.1092,0
23910,756.33,760.51,762.93,759.35,759.78,150.88,-955.57,340.82,0.65,2.73,1.37,55.57,4783,0,82,0.110949,12.7439,-77.7925,6957.94,7287.79,1800.97,-404.318,-89.4412,0
23944,756.3,760.52,762.86,759.27,759.74,135.74,-955.57,337.89,-0.21,2.53,-0.53,55.13,4790,0,82,-0.241861,12.6302,-77.4617,6990.91,7313.02,1868.03,-403.592,-90.2502,0
23978,756.34,760.45,762.89,759.32,759.75,144.53,-949.71,330.08,-0.92,0.27,0.5,55.44,4797,0,82,0.119987,12.6638,-77.8924,7149.84,7250.33,1837.22,-404.919,-91.7911,0
24012,756.25,760.42,762.95,759.29,759.73,143.07,-945.8,341.31,1.56,0.44,0.98,58.12,4803,0,82,0.0364315,12.5241,-76.9427,7045.89,7346.67,1868.77,-402.517,-91.5716,0
24047,756.33,760.55,762.86,759.25,759.75,125.98,-951.17,343.75,0.16,3.42,-0.71,55.05,4810,0,82,0.0698257,12.4465,-77.2879,6942.41,7304.1,1863.99,-403.493,-89.8234,0
24082,756.36,760.45,762.9,759.32,759.76,141.11,-962.89,342.29,-1.28,2.29,2.62,55.76,4817,0,82,-0.355706,12.6468,-76.9509,6934.71,7344.75,1935.7,-402.553,-90.118,0
24117,756.34,760.46,762.95,759.35,759.78,156.25,-945.8,332.52,0.15,-0.15,0.58,56.54,4824,0,82,-0.3049,12.9186,-77.5564,7046.36,7286.03,2001.42,-404.056,-90.8568,0
24153,756.37,760.45,762.9,759.42,759.78,131.84,-952.64,335.94,-0.11,2.53,1.39,54.38,4832,0,82,-0.213462,12.8358,-78.3187,7137.22,7302.16,1898.94,-404.76,-91.1254,0
24187,756.35,760.47,762.97,759.41,759.8,148.93,-945.8,333.01,0.87,2.73,1.69,55.94,4838,0,82,-0.233277,12.9297,-77.5231,7099.33,7337.75,2029.9,-403.348,-91.578,0
24220,756.36,760.55,762.94,759.35,759.8,127.44,-933.59,331.54,-0.12,3.21,2.44,55.45,4845,0,82,0.0132714,12.9042,-78.8105,7038.53,7369.03,1927.42,-404.494,-89.3059,0
24254,756.42,760.44,762.92,759.39,759.79,147.46,-967.77,333.01,1.18,0.74,1.1,55.04,4852,0,82,-0.140232,13.3589,-77.9411,6982.28,7410.8,2009.32,-402.918,-89.5842,0
24287,756.33,760.52,762.95,759.43,759.81,137.21,-943.36,342.29,0.18,1.92,2.29,55,4858,0,82,-0.176535,13.3348,-78.5217,6993.02,7448.08,1912.22,-403.146,-89.0589,0
24321,756.37,760.54,762.94,759.4,759.81,128.42,-947.75,344.73,1.72,1.29,0.63,54.7,4865,0,82,-0.188176,13.0929,-77.5312,6951.36,7410.22,1929.04,-402.422,-89.6626,0
24354,756.4,760.47,762.91,759.36,759.78,140.62,-956.05,355.47,0.56,3.13,1.74,55.12,4872,0,82,-0.288998,13.0436,-78.2714,7049.82,7383.14,2053.94,-403.673,-90.0687,0
24389,756.32,760.54,762.93,759.44,759.81,133.79,-952.64,344.73,0.95,1.33,3.7,54.31,4879,0,82,-0.225232,12.6346,-78.9804,7054.05,7398.5,2002.47,-404.324,-89.3165,0
24422,756.38,760.5,762.89,759.46,759.81,128.42,-951.17,352.54,0.64,1.83,-0.15,52.85,4885,0,82,-0.27456,12.8985,-78.4258,7145.88,7364.19,2084.53,-404.1,-91.1165,0
24458,756.29,760.55,762.96,759.41,759.8,138.18,-957.52,346.68,2.02,0.21,-1.34,55.09,4893,0,82,0.0199081,12.951,-78.4937,7157.16,7411.22,1960.32,-403.582,-91.182,0
24492,756.39,760.53,762.93,759.45,759.82,136.23,-959.96,341.8,-1.53,1.17,-1.15,53.93,4899,0,82,-0.437917,12.9529,-78.4673,7118.45,7410.16,2102.54,-403.563,-90.7157,0
24526,756.33,760.52,762.85,759.41,759.78,149.9,-945.31,329.1,-0.4,1.57,3.08,52.65,4906,0,82,-0.147984,13.2541,-79.2565,7078.54,7417.83,2061.19,-404.407,-89.3119,0
24559,756.4,760.59,762.9,759.44,759.83,124.02,-954.1,328.12,-0.65,-0.05,0.47,52.71,4913,0,82,-0.122609,13.4452,-78.5694,7155.95,7404.59,1997.07,-403.754,-91.0841,0
24593,756.41,760.51,762.92,759.34,759.79,140.62,-943.85,335.45,-0.08,1.1,2.21,55.24,4920,0,82,-0.2295,13.189,-79.0338,7201.26,7400.99,2082.87,-404.357,-91.118,0
24627,756.37,760.56,762.92,759.44,759.82,138.18,-947.75,333.98,0.5,1.55,1.57,53.47,4926,0,82,0.0549351,12.9096,-78.5511,7168.24,7367.96,2059.01,-404.202,-91.2568,0
24662,756.49,760.55,762.95,759.41,759.85,128.42,-949.71,327.64,0.02,-0.31,0.87,54.38,4933,0,82,-0.248201,12.4375,-77.1924,7042.62,7407.93,2069.78,-402.032,-91.2344,0
24696,756.43,760.51,762.94,759.43,759.83,141.11,-949.22,340.33,2.01,-1.15,0.36,54.52,4940,0,82,-0.160914,12.934,-77.3297,7075.11,7396.2,2117.97,-402.355,-91.4933,0
24730,756.39,760.59,762.9,759.4,759.82,130.37,-941.41,327.64,-0.26,1.33,0.56,53.23,4947,0,82,-0.382764,12.9666,-77.877,7001.84,7372.59,2167.44,-403.328,-89.9135,0
24764,756.4,760.58,762.92,759.44,759.84,134.77,-946.78,336.91,-0.5,2.2,0.6,53.39,4954,0,82,-0.462497,13.1314,-78.4436,7035.07,7406.2,2183.06,-403.585,-89.682,0
24798,756.37,760.63,762.86,759.48,759.83,137.21,-966.8,340.82,-0.29,-1.69,2.08,51.04,4961,0,82,-0.287364,13.1316,-77.8641,6975.92,7400.94,2086.07,-402.948,-89.5922,0
24832,756.4,760.52,762.91,759.46,759.82,134.77,-949.22,326.66,2.13,0.82,0.11,53.26,4967,0,82,-0.106751,13.3544,-78.2707,7159.79,7373.22,2101.84,-403.799,-91.4747,0
24868,756.38,760.55,762.91,759.41,759.81,135.25,-961.91,331.05,1.31,2.66,0.08,53.69,4975,0,82,-0.25522,13.2268,-78.6069,7056.07,7334.23,1967.45,-404.698,-89.7645,0
24902,756.38,760.52,762.86,759.4,759.79,146.48,-942.38,338.87,1.73,1.06,2.07,53.12,4981,0,82,-0.345121,13.0522,-77.8927,7099.37,7394.84,1967.45,-403.064,-91.1435,0
24936,756.35,760.55,762.9,759.39,759.8,142.09,-947.27,338.38,2.36,1.47,1.24,53.8,4988,0,82,0.102067,13.0956,-78.3084,7103.87,7422.35,1967.39,-403.217,-90.7157,0
24971,756.37,760.48,762.93,759.46,759.81,140.14,-943.85,331.05,0.83,2.11,-2.05,54.13,4995,0,82,0.188998,13.213,-77.7047,7017.62,7467.41,1999.28,-401.899,-90.3106,0
25005,756.4,760.47,762.87,759.43,759.79,141.11,-959.96,331.05,1.31,-0.78,-0.76,52.98,5002,0,82,0.259754,13.3685,-78.3837,7099.54,7479.11,1997.36,-402.582,-90.5809,0
25039,756.38,760.54,762.93,759.44,759.82,147.46,-950.68,337.4,0.77,2.02,0.79,53.86,5009,0,82,-0.139906,13.2877,-78.2947,6996.7,7476.58,1961.25,-402.505,-89.3656,0
25075,756.38,760.57,762.92,759.49,759.84,143.07,-947.27,335.45,1.44,0.49,-0.21,52.79,5016,0,82,-0.365419,13.4595,-77.5374,7064.02,7517.89,2032.72,-401.042,-91.1034,0
25109,756.42,760.54,762.93,759.47,759.84,143.55,-943.36,329.1,-0.21,0.42,0.48,53.25,5023,0,82,-0.55703,13.1006,-78.9899,7039.44,7425.93,1886.38,-403.989,-89.1172,0
25143,756.33,760.52,762.94,759.5,759.82,150.39,-957.52,322.27,-0.6,3.62,1.18,53.63,5030,0,82,-0.760769,13.1269,-78.3861,7095.61,7460.61,1898.39,-402.822,-90.5216,0
25177,756.44,760.54,762.96,759.48,759.85,137.21,-958.01,330.08,2.48,1.87,-1.08,53.81,5036,0,82,-0.716242,13.0528,-78.8285,7048.31,7442.49,1850.69,-403.586,-89.413,0
25211,756.36,760.49,762.91,759.45,759.8,134.28,-950.68,333.5,2.43,1.14,1,53.87,5043,0,82,-0.357437,13.0861,-78.1144,7008.29,7475,1916.48,-402.307,-89.7175,0
25245,756.45,760.52,762.91,759.4,759.82,149.9,-951.66,339.36,0.19,0.66,4.15,54,5050,0,82,-0.300639,13.2109,-78.8996,7036.23,7450.47,1759.27,-403.57,-89.1796,0
25281,756.43,760.56,762.88,759.46,759.83,136.72,-944.34,347.66,0.31,2.38,-0.99,51.96,5057,0,82,-0.0289482,13.1418,-78.381,6985.28,7456.06,2013.06,-402.873,-89.1225,0
25315,756.34,760.55,762.96,759.41,759.82,138.18,-953.61,336.43,-1.55,2.02,0.2,55.07,5064,0,82,-0.0942166,13.0837,-78.7232,7049.75,7510.94,1912.03,-402.591,-89.5522,0
25349,756.37,760.65,762.97,759.45,759.86,143.55,-940.43,328.61,1.95,1.2,1.01,53.73,5071,0,82,-0.401588,13.4186,-79.0415,7042.89,7507.93,2045.12,-403.013,-89.1038,0
25384,756.41,760.61,762.96,759.43,759.85,140.14,-953.12,349.12,0.63,1.89,1.43,54.07,5078,0,82,-0.255177,13.2688,-78.4453,7002.2,7486.18,2050.41,-402.568,-89.2624,0
25418,756.41,760.49,762.92,759.43,759.81,124.51,-954.1,326.66,1.05,1.31,0.35,54.19,5085,0,82,-0.535719,12.741,-78.7938,6963.13,7430.22,2116.45,-403.7,-88.3713,0
25452,756.44,760.57,762.95,759.48,759.86,132.81,-935.06,333.01,0.62,-1.05,-1.95,53.29,5091,0,82,-0.196637,12.8647,-77.6695,7018.25,7451.17,2139.37,-402.065,-90.3594,0
25486,756.37,760.49,762.97,759.46,759.82,130.86,-957.52,340.82,2.47,1.02,1.3,55.01,5098,0,82,-0.459393,12.8692,-78.5464,6979.72,7453.61,2127.24,-403.106,-88.8612,0
25520,756.47,760.61,762.96,759.43,759.87,150.88,-954.1,336.91,-1.34,3.99,0.79,53.89,5105,0,82,-0.153211,13.1357,-77.9602,7049.73,7440.58,2199.04,-402.559,-90.4288,0
25554,756.45,760.63,762.98,759.44,759.87,127.93,-948.24,320.8,-1.09,2.47,-0.24,54.2,5112,0,82,-0.432549,13.0723,-78.5667,6936.39,7453.75,2095.03,-403.129,-88.2874,0
25588,756.41,760.55,762.95,759.38,759.82,135.74,-957.03,334.47,2.62,-1.06,0.99,55.03,5119,0,82,-0.279662,13.1292,-78.5782,7009.26,7449.95,2090.78,-403.19,-89.2028,0
25623,756.43,760.63,762.94,759.43,759.86,134.28,-954.59,333.01,0.58,4.88,2.85,53.52,5126,0,82,-0.407052,12.9979,-77.9099,6981.67,7391.25,2090.61,-403.131,-89.611,0
25657,756.42,760.6,762.91,759.51,759.86,146.48,-949.71,342.77,-1.84,2.63,-0.73,51.88,5132,0,82,-0.415437,12.7448,-78.3069,6980.51,7422.12,2069.12,-403.217,-89.1427,0
25693,756.42,760.58,762.94,759.43,759.84,139.65,-954.59,323.73,-0.03,1.45,1.76,53.82,5140,0,82,-0.229054,12.9456,-77.4672,7032.19,7348.5,2013.68,-403.138,-90.7742,0
25727,756.33,760.57,762.88,759.46,759.81,137.7,-954.1,335.94,1.02,1.24,-0.73,52.48,5146,0,82,-0.266626,13.1393,-77.7584,6994.95,7375.38,2014.61,-403.15,-89.9582,0
25761,756.51,760.55,762.93,759.37,759.84,146,-958.01,335.94,1.11,0.64,-1.27,54.48,5153,0,82,-0.26231,13.0355,-77.7882,7111.59,7380.22,1950.64,-403.114,-91.4232,0
25795,756.44,760.57,762.99,759.51,759.88,137.21,-950.68,339.84,-1.19,0.58,-1.04,53.95,5160,0,82,-0.404253,13.0574,-78.0212,7096.77,7445.31,1949.16,-402.573,-90.9596,0
25828,756.43,760.56,763,759.46,759.86,146.48,-944.82,332.52,0.13,2.15,0.06,55.06,5167,0,82,-0.0859985,12.8829,-77.6652,6970.59,7461.29,2009.18,-401.929,-89.751,0
25862,756.42,760.57,762.97,759.45,759.85,153.32,-944.82,348.14,2.51,-0.73,0.62,54.45,5173,0,82,-0.228223,13.2306,-77.5488,7088.38,7458.76,1902.48,-401.818,-91.4046,0
25896,756.46,760.54,762.94,759.5,759.86,132.32,-950.68,334.96,1.8,1.36,0.03,52.89,5180,0,82,-0.409205,13.2069,-78.3563,7017.23,7410.58,1996.07,-403.424,-89.5568,0
25929,756.47,760.58,762.99,759.5,759.89,145.51,-941.89,339.36,0.09,0.66,1.18,53.93,5187,0,82,-0.350742,13.334,-77.8995,7057.32,7401.95,1958.04,-402.976,-90.5925,0
25963,756.46,760.53,762.94,759.46,759.85,138.18,-950.2,321.29,0.5,2.45,-0.91,53.85,5194,0,82,-0.175725,13.1465,-78.2849,7015.84,7330.77,2045.58,-404.357,-89.62,0
25998,756.48,760.53,763,759.5,759.88,144.53,-942.38,345.21,0.35,0.05,-1.69,54.46,5201,0,82,-0.232707,13.2133,-77.5364,6943.32,7385.88,2059.4,-402.737,-89.5614,0
26032,756.46,760.62,762.92,759.48,759.87,137.21,-944.34,331.54,-0.34,-0.16,-1.74,52.08,5207,0,82,-0.510475,13.1825,-77.9877,6991.85,7443.94,1981.38,-402.549,-89.6546,0
26066,756.45,760.58,762.99,759.48,759.87,146.97,-947.27,339.84,0.15,1.46,-1.03,54.13,5214,0,82,-0.627137,13.2353,-78.318,7024.45,7412.97,2003.72,-403.347,-89.6902,0
26102,756.43,760.59,762.95,759.46,759.86,143.55,-950.2,325.68,3.01,-0.28,-0.79,53.43,5221,0,82,-0.551486,12.8771,-77.7387,6933.98,7357.62,1862.97,-403.354,-89.1934,0
26136,756.45,760.58,762.95,759.49,759.87,139.65,-948.73,341.31,-0.66,2.69,-1.21,53.1,5228,0,82,-0.668445,12.9098,-78.6973,7047.4,7386.47,2016.37,-404.141,-89.548,0
26170,756.48,760.66,763.03,759.49,759.92,143.07,-952.64,334.96,1.79,1.34,-0.92,54.37,5235,0,82,-0.377333,12.9491,-77.7772,6912.13,7397.05,1972.36,-402.894,-88.871,0
26203,756.42,760.66,762.92,759.4,759.85,142.09,-958.98,331.05,1.22,0.05,-0.6,53.26,5242,0,82,-0.311827,13.1319,-78.3053,6976.24,7377.16,1956.91,-403.79,-89.0905,0
26237,756.39,760.62,762.94,759.49,759.86,137.7,-937.5,340.82,-0.84,-0.15,0.8,52.64,5248,0,82,-0.470867,13.183,-78.2128,6945.96,7471.61,2027.42,-402.471,-88.8081,0
26271,756.45,760.66,763.02,759.46,759.9,146,-949.22,329.59,1.61,2.04,-1.86,54.76,5255,0,82,-0.363628,13.1262,-77.732,7015.26,7445.46,1963.4,-402.21,-90.2505,0
26305,756.45,760.68,762.97,759.5,759.9,140.62,-955.57,328.12,1,4.21,-0.5,52.52,5262,0,82,-0.0837755,12.9555,-78.5766,7025.77,7403.22,1917.87,-403.782,-89.4169,0
26340,756.48,760.62,763.02,759.46,759.89,134.28,-952.64,335.45,-0.48,1.53,1.09,54.75,5269,0,82,-0.253176,12.8677,-77.5259,6875.35,7427.95,1858.99,-402.187,-88.6832,0
26374,756.5,760.64,762.97,759.52,759.91,125.98,-952.64,323.24,1.73,2.18,0.79,52.43,5276,0,82,-0.176415,13.0673,-77.7756,6955.94,7372.53,1928.81,-403.208,-89.4337,0
26408,756.4,760.6,762.98,759.5,759.87,138.18,-933.59,334.96,0.1,0.61,2.11,53.73,5283,0,82,-0.355766,13.1509,-77.7837,6973.61,7395.41,1903.14,-402.923,-89.6527,0
26442,756.45,760.63,762.98,759.46,759.88,126.95,-940.92,328.12,0.49,2.2,0.99,53.94,5289,0,82,-0.24878,13.2222,-78.2334,7053.33,7382.5,1887.25,-403.635,-90.1589,0
26476,756.36,760.56,763.03,759.51,759.86,139.65,-932.13,339.84,0.41,2.42,-0.59,55.16,5296,0,82,-0.290371,13.2019,-78.3565,7086.17,7394.47,1782.83,-403.623,-90.4373,0
26512,756.41,760.67,762.97,759.44,759.87,139.65,-949.22,335.94,-1.42,0.07,-0.18,53.83,5303,0,82,-0.249534,12.8262,-77.657,6888.2,7380.45,1965.68,-402.96,-88.7001,0
26546,756.39,760.59,763.01,759.5,759.87,142.09,-963.38,344.24,0.97,2.6,0.34,54.43,5310,0,82,-0.344988,13.3564,-78.5031,7075.45,7380.17,1929.06,-403.989,-90.1289,0
26580,756.44,760.64,763.02,759.43,759.88,137.21,-964.84,337.89,1.57,0.87,0.28,55.33,5317,0,82,-0.431059,12.9869,-77.4883,6907.13,7354.88,1987.55,-403.084,-89.1377,0
26614,756.45,760.64,763.03,759.49,759.9,143.07,-946.78,335.94,-0.65,1.35,0.99,54.61,5324,0,82,-0.515128,13.3794,-78.5364,7117.93,7382.64,1882.4,-403.997,-90.632,0
26649,756.41,760.58,762.96,759.47,759.86,135.74,-943.36,340.82,-2.22,1.7,0.32,53.86,5331,0,82,-0.294031,13.2401,-77.6854,6977.65,7388.71,1876.72,-402.889,-89.8201,0
26683,756.43,760.6,762.94,759.41,759.85,145.51,-955.08,325.2,-0.72,0.82,-1.58,53.96,5338,0,82,-0.491445,12.6962,-78.0661,6940.45,7384.74,1923.94,-403.404,-88.9058,0
26717,756.48,760.61,762.99,759.45,759.88,140.62,-940.43,331.05,2.23,0.15,0.43,54.22,5344,0,82,-0.182802,13.1503,-78.2321,7104.11,7336.83,1906.4,-404.217,-90.8078,0
26751,756.51,760.55,763,759.49,759.89,147.95,-954.59,330.57,-0.33,1.47,1.11,54.39,5351,0,82,0.0631544,12.882,-77.9311,6990.83,7364.7,1884.53,-403.497,-89.705,0
26785,756.55,760.63,762.94,759.49,759.9,134.28,-951.17,330.08,0.24,0.79,0.1,52.09,5358,0,82,-0.0416296,13.2888,-78.7813,7041.94,7407.64,1813.35,-403.972,-89.3871,0
26819,756.52,760.58,762.96,759.44,759.88,140.62,-951.66,339.84,0.71,2.07,-0.11,53.88,5365,0,82,-0.183939,13.2304,-77.9392,6959.78,7453.41,1873.68,-402.368,-89.2986,0
26853,756.47,760.66,762.97,759.49,759.9,121.09,-945.31,330.08,-0.34,0.86,0.65,52.88,5372,0,82,-0.282157,13.0967,-78.5742,7001.47,7426.85,1961.68,-403.48,-89.1078,0
26888,756.5,760.64,762.96,759.44,759.88,145.51,-943.36,327.64,1.59,-1.77,-0.51,53.38,5379,0,82,-0.145205,13.0449,-77.8011,6973.13,7438.24,1945.17,-402.394,-89.6262,0
26925,756.45,760.63,763.04,759.5,759.9,154.79,-942.38,345.7,-1.73,3.02,0.26,54.87,5386,0,82,-0.228896,13.1417,-78.2769,7007.96,7431.03,2022.09,-403.067,-89.5266,0
26959,756.46,760.67,762.96,759.45,759.88,142.58,-953.12,331.05,1.62,-0.69,2.18,53.12,5393,0,82,-0.221678,12.9847,-78.2385,7033.29,7499.07,1958.79,-402.151,-89.8996,0
26993,756.44,760.62,762.98,759.51,759.89,144.53,-941.89,339.84,1.32,0.94,-1.5,53.31,5400,0,82,-0.42196,12.8523,-78.8065,6966.79,7465.63,1899.27,-403.266,-88.4038,0
27028,756.45,760.65,762.96,759.48,759.88,144.53,-950.2,324.22,-1.44,0.63,0.39,52.77,5407,0,82,-0.120264,13.1703,-79.5879,7044.46,7455.4,1925.63,-404.325,-88.5142,0
27062,756.47,760.62,762.98,759.56,759.91,136.72,-964.84,338.38,-0.34,1.02,0.94,52.51,5413,0,82,-0.229929,13.0501,-77.8922,6975.4,7464.13,1993.43,-402.173,-89.5525,0
27096,756.51,760.56,762.95,759.53,759.89,136.72,-949.71,337.89,1.35,0.85,0.83,52.44,5420,0,82,-0.271517,13.1045,-78.3255,6969.13,7422.24,1930.82,-403.239,-88.977,0
27130,756.47,760.63,762.98,759.53,759.9,133.79,-964.36,329.59,-0.58,3.1,-0.51,52.74,5427,0,82,-0.233212,13.1912,-77.9778,7003.48,7492.72,1983.72,-401.911,-89.8109,0
27164,756.44,760.63,763.08,759.53,759.92,146,-949.71,334.47,1.26,-0.72,0.86,55.4,5434,0,82,-0.171447,13.456,-78.9087,6995.89,7472.79,1988.53,-403.298,-88.6561,0
27198,756.5,760.63,762.99,759.44,759.89,143.07,-955.57,330.08,1.25,1.89,1.43,54.39,5441,0,82,-0.245975,13.467,-77.1134,7006.15,7497.94,1997.31,-400.767,-90.8551,0
27232,756.45,760.64,763.01,759.49,759.9,123.54,-946.29,330.08,-1.32,0.24,1.57,54.03,5447,0,82,-0.580788,13.3657,-78.5612,7012.42,7479.15,1883.54,-402.795,-89.2582,0
27266,756.52,760.58,762.98,759.44,759.88,145.51,-944.82,325.2,0.77,-0.66,-1.58,54.23,5454,0,82,-0.412042,13.4335,-79.0038,7029.28,7429.71,1964.3,-403.957,-88.9726,0
27301,756.46,760.62,762.99,759.45,759.88,133.79,-955.57,331.54,1.24,0.53,0.24,54.21,5461,0,82,-0.299397,13.3778,-78.1905,7134.1,7479.78,1862.39,-402.339,-91.2428,0
27336,756.46,760.6,763.03,759.52,759.9,144.53,-959.47,337.4,0.35,0.54,1.2,54.39,5468,0,82,-0.144068,13.2022,-79.2941,7125.36,7412.54,1900.25,-404.518,-89.8591,0
27371,756.45,760.6,763.04,759.43,759.88,142.58,-944.82,323.73,-2.4,2.65,1.78,56.11,5475,0,82,-0.360261,13.2985,-77.9928,7194.28,7423.58,1920.8,-402.818,-92.2433,0
27405,756.44,760.65,763.01,759.49,759.9,146,-953.61,333.5,-1.18,2.31,1.22,53.89,5482,0,82,-0.215023,13.329,-79.2045,7071.78,7437.43,1907.17,-404.098,-89.2849,0
27438,756.52,760.67,763.02,759.45,759.92,147.46,-949.71,344.73,-0.2,2.5,-0.9,54.5,5489,0,82,-0.40602,13.4234,-78.8805,7040.76,7427.08,2063.29,-403.836,-89.2715,0
27472,756.49,760.64,763.03,759.52,759.92,143.07,-950.68,338.87,-0.84,0.76,0.71,54.02,5495,0,82,-0.142007,13.1936,-78.1117,7062.49,7438.84,1982.44,-402.765,-90.4125,0
27505,756.55,760.67,762.99,759.51,759.93,139.16,-951.17,336.43,1.65,1.84,2.77,52.84,5502,0,82,-0.430043,13.3049,-79.1506,7086.84,7502.21,1921.43,-403.217,-89.5375,0
27539,756.51,760.64,763.02,759.53,759.93,137.21,-949.71,332.03,0.67,2.7,0.44,53.64,5509,0,82,-0.525538,13.3775,-78.7026,7118.5,7462.44,1947.54,-403.182,-90.4466,0
27573,756.55,760.65,762.98,759.49,759.92,131.35,-951.66,343.75,-0.82,0.78,2.02,53.06,5516,0,82,-0.405941,13.0061,-79.2712,6937.89,7483.89,1835.15,-403.591,-87.5211,0
27606,756.5,760.62,762.96,759.52,759.9,135.74,-945.31,337.89,0.67,2.37,2.07,52.5,5522,0,82,-0.342486,13.4427,-78.1659,7086.43,7473.39,1924.89,-402.39,-90.6593,0
27640,756.56,760.69,762.98,759.51,759.94,127.93,-948.24,331.54,0.56,-0.5,2.27,52.33,5529,0,82,-0.411522,13.2182,-78.8955,7079.91,7438.53,1914.44,-403.715,-89.7382,0
27674,756.52,760.62,763.01,759.53,759.92,146.97,-942.87,328.61,0.66,0.61,0.69,53.49,5536,0,82,-0.459346,13.2213,-78.8968,7074.74,7473.75,1980.33,-403.271,-89.6729,0
27710,756.51,760.65,763.04,759.53,759.93,137.21,-936.04,332.03,-0.44,3.03,1.61,53.98,5543,0,82,-0.368556,13.0633,-78.2834,6995.89,7462.53,1963.16,-402.673,-89.3671,0
27743,756.55,760.68,763.11,759.46,759.95,145.02,-949.71,346.68,0.68,1.36,1.3,56.4,5550,0,82,-0.555323,13.3761,-78.9573,6988.57,7432.98,1873.59,-403.861,-88.5094,0
27777,756.51,760.72,763,759.51,759.93,148.93,-957.52,349.61,-0.12,3.47,-0.01,52.66,5556,0,82,-0.557743,13.2798,-78.264,7073.43,7475.89,1949.74,-402.479,-90.379,0
27811,756.52,760.66,763.05,759.48,759.93,133.79,-954.1,340.82,-0.5,0.25,2.76,54.74,5563,0,82,-0.71241,13.135,-79.3281,6971.61,7411.74,1854.03,-404.569,-87.8853,0
27847,756.51,760.72,763.02,759.52,759.94,138.18,-955.08,340.33,-0.56,2.88,0.55,52.98,5570,0,82,-0.649381,13.2664,-78.1048,6988.3,7434.41,1946.59,-402.806,-89.4688,0
27881,756.52,760.63,762.97,759.55,759.92,147.95,-961.43,337.4,1,2.04,0.13,52.1,5577,0,82,-0.732304,12.8139,-79.0141,7054.57,7473.82,1907.97,-403.41,-89.2794,0
27915,756.6,760.7,763.08,759.58,759.99,127.93,-946.78,351.07,0.88,0.53,-1.27,53.5,5584,0,82,-0.628947,13.0996,-79.0917,7002.83,7417.58,1931.93,-404.215,-88.5408,0
27949,756.48,760.73,763.07,759.55,759.96,138.18,-948.73,348.63,0.8,0.74,2.16,53.9,5591,0,82,-0.686189,13.1003,-78.8662,6977.88,7437.85,1995.07,-403.689,-88.4745,0
27983,756.45,760.76,763.07,759.58,759.97,139.16,-953.61,335.94,0.53,1.6,1.21,53.42,5598,0,82,-0.283442,13.1442,-79.2118,6995.1,7412.75,2026.83,-404.419,-88.3086,0
28017,756.49,760.75,763.04,759.49,759.94,143.07,-938.96,337.89,0.92,1.95,-2.27,53.75,5604,0,82,-0.489531,13.23,-78.5828,7079.89,7448.05,1997.66,-403.219,-90.0913,0
28051,756.52,760.7,763.05,759.47,759.94,142.58,-947.75,335.94,1.7,1.89,0.24,54.66,5611,0,82,-0.512068,13.0229,-79.1764,7022.19,7417.45,2088.31,-404.317,-88.688,0
28086,756.54,760.66,763.03,759.46,759.92,126.95,-959.96,340.33,-0.19,1.16,-0.19,54.55,5618,0,82,-0.60164,13.5466,-78.0645,7118.21,7469.57,2074.41,-402.315,-91.188,0
28121,756.51,760.72,763.04,759.5,759.94,138.67,-949.22,339.36,-0.99,2.89,1.76,53.76,5625,0,82,-0.309778,13.6351,-79.3296,7049.03,7495.75,2065.24,-403.509,-88.8564,0
28156,756.56,760.7,763.03,759.59,759.97,134.77,-967.29,350.1,0.95,1.62,-0.05,52.4,5632,0,82,-0.164907,13.3342,-79.3319,7085.89,7459.74,2023.75,-403.966,-89.3165,0
28190,756.6,760.61,763.01,759.51,759.93,152.83,-949.22,332.52,0.98,1.3,0.99,53.51,5639,0,82,-0.327098,13.3653,-78.8273,6983.02,7466.15,2105.38,-403.284,-88.5844,0
28224,756.52,760.63,763.08,759.53,759.94,146,-941.41,342.77,1.03,0.4,-1.4,54.98,5646,0,82,-0.238678,13.525,-79.1505,7088.21,7430.99,2065.87,-404.116,-89.5533,0
28258,756.51,760.72,763.04,759.5,759.94,140.62,-953.12,337.4,1.47,-0.71,1.02,53.95,5653,0,82,-0.311376,13.4979,-78.7737,7011.88,7486.17,2021.55,-402.966,-89.0138,0
28292,756.49,760.71,763.03,759.48,759.93,147.46,-932.62,338.38,0.09,1.87,0.09,54.13,5659,0,82,-0.0860137,13.704,-79.1881,7039.62,7471.95,1974.12,-403.643,-88.8976,0
28326,756.53,760.75,763.05,759.5,759.96,148.93,-950.2,319.34,0.27,0.97,2.29,53.69,5666,0,82,-0.0944177,13.3078,-77.7913,6981.42,7472.07,1991.12,-401.944,-89.7455,0
28360,756.52,760.66,763.11,759.52,759.95,145.02,-948.73,332.52,-0.37,0.99,2.24,55.69,5673,0,82,-0.496621,13.4682,-79.2187,7123.44,7446.58,1964.14,-403.999,-89.9211,0
28394,756.51,760.71,763.08,759.53,759.96,130.86,-953.12,328.61,-0.92,1.55,0.08,54.45,5680,0,82,-0.350703,13.3521,-80.0082,7087.65,7468.17,2098.48,-404.657,-88.5865,0
28429,756.5,760.72,763.06,759.56,759.96,146.48,-953.12,345.21,-0.07,-0.15,-1.85,53.57,5687,0,82,-0.396455,13.1909,-79.0504,6975.69,7433.35,2106.82,-403.967,-88.2431,0
28463,756.48,760.65,763.06,759.55,759.94,129.39,-946.29,346.68,-2,1.91,1.79,54.34,5694,0,82,-0.351606,13.075,-79.2217,7087.52,7497.14,2236.1,-403.365,-89.4607,0
28497,756.52,760.68,763.09,759.59,759.97,137.7,-940.92,320.31,-0.6,1.89,-1,53.98,5700,0,82,-0.320258,13.4647,-78.7531,7133.38,7510.46,2188.15,-402.633,-90.5781,0
28533,756.49,760.71,763.07,759.52,759.95,143.07,-946.78,330.57,1.67,0.62,-0.38,54.49,5708,0,82,-0.354632,13.2881,-78.5642,6975.05,7448.45,2143.9,-403.19,-88.7786,0
28567,756.51,760.72,763.1,759.68,760,125.49,-951.66,340.33,-0.66,-0.6,-1.27,52.79,5714,0,82,-0.308666,13.2233,-77.6943,6970.18,7462.86,2197.13,-401.937,-89.7154,0
28601,756.62,760.65,763.02,759.61,759.97,147.95,-951.66,327.64,1.93,2,1.11,51.93,5721,0,82,-0.398593,13.314,-79.1313,6956.36,7460.19,2207.8,-403.724,-87.909,0
28635,756.51,760.75,763.02,759.53,759.95,149.41,-952.15,339.36,0.24,-0.3,0.52,52.79,5728,0,82,-0.386585,13.5301,-78.97,7059.75,7465.01,2153.64,-403.468,-89.3947,0
28669,756.51,760.7,763.07,759.62,759.97,135.74,-955.08,324.22,-0.27,0.45,0.86,52.89,5735,0,82,-0.17035,13.3186,-78.2914,6970.34,7422.63,2119.32,-403.192,-89.0289,0
28703,756.54,760.77,763.05,759.6,759.99,135.25,-947.27,331.54,2.21,0.41,1.83,52,5742,0,82,-0.371811,13.3232,-78.8576,7033.24,7419.45,2025.3,-403.913,-89.1926,0
28737,756.59,760.76,763.06,759.53,759.99,140.62,-927.25,337.89,-1.2,2.25,1.87,53.24,5748,0,82,-0.258217,13.5558,-78.3771,6988.93,7497.91,2175.63,-402.335,-89.1706,0
28773,756.55,760.75,763.06,759.55,759.98,141.6,-950.2,330.57,-0.04,2.18,0.77,53.29,5756,0,82,-0.262239,13.488,-79.1638,6990.56,7431.14,2033.64,-404.129,-88.3053,0
28808,756.56,760.77,763.02,759.57,759.98,148.93,-953.61,340.82,-0.83,0.44,-0.13,51.84,5763,0,82,-0.301967,13.7031,-78.438,7044.79,7466.6,2061.05,-402.809,-89.8131,0
28842,756.55,760.7,762.99,759.56,759.95,129.39,-944.82,323.73,0.6,1.02,0.13,51.83,5769,0,82,-0.555965,13.3813,-79.1451,7077.99,7439.01,2063.33,-404.008,-89.4304,0
28876,756.47,760.64,763.05,759.57,759.93,146,-954.1,328.61,-0.41,2.52,1.17,53.95,5776,0,82,-0.206032,13.3651,-78.9797,7010.88,7491.29,2143.07,-403.148,-88.7722,0
28910,756.58,760.72,763.08,759.6,760,128.42,-947.27,332.52,1.11,-0.13,-0.99,53.12,5783,0,82,-0.284272,13.3247,-78.7487,7070.52,7352.93,2092.75,-404.628,-89.7858,0
28946,756.56,760.82,763.1,759.59,760.02,134.77,-953.12,335.45,1.41,1.89,3.85,52.97,5790,0,82,-0.161006,13.2792,-79.4445,7056.33,7453.56,2052.84,-404.179,-88.8201,0
28980,756.48,760.77,763.07,759.57,759.98,142.09,-956.54,337.4,-1.18,-0.56,2.46,53.33,5797,0,82,-0.0451342,13.3439,-78.219,6935.46,7442.3,2146.48,-402.853,-88.6688,0
29014,756.57,760.71,763.08,759.56,759.98,141.6,-955.08,341.8,-0.42,0.88,0.01,53.82,5804,0,82,-0.303312,13.6142,-79.3018,7001.17,7418.52,2055.07,-404.452,-88.2839,0
29048,756.54,760.75,763.09,759.6,759.99,138.67,-948.73,334.96,1.91,2.23,0.02,53.13,5811,0,82,0.0674625,13.2915,-78.1401,7053.04,7362.03,2138.96,-403.784,-90.2627,0
29082,756.59,760.77,763.04,759.63,760.01,139.65,-952.15,325.2,-0.27,1.71,1.84,51.36,5817,0,82,-0.356135,13.19,-78.6418,6916.72,7426.3,2120.42,-403.567,-87.9511,0
29115,756.62,760.74,763.08,759.57,760.01,146.48,-946.78,330.57,0.42,2.31,-1.67,53.29,5824,0,82,-0.208218,13.3495,-79.0277,6982.94,7428.18,2202.62,-404.005,-88.3656,0
29149,756.59,760.74,763.03,759.59,759.99,146,-944.82,334.96,2.54,3.65,2,51.89,5831,0,82,-0.270408,13.3361,-79.0566,7005.45,7425.52,2106.59,-404.073,-88.6146,0
29183,756.59,760.7,763.05,759.61,759.99,142.58,-947.27,335.94,-0.17,-0.35,1.15,52.36,5838,0,82,-0.385788,13.3112,-78.8933,7041.27,7477.07,2046.16,-403.225,-89.2516,0
29216,756.66,760.75,763.07,759.55,760.01,145.02,-956.54,326.17,-0.24,1.37,-0.53,53.28,5844,0,82,-0.322961,13.4774,-78.8113,7029.72,7449.06,2002.72,-403.482,-89.1972,0
29250,756.58,760.69,763.07,759.53,759.97,146.97,-953.12,342.29,-1.4,1.56,-2.15,54.03,5851,0,82,-0.125644,13.157,-79.1656,6950.43,7456.21,2034.23,-403.815,-87.7943,0
29284,756.52,760.73,763.1,759.57,759.98,145.51,-957.52,326.17,1.82,0.31,2.6,54.4,5858,0,82,-0.0805104,13.4792,-78.1025,7095.94,7407.05,1967.49,-403.162,-90.8539,0
29318,756.62,760.72,763.08,759.55,759.99,139.16,-951.66,337.89,0.69,0.07,-0.7,53.84,5865,0,82,0.197685,13.5493,-78.9012,7063.83,7392.49,2049.38,-404.306,-89.5264,0
29353,756.57,760.69,763.09,759.58,759.98,136.23,-945.31,341.31,1.37,1.44,-1.7,53.91,5872,0,82,0.412622,13.5094,-79.6203,7122.59,7427.66,2124.91,-404.712,-89.4545,0
29387,756.56,760.7,763.14,759.53,759.98,142.09,-952.64,324.71,0.82,2.01,0.2,55.81,5878,0,82,-0.0385774,13.4346,-78.7494,7105.73,7415.18,2083.7,-403.837,-90.2297,0
29421,756.58,760.68,763.13,759.63,760.01,133.3,-956.05,335.94,-0.73,3.76,-1.05,54.23,5885,0,82,0.16809,13.4888,-79.3111,6998,7447.34,2053.6,-404.099,-88.233,0
29455,756.55,760.74,763.06,759.51,759.96,132.32,-956.54,328.61,0.92,-0.54,2.44,53.84,5892,0,82,-0.18437,13.5709,-78.308,7080.27,7441.32,1967.12,-402.974,-90.416,0
29488,756.54,760.74,763.11,759.56,759.99,156.74,-943.36,343.75,1.31,-1.42,0.66,54.58,5899,0,82,-0.222315,13.0971,-79.1349,6925.44,7399.6,1969.13,-404.494,-87.5154,0
29523,756.55,760.81,763.05,759.61,760.01,141.6,-953.61,334.47,0.92,3.08,-2.25,51.71,5906,0,82,-0.0720766,13.5904,-78.2397,7076.06,7447.23,2004.55,-402.814,-90.4453,0
29557,756.62,760.85,763.05,759.54,760.01,142.09,-960.94,332.03,-0.77,2.27,3.1,52.25,5912,0,82,-0.0726802,13.4413,-78.9684,7005.91,7429.97,1980.15,-403.912,-88.7179,0
29591,756.63,760.66,763.07,759.63,760,137.7,-953.61,342.77,-0.15,-0.32,-0.13,52.64,5919,0,82,-0.237019,13.4394,-79.4317,7054.7,7452.29,2024.68,-404.18,-88.8147,0
29625,756.67,760.7,763.1,759.66,760.03,132.81,-961.43,331.05,-1.02,2.01,2.15,52.72,5926,0,82,-0.154445,13.6095,-78.993,7126.9,7432.46,2098.26,-403.909,-90.2229,0
29659,756.64,760.76,763.07,759.64,760.03,135.25,-943.36,332.52,0.11,2.5,-1.12,51.71,5933,0,82,-0.0534139,13.688,-79.6906,7096.55,7418.49,2016.79,-404.909,-89.0498,0
29695,756.57,760.78,763.04,759.62,760,134.28,-958.01,338.38,1.09,4.11,-0.38,51.42,5940,0,82,-0.143489,13.4383,-79.2096,6988.67,7427.72,2063.6,-404.226,-88.2339,0
29729,756.62,760.74,763.11,759.54,760.01,125.98,-953.12,333.98,0.78,0.73,1.62,54.52,5947,0,82,-0.284324,13.4321,-79.5796,7107.91,7408.48,1996.11,-404.905,-89.317,0
29765,756.69,760.7,763.13,759.61,760.03,133.3,-946.78,335.94,-0.31,1.03,0.5,53.99,5954,0,82,-0.314202,13.0571,-77.6799,6924.45,7460.01,1989.52,-401.965,-89.1406,0
29799,756.59,760.75,763.14,759.57,760.01,145.02,-933.59,327.15,-2.43,2.52,1.36,54.96,5961,0,82,-0.495169,13.621,-79.0844,7049.58,7347.29,1954.32,-405.095,-89.1375,0
29833,756.69,760.75,763.07,759.68,760.05,132.32,-957.03,337.4,0.1,1.27,2.05,51.15,5968,0,82,-0.13655,13.4305,-79.526,7098.76,7382.77,1921.8,-405.159,-89.2578,0
29867,756.63,760.68,763.11,759.58,760,139.65,-957.52,340.82,-1.45,2.65,-0.9,54.16,5974,0,82,-0.286633,13.2998,-79.0309,6989.22,7394.13,2033.56,-404.439,-88.4366,0
29902,756.61,760.68,763.09,759.57,759.99,141.6,-941.41,341.31,0.04,0.93,0.86,53.91,5981,0,82,-0.291709,13.6635,-79.3338,7075.59,7473.32,1939.87,-403.799,-89.1868,0
29936,756.64,760.72,763.01,759.53,759.97,126.95,-945.31,331.05,0.96,1.3,-0.87,52.15,5988,0,82,-0.303675,13.3856,-78.7998,6983.03,7439.27,2099.38,-403.593,-88.6182,0
29970,756.62,760.7,763.05,759.59,759.99,143.55,-947.27,327.64,0.54,1.76,2.97,52.63,5995,0,82,0.0335815,13.6222,-79.4424,7068.04,7447.03,2050.83,-404.259,-88.9707,0
30004,756.7,760.66,763.02,759.56,759.98,132.32,-963.38,330.57,-0.44,3.04,-1.03,52.18,6002,0,82,0.0711732,13.502,-78.1257,7029.44,7453.01,1997.96,-402.602,-89.9767,0
30038,756.58,760.7,763.06,759.6,759.98,144.04,-952.15,328.12,3.85,0.13,0.33,52.88,6009,0,82,-0.0352337,13.4594,-79.0692,7041.75,7429.11,1971.04,-404.043,-89.0582,0
30072,756.68,760.69,763.13,759.56,760.01,139.65,-961.43,332.03,-0.69,0.87,0.03,54.8,6015,0,82,0.200978,13.4017,-79.3311,7114.12,7396.07,2018.47,-404.77,-89.6762,0
30106,756.62,760.69,763.08,759.56,759.99,137.7,-945.8,334.96,-0.08,0.59,-1.98,53.93,6022,0,82,0.118013,13.0933,-78.9362,6949.16,7387.12,2064.96,-404.417,-88.0347,0
30140,756.65,760.69,763.05,759.51,759.98,128.42,-964.36,335.45,0.18,1.69,3.89,53.84,6029,0,82,-0.125301,13.1901,-79.4826,6943.77,7415.9,2078.26,-404.698,-87.3625,0
30176,756.62,760.69,763.07,759.65,760.01,146.97,-952.64,334.96,0.95,1.79,2.05,52.39,6036,0,82,0.135867,13.5964,-78.8882,7063.76,7366,2005.59,-404.625,-89.5398,0
30210,756.69,760.72,763.14,759.57,760.03,138.67,-953.61,334.96,-0.31,4.81,0.23,54.86,6043,0,82,0.0146521,13.5143,-79.4837,7065.4,7405.75,2084.64,-404.827,-88.8919,0
30245,756.61,760.77,763.1,759.58,760.02,141.11,-948.73,331.54,0.4,0.39,1.1,53.44,6050,0,82,-0.00701395,13.4929,-78.3702,7021.08,7405.55,2237.89,-403.506,-89.5886,0
30279,756.57,760.83,763.07,759.67,760.03,137.21,-936.52,338.38,1.52,2.83,1.98,51.08,6057,0,82,-0.158931,13.3635,-79.2087,7066.51,7431.9,2139.1,-404.172,-89.2153,0
30313,756.59,760.79,763.08,759.67,760.03,139.16,-957.03,339.36,0.31,0.09,3.45,51.5,6064,0,82,0.0380116,13.291,-79.1751,6960.37,7478.04,2073.68,-403.55,-87.9096,0
30347,756.62,760.77,763.09,759.69,760.04,148.44,-944.82,323.24,1.22,0.08,0.8,51.46,6070,0,82,-0.0349163,13.2442,-79.0731,6958.48,7437.55,2063.13,-403.941,-88.0014,0
30381,756.55,760.77,763.12,759.63,760.02,134.77,-941.41,339.36,0.15,0.66,0.46,53.35,6077,0,82,-0.0300693,13.6173,-79.657,7072.69,7412.03,2141.31,-404.95,-88.7902,0
30415,756.61,760.84,763.12,759.65,760.05,140.62,-950.68,338.38,1.03,1.91,-0.93,52.25,6084,0,82,-0.0143256,13.3012,-78.5382,6942.29,7449.87,2148.85,-403.144,-88.3925,0
30449,756.58,760.79,763.15,759.66,760.04,148.44,-958.01,315.43,-0.82,2.82,2.03,53.5,6091,0,82,0.0669845,13.5943,-79.0545,7048.68,7440.66,2171.4,-403.879,-89.1622,0
30484,756.57,760.69,763.12,759.67,760.01,143.07,-942.87,324.22,0.69,0.79,-0.26,53.34,6098,0,82,-0.17011,13.4009,-78.2595,6919.88,7467.75,2152.28,-402.576,-88.4212,0
30518,756.54,760.79,763.08,759.64,760.01,131.35,-958.98,338.87,0.88,-0.28,-0.67,52.19,6105,0,82,-0.289481,13.5548,-79.0091,7129.6,7449.6,2190.06,-403.712,-90.2373,0
30552,756.56,760.81,763.09,759.66,760.03,141.6,-956.54,335.94,-0.05,0.1,-0.49,51.99,6111,0,82,-0.256471,13.4541,-79.5611,7113.59,7439.93,2109.01,-404.488,-89.4103,0
30588,756.6,760.75,763.1,759.64,760.02,142.09,-953.12,333.01,-1.16,1.15,1.14,52.93,6119,0,82,-0.403595,13.3497,-78.1889,6986.35,7409.51,2049.2,-403.235,-89.3503,0
30623,756.58,760.77,763.14,759.65,760.04,127.44,-953.12,329.1,2.11,-0.24,0.44,53.6,6126,0,82,-0.512616,13.6626,-79.701,7064.71,7464.5,2141.17,-404.342,-88.6385,0
30658,756.52,760.81,763.08,759.58,760,137.21,-946.29,343.75,2.31,2.04,-1.15,52.95,6133,0,82,-0.27575,13.5072,-78.3442,6918.29,7452.89,2032.31,-402.87,-88.3067,0
30692,756.55,760.82,763.14,759.64,760.04,148.44,-951.17,340.82,0.05,3.29,-1.03,53.21,6139,0,82,-0.22051,13.3754,-79.4566,7059.15,7448.86,2182.03,-404.253,-88.8411,0
30725,756.6,760.83,763.13,759.7,760.07,141.11,-955.57,333.98,0.79,1.55,2.21,51.98,6146,0,82,-0.151936,13.6193,-77.9373,7052.35,7449.35,2112.66,-402.416,-90.4911,0
30759,756.56,760.81,763.16,759.7,760.06,141.6,-950.68,336.91,-1.25,-0.44,-0.95,53.02,6153,0,82,-0.559434,13.1797,-78.6807,6968.71,7443.91,2114.41,-403.391,-88.5697,0
30792,756.62,760.77,763.06,759.69,760.04,138.18,-959.47,333.5,0.84,1.15,-2.73,50.88,6159,0,82,-0.511118,13.4328,-79.3588,7125.36,7381.83,2054.54,-404.981,-89.7893,0
30826,756.67,760.78,763.11,759.59,760.04,136.23,-948.24,340.33,1.26,0.9,-0.5,53.07,6166,0,82,-0.473062,13.2198,-78.7406,6933.15,7456.76,2090.23,-403.3,-88.052,0
30860,756.66,760.72,763.07,759.66,760.03,138.18,-959.47,324.22,-0.8,0.4,-1.97,51.6,6173,0,82,-0.62665,13.6697,-79.533,7080.09,7423.14,2031.45,-404.666,-89.0201,0
30893,756.61,760.77,763.15,759.67,760.05,130.86,-952.15,339.84,1.44,0.54,-2.5,53.43,6180,0,82,-0.397879,13.0793,-78.9546,6995.75,7450.34,2139.77,-403.637,-88.6063,0
30927,756.6,760.78,763.16,759.6,760.03,133.3,-946.78,325.68,1.46,0.53,-1.25,54.49,6186,0,82,-0.190127,13.1316,-79.7452,7007.76,7409.54,2189.51,-405.085,-87.8777,0
30963,756.55,760.74,763.05,759.65,760,148.44,-951.66,329.1,0.59,-2.34,1.05,51.6,6194,0,82,-0.4759,13.1606,-78.0739,6926.35,7437.26,2103.84,-402.741,-88.7135,0
30997,756.62,760.83,763.16,759.62,760.06,133.79,-941.41,340.82,1.75,0.74,0.66,53.87,6200,0,82,-0.133878,13.2356,-79.2408,6953.79,7481.32,2069,-403.587,-87.7551,0
31030,756.65,760.75,763.16,759.57,760.03,140.62,-951.66,333.5,1.46,-1.3,-1.5,55.27,6207,0,82,-0.30804,13.4902,-79.9728,7067.11,7449.87,2219.14,-404.845,-88.3684,0
31064,756.65,760.78,763.1,759.61,760.03,133.79,-957.03,334.96,-1.01,0.29,0.18,52.8,6214,0,82,-0.594702,13.6328,-79.0014,7033.24,7464.73,2068.39,-403.509,-89.0268,0
31098,756.6,760.75,763.07,759.64,760.01,141.6,-958.5,332.52,0.05,-1.39,-0.7,51.95,6221,0,82,-0.297219,13.5817,-79.8762,6994.49,7453.52,2234.25,-404.687,-87.5657,0
31132,756.64,760.73,763.13,759.59,760.02,141.6,-955.08,326.17,-0.93,2.9,1.54,54.2,6227,0,82,-0.56762,13.7101,-78.5283,7041.83,7497.23,2171.11,-402.527,-89.6763,0
31166,756.66,760.79,763.11,759.6,760.04,141.6,-963.38,329.1,-2.51,0.19,1.01,53.05,6234,0,82,-0.261622,13.9228,-79.5935,7163.52,7408.49,2224.61,-404.921,-90.0013,0
31200,756.67,760.83,763.13,759.61,760.06,131.84,-939.94,336.43,1.16,0.41,-0.99,52.88,6241,0,82,-0.390002,13.3318,-79.3027,6907.79,7454.35,2159.63,-403.995,-87.1167,0
31234,756.64,760.83,763.11,759.63,760.05,137.7,-936.52,339.84,-1.73,1.18,0.54,52.52,6248,0,82,-0.120439,13.412,-79.2769,6990,7510.09,2242.87,-403.267,-88.1718,0
31268,756.66,760.82,763.1,759.67,760.06,137.21,-939.94,333.5,1.85,0.12,1.25,51.53,6255,0,82,-0.452475,13.5323,-79.5523,7035.63,7457.29,2188.59,-404.259,-88.4402,0
31302,756.7,760.76,763.15,759.62,760.06,137.21,-953.61,327.64,0.69,1.19,0.43,53.99,6261,0,82,-0.571317,13.4387,-78.9431,7021.16,7502.05,2149.45,-402.968,-88.9399,0
31337,756.63,760.79,763.14,759.69,760.06,132.81,-948.24,326.17,-0.34,-0.41,0.79,52.59,6268,0,82,-0.527579,13.7085,-79.7492,7049.83,7475.05,2210.92,-404.268,-88.3998,0
31373,756.66,760.81,763.12,759.67,760.07,126.46,-945.8,312.5,0.05,2.85,1.87,52.11,6276,0,82,-0.432573,13.46,-78.9194,6951.63,7441.68,2167.95,-403.706,-88.0838,0
31407,756.64,760.84,763.09,759.69,760.06,146.48,-951.17,339.84,1.22,1.82,0.25,50.89,6282,0,82,-0.18239,13.537,-79.5651,7045.28,7432.63,2232.2,-404.584,-88.5471,0
31441,756.62,760.78,763.15,759.62,760.04,128.91,-952.15,335.94,0.07,0.63,-2.52,54.06,6289,0,82,-0.303467,13.4641,-78.8041,6958.34,7503.78,2191.75,-402.777,-88.308,0
31475,756.59,760.84,763.14,759.73,760.08,143.55,-937.99,331.05,1.63,1.38,1.1,51.64,6296,0,82,-0.425063,13.2878,-78.8446,7067.6,7468.24,2158.51,-403.279,-89.6395,0
31509,756.61,760.83,763.16,759.63,760.06,132.81,-951.66,323.73,-1.1,2.04,-2.08,53.59,6303,0,82,-0.520101,13.3564,-79.8567,6974.74,7427.41,2163.03,-404.991,-87.3409,0
31545,756.65,760.79,763.09,759.68,760.05,131.35,-954.1,329.1,-0.31,2.56,1.33,51.34,6310,0,82,-0.540021,13.4046,-79.1469,6913.84,7436.1,2228.55,-404.046,-87.3549,0
31579,756.63,760.76,763.13,759.67,760.05,131.35,-956.54,337.89,0.71,-0.11,-1.53,52.9,6317,0,82,-0.50696,13.2942,-79.4823,6834.98,7454.38,2234.73,-404.213,-85.9941,0
31613,756.67,760.76,763.14,759.59,760.04,137.21,-951.17,322.75,1.73,0.51,0.95,54.24,6324,0,82,-0.352874,13.3978,-78.8806,7000.77,7481.11,2224.09,-403.159,-88.7503,0
31647,756.62,760.8,763.17,759.68,760.07,148.44,-928.22,321.29,0.83,0.88,-1.11,53.28,6330,0,82,-0.302273,13.5526,-79.6539,7015.8,7437.39,2231.14,-404.629,-88.0781,0
31681,756.61,760.84,763.12,759.69,760.07,145.51,-958.01,331.54,-0.53,2.41,-0.7,51.68,6337,0,82,-0.324596,13.6574,-78.3889,7088.4,7476.82,2227,-402.619,-90.4262,0
31715,756.64,760.77,763.16,759.74,760.08,150.88,-956.54,335.45,0.74,2.62,1.02,52.57,6344,0,82,-0.147912,13.4366,-78.6653,6953.44,7514.07,2254.1,-402.479,-88.394,0
31750,756.64,760.79,763.13,759.72,760.07,140.62,-942.87,331.54,1.15,0.4,3.24,51.9,6351,0,82,-0.477955,13.8092,-79.4553,7105.51,7456.18,2243.98,-404.158,-89.4289,0
31785,756.68,760.79,763.14,759.68,760.07,131.84,-954.59,342.77,1.14,1.1,0.4,52.56,6358,0,82,-0.490752,13.5127,-79.138,6956.23,7473.14,2256.89,-403.568,-87.8981,0
31820,756.67,760.82,763.1,759.77,760.09,139.16,-952.15,335.45,-0.28,-0.3,0.98,50.08,6365,0,82,-0.25605,13.427,-79.5243,7005.44,7443.59,2299.29,-404.399,-88.0917,0
31854,756.68,760.81,763.15,759.69,760.08,138.18,-935.55,333.98,0.79,1.49,-0.29,52.4,6372,0,82,-0.326197,13.2716,-78.481,6945.68,7508.69,2387.99,-402.324,-88.5034,0
31888,756.67,760.84,763.13,759.76,760.1,133.3,-951.17,330.57,0.16,1.97,0.56,50.76,6379,0,82,-0.322979,13.304,-79.6621,6918.83,7500.14,2326.15,-403.851,-86.8521,0
31922,756.67,760.84,763.17,759.68,760.09,144.53,-956.05,322.75,0.43,1.24,-2.02,52.97,6385,0,82,-0.392765,13.4486,-78.7475,7064.4,7470.27,2256.58,-403.136,-89.7084,0
31956,756.68,760.84,763.12,759.66,760.08,148.44,-948.24,336.43,0.83,0.05,1.89,51.83,6392,0,82,-0.141294,13.2425,-79.1211,6931.82,7445.74,2144.97,-403.894,-87.6103,0
31990,756.67,760.76,763.11,759.68,760.06,131.84,-964.84,340.82,-0.57,1.4,1.03,51.98,6399,0,82,-0.175807,13.409,-79.1266,7037.81,7472.83,2181.56,-403.558,-88.9447,0
32024,756.63,760.77,763.06,759.66,760.03,137.21,-949.71,339.36,0.73,0.6,-1.17,51.25,6406,0,82,-0.188025,13.0424,-78.4606,6953.55,7503.39,2239.62,-402.366,-88.6256,0
32058,756.58,760.81,763.09,759.71,760.05,130.37,-957.52,332.52,-0.08,0.33,-1.85,51.06,6413,0,82,-0.113365,13.1508,-79.1206,6938.14,7472.84,2136.56,-403.55,-87.6888,0
32093,756.62,760.77,763.12,759.76,760.07,134.28,-947.27,333.5,-2.23,1.24,-2.81,51.36,6420,0,82,-0.102752,13.3127,-78.9143,6925.31,7494.68,2268.98,-403.028,-87.7577,0
32127,756.7,760.83,763.17,759.76,760.11,148.93,-951.17,330.08,-0.14,1.35,-0.92,51.8,6426,0,82,-0.38217,13.3189,-78.9271,6973.09,7497.84,2137.76,-403.002,-88.3493,0
32161,756.68,760.86,763.13,759.68,760.09,156.25,-946.78,335.94,2.08,1.24,-0.05,51.82,6433,0,82,-0.0830439,13.678,-78.8174,7036,7428.73,2174.97,-403.746,-89.273,0
32197,756.66,760.87,763.2,759.7,760.11,147.46,-937.99,337.4,1.82,0.11,0.52,53.01,6440,0,82,-0.156383,13.457,-79.1762,7035.59,7440.73,2117.45,-404.023,-88.8594,0
32231,756.66,760.89,763.19,759.76,760.13,142.58,-943.36,331.54,0.69,2.88,-0.54,51.88,6447,0,82,0.00114874,13.2931,-79.3057,6942.83,7383.24,2161.98,-404.901,-87.5455,0
32265,756.69,760.85,763.21,759.72,760.12,146,-937.01,327.64,-0.62,0.53,1.76,53.35,6454,0,82,0.120525,13.6432,-78.9153,6938.29,7434.68,2009.29,-403.789,-87.9217,0
32299,756.68,760.83,763.21,759.7,760.11,148.44,-951.66,338.87,1.49,0.41,0.79,53.56,6461,0,82,0.14197,13.7109,-79.7603,7032.17,7417,2097.51,-405.009,-88.1664,0
32333,756.66,760.85,763.18,759.71,760.1,129.39,-958.98,343.75,0.28,0.82,0.99,52.83,6468,0,82,-0.228627,13.9378,-79.0025,7048.19,7411.42,2138.37,-404.187,-89.2139,0
32366,756.63,760.77,763.19,759.71,760.08,130.86,-954.59,328.12,0.48,1.79,-1.76,53.76,6474,0,82,-0.0379064,13.4341,-79.3894,6900.01,7459.73,2134.62,-404.036,-86.9122,0
32400,756.65,760.81,763.15,759.68,760.07,146.97,-949.71,337.89,1.18,2.47,1.27,52.84,6481,0,82,-0.0840942,13.5551,-78.9546,6992.02,7463.86,2186.09,-403.463,-88.5565,0
32434,756.62,760.81,763.15,759.7,760.07,135.25,-944.34,339.36,-1.66,2.25,3.76,52.57,6488,0,82,-0.266337,13.8366,-78.9117,7027.58,7458.9,2097.58,-403.477,-89.0587,0
32467,756.62,760.93,763.15,759.73,760.11,139.16,-950.68,333.01,-1.73,0.4,-1.02,51.21,6494,0,82,-0.0142289,13.5984,-78.725,6887.29,7473.03,2163.11,-403.074,-87.4839,0
32502,756.68,760.82,763.14,759.71,760.09,134.77,-955.08,333.98,1.57,1.61,-1.06,51.72,6501,0,82,-0.00970995,13.627,-78.4345,6896.97,7400.7,2193.51,-403.645,-87.9332,0
32536,756.59,760.83,763.13,759.69,760.06,149.9,-950.2,332.52,1.11,0.62,-0.88,52.24,6508,0,82,-0.157549,13.6642,-79.4086,6976.85,7412.74,2147.88,-404.65,-87.8602,0
32570,756.64,760.76,763.18,759.7,760.07,135.25,-951.17,334.47,0.58,0.39,1.24,53.62,6515,0,82,-0.16423,13.1382,-78.7048,6933.26,7384.79,2077.11,-404.171,-88.0921,0
32606,756.64,760.86,763.19,759.71,760.1,141.6,-937.5,312.5,1.19,0.42,-0.42,53.12,6522,0,82,-0.143155,13.2946,-78.7198,7077.28,7449.01,2021.85,-403.373,-89.9043,0
32640,756.65,760.9,763.17,759.62,760.09,131.35,-959.96,321.29,0.08,-1.08,1.59,53.36,6529,0,82,0.0335604,13.2186,-78.2753,6927.06,7452.31,2195.75,-402.792,-88.4998,0
32673,756.62,760.77,763.14,759.73,760.06,144.04,-938.96,331.54,0.57,0.59,0.33,52.12,6536,0,82,0.241861,13.7119,-79.1047,7081.84,7420.22,2131.33,-404.197,-89.5253,0
32707,756.67,760.9,763.17,759.7,760.11,139.16,-951.17,334.47,-0.72,3.64,1.12,52.21,6542,0,82,-0.095648,13.6164,-79.3685,7059.59,7389.58,2134.4,-404.895,-88.9472,0
32741,756.63,760.82,763.14,759.73,760.08,151.86,-953.12,327.15,1,2.62,-0.76,51.65,6549,0,82,0.291834,13.4414,-79.0233,7141.08,7363.88,2085.28,-404.814,-90.3665,0
32775,756.65,760.76,763.18,759.73,760.08,135.25,-949.22,332.52,-0.13,-0.53,-1.71,53.16,6556,0,82,0.0959489,13.1035,-78.4364,6972.93,7420.88,2076.56,-403.389,-88.8986,0
32809,756.64,760.85,763.14,759.75,760.1,130.86,-945.31,320.31,0.73,0.82,0.96,51.01,6563,0,82,0.271168,12.9264,-78.1261,6957.34,7311.46,2091.28,-404.415,-89.0525,0
32843,756.68,760.79,763.16,759.72,760.09,145.02,-944.82,336.43,-0.46,-0.23,0.63,52.52,6570,0,82,0.342555,13.4106,-78.7662,7136.85,7336.36,1927.24,-404.859,-90.6072,0
32878,756.59,760.89,763.1,759.64,760.05,135.25,-948.73,337.4,-0.17,0.67,1.28,51.58,6577,0,82,0.00471957,13.1082,-78.1212,7065.16,7343.47,2071.51,-403.996,-90.4361,0
32912,756.64,760.87,763.18,759.67,760.09,135.74,-965.33,336.43,0.21,3.18,-1.08,53.15,6583,0,82,-0.116435,13.3924,-78.2642,6977.21,7341.24,2059.31,-404.199,-89.1493,0
32946,756.72,760.83,763.1,759.71,760.09,138.18,-946.29,331.05,1.76,2.37,0.6,50.66,6590,0,82,0.0118356,13.2207,-78.46,6974.22,7351.21,1994.08,-404.306,-88.8883,0
32980,756.68,760.81,763.19,759.65,760.08,152.34,-954.59,324.71,2.6,1.47,-0.57,54,6597,0,82,-0.264024,13.142,-78.2452,6968.38,7394.03,2064.2,-403.502,-89.0583,0
33016,756.7,760.81,763.19,759.64,760.09,132.32,-957.52,340.33,1.27,-0.31,-1.6,54.26,6604,0,82,0.161868,12.9612,-79.0967,6893.79,7321.89,2079.74,-405.431,-87.1548,0
33050,756.67,760.77,763.16,759.79,760.1,132.81,-960.94,335.45,1.04,1.78,-1.97,51.57,6611,0,82,-0.13219,13.5861,-77.4338,7024.91,7369.21,1996.58,-402.832,-90.725,0
33084,756.64,760.8,763.12,759.81,760.09,139.16,-940.92,333.98,1.29,-0.35,-2.37,50.27,6618,0,82,-0.12142,13.2318,-78.6611,7016.67,7358.44,2050.05,-404.454,-89.2015,0
33118,756.66,760.77,763.2,759.65,760.07,139.16,-948.73,334.96,0.47,0.77,2.88,54.67,6625,0,82,-0.0698778,13.6359,-78.0529,7055.47,7314.88,2073.03,-404.281,-90.3956,0
33152,756.73,760.81,763.17,759.74,760.11,139.65,-948.73,317.38,-0.36,0.5,1.46,52.07,6631,0,82,-0.161085,13.2209,-77.9565,6946.48,7351.78,2079.07,-403.694,-89.1074,0
33187,756.61,760.8,763.13,759.72,760.06,137.21,-951.17,326.66,0.14,0.9,1.73,51.82,6638,0,82,-0.196446,13.1902,-78.891,7029.85,7382.09,1982.02,-404.426,-89.1092,0
33221,756.62,760.77,763.19,759.68,760.07,144.04,-956.05,320.31,-1.88,1.76,1.93,54.1,6645,0,82,0.0229177,13.3827,-77.9732,6992.59,7419.81,2074.35,-402.84,-89.6793,0
33255,756.68,760.82,763.16,759.72,760.1,139.65,-956.54,324.71,1.73,0.36,1.95,52.18,6652,0,82,-0.0544165,13.3157,-78.9722,6976.26,7371.76,2037.15,-404.651,-88.3372,0
33289,756.62,760.89,763.13,759.76,760.1,139.65,-948.73,330.08,0.24,3.86,2.15,50.52,6659,0,82,0.142046,13.2289,-78.2305,7008.2,7427,2038.26,-403.063,-89.5841,0
33323,756.57,760.85,763.13,759.69,760.06,144.04,-952.15,334.96,1.11,1.21,1.56,52.04,6666,0,82,-0.235626,12.9866,-78.928,6977.73,7356.86,1991.16,-404.79,-88.4057,0
33357,756.72,760.95,763.2,759.72,760.15,138.18,-945.8,336.43,0.48,-0.68,0.15,52.18,6672,0,82,-0.243684,13.0682,-78.4898,6955.51,7396.99,2056.88,-403.758,-88.6193,0
33391,756.6,760.87,763.16,759.71,760.08,134.28,-960.45,327.15,1.85,2.24,-3.45,52.3,6679,0,82,-0.126023,12.9742,-78.3846,6898.5,7397.31,2083.43,-403.628,-88.0093,0
33429,756.61,760.82,763.16,759.76,760.09,141.11,-950.68,330.08,1.81,1.02,1.27,51.84,6687,0,82,-0.205658,13.1065,-78.8988,6896.22,7371.08,2049.38,-404.574,-87.406,0
33463,756.61,760.84,763.2,759.73,760.09,134.28,-946.78,334.47,0.98,-0.26,0.96,53.14,6694,0,82,-0.522753,13.5122,-78.0505,6989.54,7401.15,2174.3,-403.174,-89.5508,0
33497,756.66,760.85,763.21,759.79,760.13,144.53,-948.73,331.54,0.21,-0.92,-1.17,52.14,6700,0,82,-0.536057,13.3006,-79.077,7053.97,7329.99,2076.72,-405.306,-89.2047,0
33531,756.67,760.83,763.13,759.68,760.08,154.3,-950.68,325.2,0.98,2.41,0.13,51.87,6707,0,82,0.14689,13.2075,-77.875,6872.67,7373.2,2107.53,-403.319,-88.2518,0
33565,756.69,760.91,763.2,759.67,760.12,134.28,-961.91,331.54,0.46,2.47,-2.93,53.14,6714,0,82,-0.186197,12.925,-78.2065,6893.76,7369.42,2124.37,-403.77,-88.1485,0
33599,756.68,760.85,763.19,759.71,760.11,136.72,-946.29,332.52,1.77,1.81,1.11,52.82,6721,0,82,-0.0948495,12.8595,-78.5544,6912.05,7388.9,2125.71,-403.937,-87.9972,0
33634,756.63,760.88,763.24,759.72,760.12,141.6,-954.1,322.75,3.13,1.85,-0.49,54.05,6728,0,82,-0.0916382,12.7409,-78.0747,6923,7413.6,2158.9,-403.044,-88.6718,0
33668,756.61,760.82,763.2,759.71,760.09,136.23,-967.29,329.59,-0.6,-1.54,0.89,53.67,6735,0,82,-0.38139,13.2413,-79.1314,6998.41,7322,2139.71,-405.467,-88.438,0
33702,756.64,760.82,763.2,759.76,760.11,144.04,-942.87,335.45,-0.7,1.43,-0.72,52.76,6741,0,82,-0.286794,12.9932,-78.0398,6942.79,7400.94,2075.53,-403.165,-88.9647,0
33736,756.67,760.86,763.24,759.78,760.14,138.67,-957.03,327.64,-0.5,-0.18,-1.67,52.96,6748,0,82,-0.0130457,12.9851,-78.8685,6900.92,7340.38,2172.35,-404.928,-87.4975,0
33770,756.65,760.87,763.25,759.78,760.14,142.09,-950.68,334.96,-0.1,0.75,2.38,53.1,6755,0,82,-0.118905,13.0386,-77.6711,6917.99,7349.05,2180.57,-403.382,-89.0657,0
33804,756.66,760.9,763.21,759.71,760.12,146.97,-951.17,335.45,0.53,5.04,-2.53,53.16,6762,0,82,-0.170988,13.2825,-78.0589,6957.28,7406.36,2187.06,-403.118,-89.1269,0
33840,756.67,760.84,763.18,759.74,760.11,141.11,-960.94,329.1,2.43,1.39,2.63,52.29,6769,0,82,-0.131305,13.2799,-77.9516,6980.17,7408.81,2154.62,-402.955,-89.5451,0
33874,756.71,760.83,763.17,759.82,760.13,134.28,-945.31,332.52,-0.08,1.41,-0.2,50.92,6776,0,82,-0.278037,13.0585,-78.2179,6841.59,7397.92,2154.16,-403.419,-87.4685,0
33908,756.64,760.88,763.18,759.79,760.12,139.16,-966.31,338.38,-0.69,1.08,1.18,51.44,6783,0,82,-0.20334,13.12,-78.5904,6902.19,7357.07,2170.22,-404.387,-87.8256,0
33942,756.59,760.92,763.2,759.78,760.12,143.55,-942.38,327.15,-0.25,3.19,0.21,51.97,6789,0,82,-0.295596,13.0899,-77.676,6935.32,7405.04,2145.7,-402.666,-89.2848,0
33976,756.56,760.91,763.22,759.68,760.09,143.07,-957.52,333.98,-1.97,2.3,-3.4,53.84,6796,0,82,-0.417873,13.0407,-78.3723,6926.96,7408.25,2172.72,-403.474,-88.3852,0
34010,756.6,760.85,763.18,759.73,760.09,141.6,-949.22,330.57,0.65,2.71,-1.57,52.7,6803,0,82,-0.406166,13.3115,-78.1514,7069.55,7371.95,2104.89,-403.671,-90.4589,0
34043,756.64,760.93,763.22,759.77,760.14,138.67,-946.29,326.66,-2.65,0.98,-0.56,52.32,6810,0,82,-0.13041,13.0065,-78.7322,6919.25,7340.46,2188.29,-404.767,-87.8828,0
34077,756.75,760.85,763.22,759.67,760.12,137.21,-952.15,330.57,-0.99,-0.82,1.69,53.9,6816,0,82,-0.130657,13.0569,-78.4187,7035.59,7350.8,2148.79,-404.262,-89.7174,0
34110,756.64,760.89,763.25,759.63,760.1,143.07,-951.66,328.61,0.82,-0.18,-1.02,55.25,6823,0,82,0.0291135,12.9517,-77.9308,6956.44,7357.94,2150.92,-403.582,-89.2631,0
34144,756.68,760.86,763.24,759.68,760.12,136.23,-951.66,332.52,0.49,-0.89,-2.01,54.45,6830,0,82,-0.124915,12.8323,-78.8938,6869.33,7412.68,2084.29,-404.042,-87.0706,0
34178,756.67,760.88,763.26,759.72,760.13,142.09,-943.36,329.59,1.97,0.14,0.3,54.4,6837,0,82,-0.296559,13.124,-77.9693,7002.49,7401.38,2189.46,-403.072,-89.8095,0
34214,756.68,760.86,763.26,759.65,760.11,138.18,-944.34,331.54,-0.76,1.63,1.37,55.56,6844,0,82,-0.419569,13.1745,-78.4196,7040.11,7387.1,2136.47,-403.8,-89.7765,0
34248,756.69,760.9,763.25,759.74,760.14,141.6,-963.38,334.96,1.39,0.32,-0.31,53.44,6851,0,82,-0.372815,12.8623,-77.9503,6908.56,7428.39,2150.99,-402.703,-88.6272,0
34281,756.76,760.96,763.26,759.7,760.17,134.77,-945.31,331.54,-0.04,1.3,0.79,53.69,6857,0,82,-0.258458,13.14,-78.396,6941.86,7379.99,2147.67,-403.862,-88.5495,0
34315,756.71,760.92,763.27,759.74,760.16,126.46,-957.52,330.57,-1.06,1.09,-1.82,53.76,6864,0,82,-0.258712,13.0585,-78.3448,6912.58,7364.75,2117.39,-403.995,-88.2297,0
34349,756.75,760.95,763.2,759.75,760.16,139.16,-957.03,329.59,0.7,0.7,1.23,51.47,6871,0,82,-0.129384,12.9481,-78.2382,6958.36,7346.04,2221.36,-404.106,-88.9382,0
34384,756.75,760.96,763.29,759.77,760.19,132.32,-949.71,336.91,0.44,0.37,2.38,53.25,6878,0,82,-0.141398,12.7582,-78.5543,6868.2,7393.74,2191.22,-403.877,-87.4315,0
34418,756.65,760.95,763.19,759.8,760.15,152.34,-952.64,333.98,0.76,0.95,2.05,50.93,6885,0,82,-0.033232,13.0688,-77.7472,7047.08,7352.76,2202.59,-403.428,-90.6413,0
34453,756.7,760.89,763.22,759.76,760.14,138.67,-957.03,330.08,-2.98,0.5,1.69,52.55,6892,0,82,-0.179055,13.1315,-78.9921,6960.46,7360.07,2184.74,-404.825,-88.1141,0
34487,756.71,760.92,763.32,759.74,760.17,149.41,-958.98,325.2,0.21,1.12,1.14,55.03,6898,0,82,-0.169805,12.7982,-77.1798,6917,7356.66,2140.75,-402.68,-89.6206,0
34521,756.63,761.01,763.23,759.79,760.16,135.25,-948.73,330.08,-0.85,0.53,-0.38,51.76,6905,0,82,-0.277757,13.1006,-78.1207,7017.07,7373.18,2172.89,-403.617,-89.8233,0
34555,756.71,760.93,763.23,759.81,760.17,135.25,-938.48,331.54,-0.11,0.88,1.91,51.75,6912,0,82,0.151935,13.0071,-78.9098,7048.93,7307.42,2171.89,-405.395,-89.3288,0
34589,756.65,760.89,763.24,759.79,760.14,135.74,-960.94,339.84,-0.04,0.56,2.55,52.8,6919,0,82,0.0324153,13.0109,-78.1547,6939.09,7401.22,2116.77,-403.3,-88.7863,0
34625,756.68,760.83,763.22,759.67,760.1,146,-940.92,330.57,1.42,0.51,0.56,54.43,6926,0,82,-0.0159436,12.8941,-78.3467,6953.69,7391.05,2131.7,-403.662,-88.7549,0
34659,756.66,760.89,763.22,759.84,760.15,141.6,-943.85,335.94,-0.82,1.51,0.42,51.36,6933,0,82,0.350972,12.9144,-78.271,6881.34,7352.64,2196.44,-404.062,-87.9161,0
34693,756.65,760.89,763.29,759.79,760.15,138.67,-954.59,328.12,0.88,1.81,0.64,54.05,6940,0,82,0.0325627,12.7808,-78.6243,6947.5,7368.18,2060.77,-404.286,-88.3655,0
34727,756.67,760.98,763.25,759.8,760.18,126.46,-944.34,329.1,0.5,2.89,2.18,52.06,6946,0,82,0.340533,13.0498,-77.2502,6909.63,7393.15,2084.18,-402.295,-89.4432,0
34762,756.65,760.88,763.22,759.83,760.15,136.23,-956.54,328.61,0.23,-0.99,-1.4,51.61,6953,0,82,0.606596,12.8281,-78.5929,6943.64,7402.2,2160.83,-403.816,-88.3493,0
34796,756.75,760.9,763.22,759.77,760.16,142.58,-938.96,337.4,1.74,1.05,-2.56,52.16,6960,0,82,0.186703,13.0739,-78.3406,6978.08,7389.71,2128.19,-403.672,-89.0722,0
34830,756.78,761.01,763.23,759.76,760.2,132.81,-954.1,335.45,-1.21,2.76,-0.73,51.59,6967,0,82,-0.0688248,12.4447,-78.1205,6835.26,7369.25,2209.37,-403.668,-87.4962,0
34864,756.68,760.98,763.28,759.75,760.17,143.55,-954.59,333.5,-0.45,1.58,0.74,53.53,6974,0,82,-0.362146,12.9234,-79.2122,6959.56,7398.3,2173.5,-404.602,-87.8597,0
34898,756.75,760.95,763.22,759.81,760.18,129.88,-947.75,341.8,-0.34,1.51,0.08,51.16,6981,0,82,-0.254053,12.8136,-77.879,6990.27,7440.41,2240.9,-402.462,-89.7572,0
34932,756.67,760.93,763.22,759.77,760.15,146.48,-949.22,336.43,-0.09,-0.31,-0.15,52.18,6987,0,82,-0.0637088,12.9624,-78.4299,7033.11,7383.53,2261.64,-403.858,-89.6764,0
34966,756.71,760.93,763.23,759.76,760.15,147.95,-947.27,332.52,-1.57,3.38,0.25,52.38,6994,0,82,-0.423589,12.6061,-77.594,6900.81,7413.86,2149.18,-402.452,-88.9355,0
35001,756.74,760.98,763.28,759.78,760.19,136.23,-957.03,332.03,1.34,3.26,-1.06,52.75,7001,0,82,-0.281246,12.8264,-78.7205,7038.84,7382.39,2190.55,-404.22,-89.4138,0
35036,756.75,760.95,763.2,759.72,760.15,137.7,-958.98,332.03,-0.06,1.77,1.56,51.83,7008,0,82,-0.399523,12.7532,-78.6857,7003.73,7358.08,2185.65,-404.488,-89.0091,0
35070,756.73,760.96,763.2,759.73,760.15,133.79,-942.38,343.26,-1.13,0.62,1.01,51.9,7015,0,82,-0.21108,12.5886,-78.3916,6852.49,7437.31,2109.03,-403.126,-87.4133,0
35105,756.68,761.01,763.22,759.78,760.17,132.32,-954.59,340.82,-0.19,-0.17,2.51,51.23,7022,0,82,-0.0511338,12.7178,-79.1144,7026.17,7400.25,2215.09,-404.461,-88.81,0
35139,756.69,760.97,763.19,759.71,760.14,146,-955.08,326.17,-1.66,1.41,-1.27,51.77,7029,0,82,-0.239448,12.9492,-78.2291,6904.61,7429.87,2208.25,-403.024,-88.2614,0
35173,756.7,760.85,763.18,759.82,760.14,141.6,-952.64,339.84,1,1.03,0.6,50.96,7036,0,82,-0.342183,12.9944,-79.1205,7038.44,7362.54,2214.55,-404.944,-88.9564,0
35207,756.69,760.96,763.21,759.71,760.14,142.58,-950.2,334.47,1.21,0.69,2,52.57,7042,0,82,-0.411244,12.8406,-77.8839,6893.19,7433.13,2161.42,-402.561,-88.5062,0
35241,756.71,760.95,763.3,759.78,760.19,140.62,-965.82,327.15,-0.34,1.24,0.02,53.55,7049,0,82,-0.626669,12.771,-78.608,6953.63,7429.97,2130.91,-403.481,-88.4595,0
35275,756.76,760.94,763.27,759.72,760.17,137.21,-946.29,326.66,0.03,-0.59,-1.27,53.68,7056,0,82,-0.467249,12.6413,-79.0762,6884.18,7384.66,2203.96,-404.613,-87.0576,0
35311,756.74,760.97,763.29,759.82,760.21,141.11,-952.64,329.59,1.56,0.79,2.3,52.53,7063,0,82,-0.384337,12.8329,-78.5426,6954.3,7385.72,2088.28,-403.965,-88.5426,0
35345,756.73,760.97,763.29,759.78,760.19,127.93,-952.15,330.08,1.8,2.1,0.84,53.13,7070,0,82,-0.445736,13.0156,-78.9684,7046.31,7384.51,2140.36,-404.488,-89.2302,0
35379,756.69,760.9,763.29,759.75,760.16,136.23,-958.5,335.45,1.35,-1.27,-1.88,54.43,7077,0,82,-0.192617,12.8726,-78.3008,6987.31,7442.95,2127.07,-402.944,-89.2368,0
35413,756.73,760.91,763.29,759.79,760.18,138.18,-948.73,328.61,0.37,2.27,0.78,53.44,7084,0,82,-0.702164,12.7561,-79.0421,6915.45,7424.72,2288.53,-404.066,-87.4899,0
35449,756.72,760.92,763.22,759.86,760.18,142.09,-947.75,334.47,0.87,2.09,0.46,50.54,7091,0,82,-0.436811,12.9119,-78.3243,6981.5,7374.15,2193.01,-403.851,-89.1355,0
35483,756.67,760.98,763.27,759.87,760.2,146,-948.24,329.59,1.83,0.61,0.28,51.62,7098,0,82,-0.383819,12.6096,-78.8483,6906.05,7375.36,2148.7,-404.462,-87.5858,0
35518,756.68,760.96,763.3,759.82,760.19,145.02,-949.22,323.24,1.18,2.62,0.01,53.16,7105,0,82,-0.436775,13.0507,-78.7446,7054.53,7356.33,2194.12,-404.573,-89.5868,0
35552,756.72,761.01,763.21,759.89,760.21,137.7,-951.17,329.1,1.24,1.04,0.4,49.44,7111,0,82,-0.382066,12.6918,-78.4476,6922.82,7435.72,2091.25,-403.214,-88.2463,0
35586,756.75,760.98,763.29,759.79,760.2,141.6,-950.2,330.57,-0.12,3.69,-1.94,52.74,7118,0,82,-0.432831,12.8037,-78.794,6852.93,7349.02,2081.34,-404.73,-86.9694,0
35619,756.7,761.05,763.25,759.84,760.21,129.39,-965.33,341.31,-0.93,1.13,1.97,50.68,7125,0,82,-0.62613,12.8101,-78.14,6928.53,7393.42,2120.06,-403.382,-88.6659,0
35653,756.65,760.96,763.25,759.85,760.18,136.23,-949.71,334.96,1.09,0.38,0.37,51.66,7132,0,82,-0.508807,12.9915,-78.8151,6936.79,7383.04,2017.95,-404.325,-88.0134,0
35687,756.66,760.97,763.26,759.86,760.19,144.04,-948.24,318.85,-0.98,0.87,0.98,51.62,7138,0,82,-0.464877,12.8527,-77.4804,6932.45,7422.12,2092.73,-402.205,-89.4729,0
35720,756.68,760.94,763.23,759.8,760.16,142.09,-952.15,331.05,1.36,4.56,0.5,51.65,7145,0,82,-0.675744,12.6589,-78.5804,6917.48,7400.32,2123.32,-403.825,-88.0308,0
35754,756.74,760.9,763.27,759.84,760.19,132.81,-940.43,337.89,-1.29,1.97,-0.31,52.34,7152,0,82,-0.470583,12.8832,-78.3109,7030.91,7389.62,2121.36,-403.637,-89.7821,0
35787,756.72,760.94,763.29,759.8,760.19,127.44,-949.71,334.47,1.04,1.95,0.89,53.23,7158,0,82,-0.273818,12.8038,-78.0552,6857.5,7394.34,2209.3,-403.268,-87.8535,0
35822,756.68,760.95,763.3,759.87,760.2,154.79,-943.36,332.03,0.66,0.04,-1.15,52.47,7165,0,82,-0.33075,12.9502,-79.0674,6932.35,7441.06,2217.18,-403.888,-87.6749,0
35857,756.7,760.95,763.26,759.89,760.2,140.14,-945.31,321.29,1.32,1.89,3.79,51.2,7172,0,82,-0.610018,13.2938,-78.3644,7025.83,7379.47,2156.73,-403.83,-89.6541,0
35891,756.75,760.96,763.26,759.85,760.21,131.35,-947.27,317.87,-0.18,0.98,-1.98,51.43,7179,0,82,-0.312017,13.3315,-78.929,7094.62,7319.54,2193.7,-405.264,-89.885,0
35925,756.65,760.95,763.31,759.85,760.19,137.7,-947.27,331.54,1.73,4.53,0.58,53.05,7186,0,82,-0.412126,13.3277,-77.6107,6966.44,7373.74,2178.18,-402.99,-89.7644,0
35958,756.71,760.9,763.31,759.79,760.18,133.79,-949.22,325.68,-1.86,0.15,-0.6,54.09,7193,0,82,-0.303842,13.3495,-78.4317,7072.54,7359.78,2202.18,-404.163,-90.1741,0
35992,756.72,761.01,763.28,759.76,760.19,143.07,-944.82,328.12,2.93,1.03,-1.69,52.86,7199,0,82,-0.120024,13.259,-78.4704,7059.22,7397.73,2253.8,-403.725,-89.9603,0
36026,756.72,760.94,763.22,759.79,760.17,139.16,-946.29,323.73,0.3,0.07,0.75,51.65,7206,0,82,-0.459745,12.9742,-77.5771,7010.74,7474.27,2225.36,-401.653,-90.3714,0
36060,756.71,760.94,763.2,759.8,760.16,147.95,-952.15,335.45,1.29,1.07,-1.75,51.11,7213,0,82,-0.124238,12.9243,-77.7336,7007.66,7414.13,2209.98,-402.621,-90.1495,0
36094,756.81,760.93,763.26,759.82,760.21,139.65,-961.91,328.12,2.54,0.99,-1.3,51.75,7220,0,82,-0.611582,13.1236,-77.9856,7053.5,7408.85,2193.98,-402.997,-90.4443,0
36129,756.77,760.92,763.33,759.81,760.21,137.21,-949.71,328.61,0.81,1.82,0.08,53.91,7227,0,82,-0.536711,12.5506,-78.4091,6974.36,7402.17,2121.15,-403.595,-88.9486,0
36163,756.69,760.94,763.18,759.84,760.16,135.25,-943.85,339.36,2.73,2.65,1.89,50.04,7234,0,82,-0.295942,12.3756,-76.7329,6858.83,7415.11,2097.22,-401.361,-89.3832,0
36197,756.79,761.01,763.2,759.8,760.2,130.37,-950.2,325.2,-1.41,1.64,0.08,50.12,7240,0,82,-0.371735,12.9521,-78.2869,7004.54,7384.67,2117.4,-403.672,-89.4719,0
36231,756.75,760.99,763.24,759.81,760.2,141.11,-946.29,330.08,0.66,1.05,0.06,51.35,7247,0,82,-0.195146,12.557,-78.903,6961.23,7369.47,2084.54,-404.601,-88.2243,0
36269,756.78,760.98,763.31,759.75,760.2,137.7,-948.24,336.43,1.47,0.78,2.22,53.79,7255,0,82,-0.300673,12.6467,-78.2385,6919.54,7408.32,2058.74,-403.311,-88.4418,0
36303,756.72,761.02,763.26,759.81,760.2,138.67,-950.2,325.68,-0.08,2.6,-0.47,51.78,7262,0,82,-0.0429635,12.965,-79.0469,7065.56,7389.62,2021.7,-404.514,-89.3847,0
36337,756.8,760.96,763.25,759.78,760.2,134.77,-955.57,328.61,-0.18,-0.97,1.02,52.13,7268,0,82,-0.119335,13.0469,-78.6956,7049.77,7397.31,2041.25,-404.001,-89.5826,0
36371,756.74,761.05,763.28,759.8,760.22,137.7,-949.71,322.27,1.25,1.68,1.1,52.13,7275,0,82,-0.443017,12.7419,-79.1273,6874.52,7413.22,1982.99,-404.312,-86.8779,0
36405,756.75,760.94,763.31,759.84,760.21,127.93,-950.68,331.54,2.41,0.8,0.5,52.87,7282,0,82,-0.416965,12.6204,-77.4933,6830.62,7365.63,1976.26,-402.949,-88.1422,0
36439,756.75,761.02,763.31,759.78,760.21,148.44,-957.52,326.66,-2.53,1.11,-1.51,53.34,7289,0,82,-0.356825,12.8565,-78.807,6843.46,7337.47,1983.13,-404.892,-86.8388,0
36474,756.74,760.95,763.3,759.84,760.21,131.35,-953.12,349.61,0.41,2.73,2.06,52.58,7296,0,82,-0.364748,13.0054,-78.8094,6910.64,7373.09,2036.22,-404.443,-87.688,0
36508,756.77,760.96,763.25,759.78,760.19,141.6,-956.54,325.2,0.07,2.12,-0.09,52.17,7303,0,82,-0.408875,13.2484,-78.7847,7065.95,7384.67,2024.78,-404.268,-89.687,0
36542,756.8,760.96,763.29,759.86,760.23,136.72,-955.08,327.15,0.5,1.31,-1.34,51.89,7309,0,82,-0.170811,12.6417,-78.6183,6858.5,7345.06,2119.99,-404.573,-87.2379,0
36576,756.73,760.96,763.25,759.86,760.2,146.48,-948.73,323.24,1.45,-2.21,1.22,50.95,7316,0,82,-0.116064,13.0489,-77.8632,7005.57,7368.61,2039.51,-403.365,-89.9729,0
36610,756.77,761.02,763.29,759.91,760.25,120.12,-959.96,316.89,-0.08,-1.02,1.32,50.68,7323,0,82,-0.216868,12.7978,-79.2136,6908.4,7434.03,1983.53,-404.152,-87.212,0
36644,756.83,761.03,763.26,759.89,760.25,143.07,-946.78,325.68,1.68,2.04,-1.35,50.18,7330,0,82,-0.106721,12.6474,-77.4971,6896.78,7404.55,1926.85,-402.453,-88.9939,0
36680,756.76,761.03,763.27,759.88,760.24,142.09,-950.68,332.03,-0.01,0.34,3.28,50.62,7337,0,82,-0.128682,12.6106,-78.6655,6872.55,7374.15,2056.76,-404.257,-87.3676,0
36714,756.67,761.03,763.29,759.83,760.2,148.44,-942.38,335.45,-0.66,0.53,2.34,52.27,7344,0,82,-0.202454,13.121,-78.4023,7093.43,7417.57,2032.8,-403.391,-90.4754,0
36748,756.84,760.98,763.28,759.8,760.22,133.79,-959.96,324.71,-1.31,-1.74,-0.02,52.17,7351,0,82,-0.364924,13.0392,-78.1444,7000.08,7467.21,2176.65,-402.442,-89.5803,0
36783,756.77,760.98,763.29,759.82,760.22,136.72,-953.61,322.75,1.63,0.05,1.66,52.37,7358,0,82,-0.180934,13.2188,-80.0796,7154.19,7370.11,2099.66,-405.963,-89.3356,0
36817,756.8,760.98,763.28,759.8,760.22,129.88,-959.96,325.2,1.61,2.54,-2.27,52.27,7364,0,82,-0.298961,12.9522,-78.5587,6908.72,7422.08,2048.48,-403.521,-87.9442,0
36851,756.76,761.03,763.26,759.82,760.22,125.98,-948.73,325.68,0.66,0.56,0.56,51.21,7371,0,82,-0.149192,13.0524,-78.6771,6926.03,7439.71,2045.42,-403.439,-88.0298,0
36885,756.81,760.98,763.34,759.83,760.24,144.04,-955.08,331.05,2.38,-1.43,-1.22,53.16,7378,0,82,-0.124802,13.3868,-77.9637,7083.79,7454.91,2176.12,-402.38,-90.8596,0
36919,756.71,761.1,763.26,759.86,760.23,142.58,-947.75,327.15,0.19,2.16,1.37,50.31,7385,0,82,-0.17825,13.1742,-79.1289,6950.53,7387.79,2195.09,-404.636,-87.8382,0
36953,756.78,761.05,763.28,759.88,760.25,137.21,-956.54,329.59,-0.87,0.95,-0.47,50.7,7392,0,82,-0.50776,12.7739,-79.065,6977.23,7437.12,2025.01,-403.936,-88.2497,0
36987,756.76,761,763.29,759.9,760.24,148.93,-951.66,328.12,1.56,2.06,2.24,51.01,7398,0,82,-0.276218,12.5409,-78.2654,6913.58,7398.81,2125.59,-403.465,-88.3333,0
37022,756.72,760.97,763.24,759.82,760.19,146.48,-938.96,332.03,0.25,1.15,-1.51,51.29,7405,0,82,-0.153187,12.6698,-79.2981,6906.06,7380.75,2043.2,-404.924,-87.0888,0
37056,756.87,760.97,763.31,759.85,760.25,144.04,-948.24,333.98,1.95,0.97,1.54,52.11,7412,0,82,-0.36367,12.6268,-78.727,6883.63,7422.59,2040.01,-403.717,-87.4368,0
37092,756.77,760.93,763.36,759.88,760.24,149.41,-956.05,331.54,2.06,-0.11,-0.69,53.76,7419,0,82,-0.285714,12.8579,-79.5667,7045.62,7363.86,2106.71,-405.451,-88.5494,0
37126,756.73,760.99,763.27,759.81,760.2,151.37,-955.08,337.4,-0.5,0.67,-0.99,52.1,7426,0,82,-0.320796,12.9992,-78.3484,7022.15,7417.39,1936.76,-403.328,-89.6273,0
37160,756.74,761.04,763.32,759.83,760.23,140.14,-951.17,331.54,1.18,4.09,-0.95,52.7,7433,0,82,-0.143214,13.0749,-79.2473,6991.11,7334.68,2001.63,-405.446,-88.2197,0
37196,756.77,760.93,763.24,759.85,760.2,140.62,-953.61,331.05,0.76,0.68,2.46,51.11,7440,0,82,-0.0680453,13.1997,-79.6658,7067.44,7403.13,2001.58,-405.07,-88.713,0
37229,756.83,761.06,763.24,759.86,760.25,131.35,-954.59,335.94,0.9,0.95,0.97,49.58,7447,0,82,0.0303706,12.6538,-78.8642,6846.23,7393.31,2183.7,-404.253,-86.8105,0
37263,756.75,760.96,763.29,759.86,760.22,138.18,-947.75,336.43,-0.4,1.47,-1.27,52.01,7454,0,82,-0.201095,12.7559,-79.2406,7024.55,7404.93,2022.8,-404.551,-88.6473,0
37296,756.79,760.96,763.28,759.81,760.21,145.02,-956.54,350.59,0.31,1.4,1.64,52.5,7460,0,82,0.145379,13.0126,-78.7874,7060.7,7401.34,1953.72,-404.06,-89.6167,0
37330,756.8,761.02,763.33,759.88,760.26,129.39,-948.24,324.71,1.18,1.38,1.27,52.13,7467,0,82,-0.22302,12.4628,-79.0159,6830.81,7433.3,1925.74,-403.926,-86.4476,0
37363,756.74,761.07,763.3,759.87,760.25,137.21,-955.08,320.8,0.66,2.41,0.32,51.35,7474,0,82,-0.232872,12.5169,-77.8706,6840.54,7429.02,1986.81,-402.597,-87.8433,0
37397,756.8,761.06,763.28,759.93,760.27,134.28,-954.1,330.57,-1.55,3.44,1.24,49.67,7480,0,82,-0.051504,12.6331,-79.0974,6868.84,7448.05,2026.23,-403.837,-86.8403,0
37431,756.87,760.99,763.37,759.86,760.27,146,-942.38,325.68,-0.27,1.29,-0.31,53.35,7487,0,82,-0.225337,12.9403,-79.2378,7037.25,7366.15,2022.57,-405.037,-88.8121,0
37467,756.86,760.99,763.33,759.98,760.29,139.65,-958.98,337.4,1.02,2.21,0.08,50.66,7494,0,82,-0.194059,13.1345,-79.2571,7063.05,7418.59,2136.02,-404.398,-89.116,0
37501,756.87,761.08,763.3,759.85,760.27,129.88,-953.12,315.92,0.02,-0.93,0.88,51.01,7501,0,82,-0.167671,13.3138,-79.7973,7083.81,7400.62,2111.9,-405.257,-88.7725,0
37534,756.87,761.06,763.34,759.89,760.29,145.51,-938.96,336.91,-0.5,-2.21,-0.4,51.62,7508,0,82,-0.215606,13.1694,-78.3002,6935.89,7431.59,2222.42,-403.088,-88.5813,0
37568,756.84,761.01,763.27,759.91,760.26,142.58,-947.75,338.38,-0.64,0.79,0.02,50.1,7515,0,82,-0.27737,12.972,-79.2203,6872.9,7384.66,2202.88,-404.784,-86.7567,0
37602,756.74,761.07,763.3,759.87,760.24,136.72,-961.43,329.1,-0.59,3.41,-0.81,51.41,7521,0,82,0.057228,12.8449,-79.0154,6797.89,7450.52,2136.56,-403.705,-86.0372,0
37636,756.82,761,763.34,759.85,760.25,143.07,-953.12,332.03,0.11,2.09,0.75,53,7528,0,82,0.43413,13.1235,-78.7205,7002.66,7386.39,2200.27,-404.169,-88.9558,0
37670,756.78,761.12,763.33,759.83,760.26,146.97,-955.57,337.89,0.15,1.54,-0.69,52.15,7535,0,82,0.0478243,13.3151,-79.7067,6908.07,7422.27,2157.8,-404.88,-86.6685,0
37704,756.78,761.03,763.36,759.88,760.26,142.09,-949.22,326.66,-1.01,-1.28,1.89,52.95,7542,0,82,-0.165632,13.4834,-78.6718,7030.53,7470.81,2148.68,-403.038,-89.3657,0
37738,756.8,761.08,763.36,759.93,760.29,134.77,-944.82,332.52,-0.28,0.27,-1.5,51.65,7549,0,82,-0.0909647,13.0447,-79.4345,6983.07,7355.57,2150.17,-405.401,-87.9093,0
37773,756.79,761.05,763.34,759.98,760.29,128.42,-949.71,333.98,0.49,0.85,-0.45,50.65,7556,0,82,0.172331,13.4759,-79.1262,7113.41,7409.13,2155.66,-404.36,-89.8995,0
37807,756.79,761.06,763.31,759.93,760.27,141.6,-960.45,325.2,0.45,1.14,-0.18,50.59,7562,0,82,0.276543,13.1648,-78.7261,6977.59,7390.35,2205.75,-404.125,-88.6315,0
37841,756.75,761.07,763.39,759.9,760.28,132.81,-951.66,336.91,0.68,0.85,0.08,53.03,7569,0,82,0.281747,13.2572,-78.7824,6889.98,7412,2275.29,-403.912,-87.4667,0
37877,756.78,761.1,763.33,759.83,760.26,142.58,-945.31,333.98,0.18,1.08,1.34,52.18,7576,0,82,-0.0305919,13.5831,-79.2356,7096.97,7368.99,2154.16,-404.999,-89.568,0
37911,756.78,761.08,763.31,759.87,760.26,128.91,-949.71,330.08,-0.08,1.8,-0.72,51.18,7583,0,82,0.129634,13.5914,-79.5381,6955.93,7424.54,2135.05,-404.654,-87.454,0
37945,756.83,761.07,763.31,759.91,760.28,149.9,-954.1,328.12,0.38,2.31,4.25,50.72,7590,0,82,-0.109618,13.6674,-78.6178,7121.83,7387.89,2141.41,-404.028,-90.5892,0
37979,756.79,761.08,763.34,759.91,760.28,157.71,-958.01,326.66,-0.1,-0.07,0.78,51.49,7597,0,82,0.141123,13.882,-79.7582,7116.25,7366.33,2211.33,-405.642,-89.2227,0
38013,756.88,761.13,763.39,759.85,760.31,142.09,-961.91,323.24,-0.24,0.82,-0.29,52.72,7604,0,82,-0.227919,13.2565,-78.8127,6992.36,7405.54,2139.92,-404.036,-88.7216,0
38048,756.78,761.02,763.35,759.88,760.26,134.77,-963.87,334.47,0.75,1.35,-0.15,52.61,7611,0,82,-0.118561,13.3039,-79.3806,6954.71,7438.07,2131.7,-404.298,-87.6127,0
38082,756.81,761.05,763.35,759.92,760.28,144.04,-961.43,331.54,-2.08,0.53,-1.53,51.67,7617,0,82,-0.13868,13.2652,-78.7822,6841.45,7389.8,2109.32,-404.197,-86.8458,0
38116,756.86,761.02,763.33,759.9,760.28,137.21,-956.54,345.21,2.39,4.11,0.54,51.64,7624,0,82,-0.460237,13.5868,-78.8175,6995.16,7383.75,2110.61,-404.318,-88.7523,0
38152,756.78,761.13,763.44,759.88,760.31,152.34,-961.43,325.2,-0.34,1.48,2.45,53.94,7631,0,82,-0.329048,13.5549,-79.8893,7057.03,7402.21,2099.43,-405.344,-88.3343,0
38186,756.79,761.08,763.37,759.94,760.29,136.72,-954.59,324.71,1.47,0.14,-0.4,51.89,7638,0,82,-0.435083,13.6001,-78.7986,7088.97,7393.78,2281.59,-404.169,-89.9638,0
38220,756.8,761.08,763.32,759.87,760.27,155.76,-955.08,329.59,2.53,2.11,0.05,51.53,7645,0,82,-0.163101,13.4461,-79.1791,7106.03,7450.32,2232.07,-403.905,-89.7465,0
38254,756.8,761.06,763.47,759.96,760.32,137.21,-953.61,328.61,0.32,2.6,-1.09,54.09,7652,0,82,-0.289452,13.1744,-79.1236,6963.37,7375.68,2304.57,-404.781,-88.0058,0
38290,756.76,761.1,763.35,759.94,760.28,138.67,-965.82,324.71,0.75,1.97,1.73,51.26,7659,0,82,-0.440713,13.5763,-79.7139,7073.83,7429.1,2296.13,-404.803,-88.7401,0
38324,756.83,761.07,763.33,760,760.31,133.3,-951.17,333.98,0.52,3.08,0.68,49.82,7666,0,82,-0.530098,13.5538,-77.9843,7086.37,7401.98,2206.95,-403.082,-90.871,0
38358,756.76,761.07,763.42,759.92,760.29,132.32,-960.94,322.27,0.59,0.95,0.53,53.62,7673,0,82,-0.485313,12.9354,-78.7843,6876.24,7440.59,2178.48,-403.558,-87.2797,0
38392,756.84,761.08,763.34,759.92,760.29,149.41,-943.36,328.12,-0.17,0.23,1.73,51.24,7679,0,82,-0.707888,13.1843,-79.716,6986.23,7365.03,2144.68,-405.609,-87.6391,0
38426,756.78,761.07,763.3,759.92,760.26,144.04,-951.17,338.38,1.53,0.07,0.4,50.41,7686,0,82,-0.306936,13.0571,-78.4675,6934.81,7459.38,2347.83,-402.936,-88.3784,0
38461,756.79,761.09,763.38,759.89,760.29,144.04,-950.68,335.94,-0.23,2.01,-0.69,52.54,7693,0,82,-0.286277,13.3905,-79.6119,7056.63,7352.12,2137.42,-405.65,-88.6379,0
38495,756.86,761.05,763.37,759.89,760.29,156.25,-954.59,337.89,2.34,1.33,1.11,52.6,7700,0,82,-0.331239,13.1691,-78.818,6872.04,7421.74,2252.11,-403.837,-87.1888,0
38529,756.82,761.05,763.34,759.88,760.27,135.25,-944.82,334.96,1.64,0.79,0.21,52.11,7707,0,82,-0.208433,13.2294,-79.0642,7069.65,7402.99,2226.63,-404.367,-89.4174,0
38563,756.81,761.05,763.4,759.99,760.31,139.65,-953.12,327.15,-0.91,1.67,1,51.99,7714,0,82,-0.157598,13.1595,-78.1545,6923.79,7412.19,2213.1,-403.158,-88.5896,0
38597,756.79,761.07,763.37,759.9,760.28,139.65,-944.34,332.03,0.22,1.46,-1.24,52.53,7720,0,82,-0.202622,13.2244,-78.8785,6994.04,7432.39,2083.73,-403.774,-88.6679,0
38631,756.78,761.15,763.41,759.86,760.3,125.49,-944.34,333.5,1.29,3.26,-1.05,53.39,7727,0,82,-0.214939,13.3958,-79.2909,7122.32,7353.78,2174.75,-405.255,-89.8241,0
38665,756.74,761.13,763.4,759.86,760.28,141.11,-947.27,320.31,1.78,2.54,-1.08,53.34,7734,0,82,0.0575417,12.9742,-79.1596,6849.11,7348.87,2151.82,-405.164,-86.5238,0
38701,756.76,761.15,763.5,759.93,760.34,146.48,-944.34,327.15,-0.17,1.27,0.27,54.57,7741,0,82,-0.0608935,13.4745,-79.4864,7041.33,7360.68,2053.99,-405.397,-88.5866,0
38736,756.78,761.16,763.33,759.87,760.29,146.48,-951.66,339.36,-0.82,1.08,1.12,51.13,7748,0,82,0.205271,13.0279,-78.6852,6969.63,7413.25,2126.55,-403.786,-88.577,0
38770,756.77,761.11,763.39,760.02,760.32,143.07,-941.89,335.45,0.08,1.85,0.37,50.92,7755,0,82,0.11597,13.1224,-79.5201,6879.49,7384.64,2149.95,-405.135,-86.5127,0
38804,756.82,761.08,763.39,759.89,760.29,139.65,-955.08,323.24,-0.89,1.37,-0.47,52.77,7762,0,82,0.205658,12.9961,-77.54,6875,7376.39,2106.75,-402.87,-88.6634,0
38838,756.84,761.14,763.36,759.98,760.33,135.74,-951.17,322.27,-0.98,1.72,-0.91,50.3,7769,0,82,0.112741,13.1705,-78.7335,6970.1,7417.25,2121.72,-403.791,-88.528,0
38872,756.79,761.16,763.29,759.87,760.28,136.23,-951.66,318.85,0.49,-1.83,0.69,50.3,7775,0,82,-0.267885,13.2536,-79.4175,7049.86,7399.23,2230.68,-404.831,-88.7695,0
38905,756.8,761.08,763.38,759.9,760.29,147.46,-938.48,341.8,0.02,-1.49,2.73,52.58,7782,0,82,-0.312,13.4234,-78.8494,7003.77,7436.39,2278.45,-403.689,-88.8246,0
38939,756.86,761.06,763.39,760.01,760.33,140.14,-951.66,333.01,-0.91,3.11,-0.34,51.1,7789,0,82,-0.125704,13.1387,-79.2075,6867.57,7403.21,2152.94,-404.534,-86.7036,0
