currTime,s1,s2,s3,s4,s,AccX,AccY,AccZ,GyroX,GyroY,GyroZ,GRF
25,788.40,768.74,771.28,763.61,773.01,124.51,-923.34,396.97,2.34,2.95,0.05,24.77
59,788.74,768.73,771.20,763.66,773.09,111.33,-943.85,391.60,-0.43,3.49,1.20,21.08
93,789.11,768.66,771.12,763.63,773.13,107.42,-927.73,380.86,2.61,2.46,1.65,18.99
126,789.56,768.65,770.98,763.51,773.17,115.23,-941.41,413.09,1.69,1.60,0.85,15.63
160,789.85,768.67,770.86,763.45,773.21,120.61,-928.22,404.30,0.23,2.24,0.69,12.41
194,789.81,768.55,770.90,763.32,773.15,116.21,-926.76,384.77,0.05,0.09,1.22,16.40
228,789.84,768.58,770.87,763.30,773.15,118.65,-927.25,401.86,1.66,0.44,0.92,15.44
262,790.02,768.58,770.91,763.37,773.22,128.91,-929.69,390.62,-1.27,1.52,0.29,14.93
296,790.10,768.62,770.93,763.29,773.23,118.65,-937.99,397.46,-0.34,1.07,0.60,16.07
330,790.01,768.58,770.98,763.28,773.21,120.12,-940.43,385.74,-2.43,-2.46,0.86,18.06
364,789.80,768.64,771.03,763.38,773.21,126.46,-933.11,384.28,-3.49,-0.28,-0.63,17.99
400,789.71,768.57,771.06,763.33,773.17,115.23,-927.73,397.46,-0.57,2.40,0.25,20.63
434,789.73,768.66,771.06,763.43,773.22,122.56,-926.76,388.67,-1.07,2.30,0.56,18.31
468,789.73,768.64,771.01,763.44,773.21,120.61,-935.06,383.79,-0.13,2.71,0.14,16.92
503,789.81,768.66,771.03,763.34,773.21,129.88,-937.50,395.51,0.79,0.74,0.60,18.41
537,789.75,768.64,771.14,763.41,773.23,122.56,-924.32,384.77,1.89,1.98,-0.19,20.45
571,789.68,768.62,771.05,763.48,773.21,119.63,-929.20,397.95,-0.71,0.07,1.32,17.55
605,789.70,768.62,771.09,763.41,773.20,106.93,-932.62,410.64,0.30,0.74,-1.30,19.49
639,789.64,768.58,771.13,763.51,773.21,105.96,-929.20,403.81,-0.03,0.14,1.26,19.84
673,789.60,768.63,771.06,763.38,773.17,117.68,-931.64,393.55,1.11,0.40,-1.11,19.65
707,789.67,768.57,771.03,763.39,773.17,118.16,-929.20,392.09,-0.01,-0.50,-1.63,18.76
741,789.73,768.58,771.07,763.39,773.19,107.91,-935.55,388.18,0.69,-0.11,1.32,19.50
776,789.65,768.60,771.03,763.36,773.16,111.33,-929.20,399.90,-1.27,4.21,-0.35,19.29
811,789.68,768.55,771.02,763.41,773.16,128.42,-924.80,383.79,-0.74,1.61,0.82,18.59
845,789.75,768.63,771.04,763.29,773.18,126.95,-933.11,395.51,-0.99,1.61,-0.01,20.02
880,789.68,768.57,771.15,763.33,773.18,122.07,-926.76,393.55,1.18,0.50,0.55,22.90
915,789.67,768.53,771.07,763.38,773.16,118.16,-943.85,401.86,0.34,2.24,0.79,20.36
949,789.60,768.60,771.02,763.40,773.15,124.02,-922.36,398.44,1.24,-0.69,-0.79,18.70
984,789.56,768.63,771.09,763.36,773.16,105.47,-932.13,382.32,1.39,-0.79,0.75,20.57
1018,789.51,768.64,771.07,763.38,773.15,121.58,-933.59,397.46,0.36,1.51,0.14,20.08
1052,789.55,768.65,771.10,763.41,773.17,115.72,-921.39,387.70,-0.16,0.92,-0.67,20.26
1086,789.54,768.61,771.01,763.35,773.13,118.65,-928.22,389.16,0.51,2.59,1.56,19.26
1120,789.60,768.61,771.06,763.38,773.16,118.16,-935.55,396.48,0.03,2.45,0.56,19.61
1154,789.58,768.60,771.07,763.40,773.16,119.63,-928.71,395.51,1.11,1.39,-1.58,19.65
1188,789.48,768.56,771.07,763.36,773.12,122.56,-923.83,398.93,1.94,2.15,0.12,21.04
1224,789.51,768.55,771.04,763.36,773.11,112.30,-923.83,393.07,0.70,0.82,0.98,20.23
1258,789.52,768.55,770.96,763.35,773.10,125.49,-933.59,403.81,1.18,1.21,-0.22,18.42
1292,789.50,768.55,770.90,763.28,773.06,120.12,-924.32,403.32,1.15,2.55,0.27,17.97
1326,789.44,768.54,770.96,763.25,773.05,108.40,-940.43,401.86,-0.76,3.76,0.84,20.30
1361,789.30,768.50,770.93,763.22,772.99,129.39,-937.50,392.09,0.92,1.42,0.03,20.84
1395,789.30,768.53,771.00,763.30,773.03,121.09,-929.20,397.95,0.45,-0.01,4.11,20.93
1429,789.14,768.45,770.97,763.34,772.98,113.28,-926.27,383.30,0.72,1.64,-0.18,20.96
1462,789.05,768.46,770.99,763.45,772.99,108.40,-933.59,394.04,-0.05,1.76,0.43,20.06
1496,789.00,768.53,771.06,763.33,772.98,130.86,-930.66,395.51,0.98,1.65,-0.40,23.25
1529,788.93,768.52,771.00,763.37,772.96,134.77,-933.11,392.58,1.92,1.40,0.20,21.24
1563,788.96,768.59,770.96,763.35,772.96,113.77,-925.29,377.44,-0.89,1.42,0.37,20.03
1597,788.97,768.53,770.98,763.39,772.97,120.61,-938.48,396.00,-0.73,3.56,-0.12,20.28
1632,788.98,768.55,770.95,763.43,772.98,122.56,-930.66,398.44,-1.42,2.46,0.93,18.92
1666,788.94,768.57,771.08,763.41,773.00,116.21,-932.13,380.37,-0.01,1.98,1.16,22.38
1700,789.04,768.55,771.03,763.42,773.01,100.10,-924.32,389.65,1.05,0.17,2.56,20.89
1734,789.11,768.48,771.04,763.37,773.00,135.25,-920.41,396.97,1.23,2.07,-1.50,22.18
1768,789.06,768.49,771.03,763.32,772.97,116.21,-923.34,397.95,0.31,0.84,-1.29,22.60
1802,789.16,768.49,770.94,763.33,772.98,123.54,-925.78,396.97,1.44,1.75,0.22,19.98
1835,789.31,768.40,770.98,763.29,772.99,117.19,-942.87,381.84,-1.64,3.61,0.79,21.66
1871,789.44,768.49,770.92,763.32,773.04,114.26,-934.08,400.39,-0.11,3.60,-0.08,18.69
1905,789.65,768.49,770.80,763.22,773.04,115.23,-927.25,402.34,2.88,2.12,-0.56,16.39
1939,789.72,768.51,770.80,763.18,773.05,113.28,-919.92,394.53,2.67,3.10,0.79,16.44
1973,789.92,768.55,770.67,763.10,773.06,108.89,-926.27,392.09,1.12,0.56,-1.21,13.49
2009,790.13,768.43,770.55,763.01,773.03,118.65,-915.53,391.11,1.05,2.86,-0.04,12.07
2043,790.32,768.32,770.42,762.98,773.01,96.68,-922.36,384.77,-0.44,2.07,-1.03,9.58
2077,790.30,768.40,770.41,762.91,773.00,115.72,-926.27,398.93,1.42,1.68,1.06,9.74
2111,790.31,768.33,770.41,762.84,772.97,126.95,-934.08,395.51,-0.22,-0.57,2.53,11.37
2145,790.27,768.29,770.42,762.95,772.98,115.72,-925.78,411.62,1.55,-0.25,0.18,10.24
2180,790.17,768.34,770.53,762.95,773.00,113.28,-932.13,402.34,-1.59,0.95,1.28,13.07
2214,789.99,768.34,770.58,763.01,772.98,113.77,-937.01,399.41,0.25,0.63,-0.03,14.05
2248,790.02,768.41,770.61,763.13,773.04,130.86,-932.62,388.67,-0.45,3.84,-1.91,12.52
2282,789.98,768.33,770.65,763.13,773.02,112.30,-921.39,409.18,0.40,0.85,2.05,14.18
2316,790.03,768.33,770.62,763.08,773.02,113.28,-940.43,395.02,1.65,0.19,-0.35,13.91
2350,790.10,768.37,770.63,763.09,773.05,109.86,-933.11,396.48,1.61,1.03,0.53,13.68
2384,790.33,768.32,770.57,763.07,773.07,115.23,-929.69,403.32,0.78,0.32,1.08,12.00
2420,790.50,768.31,770.52,762.91,773.06,111.82,-934.08,391.60,1.36,1.06,1.06,12.45
2454,790.59,768.27,770.44,762.83,773.03,124.02,-921.87,399.90,2.27,-1.28,-0.69,11.67
2488,790.65,768.27,770.37,762.85,773.03,128.42,-918.95,402.34,0.64,3.25,1.05,9.33
2522,790.77,768.18,770.38,762.83,773.04,116.21,-915.53,392.58,0.22,1.06,1.61,10.20
2557,790.85,768.22,770.35,762.76,773.04,109.37,-922.85,393.55,0.34,1.73,1.71,9.94
2591,790.94,768.24,770.32,762.74,773.06,125.98,-924.80,394.53,1.45,2.84,1.65,8.98
2625,791.01,768.20,770.29,762.74,773.06,127.93,-925.29,397.46,1.31,1.63,-0.18,8.41
2659,791.12,768.10,770.25,762.70,773.04,119.14,-932.13,407.71,-1.93,2.10,1.19,8.37
2693,791.21,768.17,770.19,762.70,773.07,118.65,-916.50,401.86,1.24,-0.19,1.79,6.06
2727,791.30,768.17,770.19,762.76,773.11,126.46,-933.59,387.21,1.18,-0.03,0.08,4.85
2761,791.26,768.13,770.16,762.69,773.06,106.93,-915.04,389.65,-1.53,0.81,1.82,5.48
2795,791.27,768.18,770.18,762.72,773.09,120.61,-937.99,398.93,-1.80,0.56,-0.09,5.42
2833,791.25,768.13,770.18,762.72,773.07,122.07,-927.25,400.39,-0.09,1.39,-0.42,5.83
2867,791.25,768.12,770.19,762.71,773.07,100.10,-928.71,401.37,0.21,1.65,0.54,6.24
2901,791.24,768.13,770.16,762.71,773.06,104.98,-927.73,396.48,0.27,0.15,-0.34,5.29
2935,791.20,768.16,770.13,762.69,773.05,116.70,-943.85,402.83,0.44,2.76,2.09,4.86
2969,791.30,768.14,770.23,762.66,773.08,113.77,-930.18,401.86,1.73,1.50,1.54,7.40
3004,791.33,768.09,770.19,762.69,773.08,104.98,-921.39,411.62,-0.52,1.60,-2.10,6.57
3038,791.38,768.07,770.17,762.57,773.04,107.91,-919.43,397.46,0.15,2.77,-2.15,7.64
3072,791.32,768.08,770.16,762.66,773.05,121.09,-927.25,395.02,-0.11,1.81,0.81,6.28
3106,791.30,768.06,770.14,762.67,773.04,109.86,-927.73,411.13,0.43,0.14,2.24,5.88
3139,791.27,768.13,770.13,762.58,773.03,127.44,-929.69,391.11,-0.14,1.39,0.05,6.43
3173,791.32,768.07,770.18,762.63,773.05,141.60,-905.76,391.60,-1.90,1.40,-0.73,7.30
3207,791.34,768.12,770.15,762.64,773.06,139.16,-954.59,389.65,-3.44,-1.88,1.06,5.96
3242,791.41,768.07,770.15,762.57,773.05,120.61,-935.55,397.95,2.32,2.36,-0.73,7.00
3276,791.49,768.08,770.12,762.53,773.06,118.65,-901.37,428.22,-0.09,1.62,0.83,6.58
3309,791.51,768.10,770.15,762.63,773.10,129.39,-942.87,403.81,-1.54,0.27,-1.95,5.54
3343,791.43,767.99,770.14,762.59,773.04,110.35,-937.99,411.62,0.21,0.55,-0.35,7.12
3377,791.51,768.02,770.11,762.60,773.06,111.82,-941.89,383.79,0.47,1.08,2.30,5.83
3411,791.38,768.13,770.02,762.63,773.04,114.26,-924.32,403.32,2.41,0.18,0.57,2.45
3445,791.55,768.09,770.10,762.64,773.09,118.16,-927.73,398.44,-1.82,0.37,-0.43,4.14
3479,791.49,768.10,770.00,762.59,773.05,51.76,-1082.52,343.75,20.92,12.57,-1.38,2.63
3512,791.44,768.08,770.02,762.54,773.02,80.57,-850.10,435.06,-0.89,1.80,-0.02,3.97
3546,791.20,768.13,770.15,762.52,773.00,133.79,-976.07,361.33,1.90,0.30,-0.18,8.15
3580,791.68,768.10,770.26,762.76,773.20,115.23,-898.44,419.92,3.12,-1.83,2.63,5.89
3615,791.26,768.08,770.06,762.65,773.01,117.19,-934.57,371.58,-3.41,1.81,-2.70,4.09
3650,791.36,768.06,770.12,762.59,773.03,130.37,-950.20,399.41,0.12,0.28,-0.89,6.25
3684,791.34,768.00,770.10,762.54,773.00,124.02,-913.09,401.86,1.13,5.31,-1.71,6.93
3719,791.45,767.99,770.16,762.61,773.05,133.79,-932.13,407.23,1.63,-0.10,-1.07,7.28
3753,791.38,768.04,770.06,762.57,773.01,136.72,-936.04,392.58,-3.21,2.70,1.09,5.14
3788,791.33,768.02,770.09,762.54,772.99,113.28,-919.43,403.81,1.21,0.65,0.65,6.78
3823,791.17,768.05,770.08,762.62,772.98,110.35,-925.29,404.30,0.11,2.08,-0.92,5.59
3857,791.06,768.06,770.08,762.55,772.94,124.02,-932.13,398.44,-0.63,1.79,-1.05,6.94
3891,790.92,767.98,770.03,762.52,772.86,123.05,-925.78,417.48,1.06,2.11,1.38,7.22
3925,790.62,767.91,770.00,762.56,772.77,125.00,-927.73,403.81,0.31,0.00,-0.35,7.44
3959,790.11,767.84,769.94,762.53,772.61,128.91,-913.09,424.80,0.17,2.14,0.48,8.83
3993,789.79,767.77,770.00,762.49,772.51,128.42,-913.57,404.79,2.75,1.93,-1.71,12.51
4027,789.31,767.72,770.01,762.59,772.41,124.51,-923.34,393.55,-2.26,1.25,-1.95,13.28
4063,788.85,767.61,769.97,762.58,772.25,108.40,-907.23,406.74,-0.73,0.73,2.88,15.06
4097,788.64,767.52,770.05,762.61,772.20,118.65,-933.11,407.71,0.06,1.08,-1.16,17.92
4131,788.48,767.37,769.96,762.53,772.09,105.96,-921.39,402.83,-2.15,0.58,0.44,18.71
4165,788.73,767.35,769.92,762.42,772.11,130.86,-924.80,416.99,-0.77,-0.32,-0.27,18.62
4200,789.13,767.41,769.89,762.35,772.19,124.02,-937.01,395.02,1.44,-0.80,1.08,17.00
4234,789.70,767.35,769.85,762.31,772.30,112.79,-935.55,388.18,-0.12,-0.18,1.07,15.22
4268,790.39,767.27,769.76,762.29,772.43,121.09,-941.89,398.93,-0.07,-1.73,-2.20,11.49
4302,791.08,767.12,769.64,762.21,772.51,137.21,-921.39,401.86,-1.85,0.27,0.01,8.23
4336,792.20,766.82,769.66,762.01,772.67,118.65,-933.11,397.95,0.38,2.86,0.73,10.45
4370,793.88,766.52,769.70,761.87,772.99,127.44,-935.06,394.53,-0.14,2.96,-1.50,10.24
4404,795.34,766.58,769.73,761.93,773.40,121.09,-922.85,407.71,-0.56,0.56,0.34,4.64
4438,796.65,766.66,769.73,761.83,773.72,118.65,-927.25,407.71,-1.02,0.92,-0.02,0.78
4474,798.66,766.80,769.77,761.98,774.30,116.21,-929.69,412.11,1.03,0.46,-1.08,-8.33
4508,802.93,767.45,770.13,762.27,775.69,118.65,-902.83,414.55,-6.31,-3.39,1.85,-23.66
4543,810.84,768.46,770.76,762.60,778.16,113.77,-932.62,377.44,-1.89,-5.93,5.66,-47.83
4577,819.15,769.30,771.46,762.96,780.72,134.77,-922.85,388.18,-7.37,-2.31,-1.34,-71.15
4611,827.44,769.97,771.96,763.38,783.19,133.30,-934.08,386.72,-2.58,-0.08,-3.52,-98.40
4645,832.93,770.44,772.33,763.79,784.87,128.42,-943.36,392.09,0.40,0.63,-0.85,-117.96
4679,835.28,770.52,772.39,763.96,785.54,111.33,-944.82,387.70,-0.21,2.53,0.78,-127.75
4713,835.46,770.49,772.20,763.99,785.53,133.30,-951.17,366.70,-0.08,2.57,0.09,-133.22
4749,834.32,770.31,772.19,764.13,785.24,115.72,-925.78,386.72,3.43,2.34,0.84,-130.10
4783,832.92,770.11,772.20,764.19,784.85,138.67,-929.20,390.62,1.39,2.65,1.76,-124.42
4816,831.89,769.94,772.24,764.29,784.59,128.91,-924.32,398.93,3.84,2.23,-3.49,-120.09
4850,831.24,769.86,772.28,764.30,784.42,120.61,-917.97,405.27,1.71,4.52,2.18,-116.40
4885,830.94,769.71,772.38,764.31,784.34,129.39,-935.55,393.07,-0.50,1.50,1.53,-111.69
4919,830.56,769.80,772.56,764.49,784.35,121.09,-927.73,405.27,-0.20,1.37,0.28,-109.22
4952,829.62,770.00,773.08,764.69,784.35,129.39,-926.76,373.54,-1.76,1.32,1.47,-97.67
4986,827.25,770.32,773.83,765.16,784.14,123.05,-930.18,376.46,-2.89,-1.36,0.06,-80.31
5020,821.94,770.84,774.90,765.95,783.41,134.28,-922.36,391.11,-1.81,0.62,0.66,-51.19
5054,812.27,771.66,776.43,767.07,781.86,126.95,-924.32,397.46,-2.21,2.29,2.59,-3.04
5088,794.56,772.28,778.69,768.41,778.48,149.41,-946.29,355.96,-1.84,5.12,3.04,89.29
5122,770.56,772.60,781.60,769.98,773.69,155.27,-1007.81,316.89,2.60,9.11,9.69,218.51
5155,754.28,771.92,785.55,771.62,770.84,142.09,-1047.85,224.12,2.96,9.10,15.43,354.26
5189,751.27,767.84,788.74,770.43,769.57,-66.41,-1047.36,164.06,69.41,22.45,69.36,494.21
5223,750.56,763.97,786.10,765.26,766.47,368.16,-1323.24,660.64,101.14,112.69,136.92,537.97
5259,750.41,762.32,771.17,761.93,761.46,115.23,-2000.00,347.66,124.94,78.49,142.72,228.73
5293,750.41,761.80,762.28,760.14,758.66,1120.61,-1274.41,-239.75,250.13,196.71,69.61,37.74
5327,750.12,761.43,762.19,759.81,758.39,538.57,-1418.95,-397.95,162.51,250.13,-68.31,44.25
5361,750.25,760.97,762.12,759.51,758.21,128.91,-917.97,-218.75,72.83,250.13,-77.28,50.21
5396,750.15,760.65,762.04,759.33,758.04,261.23,-843.26,-224.12,68.82,233.15,-127.89,53.95
5430,750.20,760.52,761.89,759.24,757.96,252.44,-716.31,-277.34,35.49,217.79,-138.50,52.33
5464,750.12,760.40,761.78,759.14,757.86,300.78,-858.40,-278.81,1.81,202.28,-160.79,52.19
5498,750.07,760.32,761.68,759.08,757.79,239.26,-919.43,-298.83,-12.92,191.92,-177.20,51.40
5532,750.05,760.28,761.58,759.05,757.74,284.18,-1123.54,-349.12,-23.71,194.96,-192.83,49.91
5566,750.03,760.31,761.56,758.93,757.71,176.27,-1254.88,-360.35,-31.76,207.03,-207.53,50.92
5600,749.91,760.32,761.62,758.89,757.68,81.54,-1385.25,-343.26,-42.18,200.79,-208.63,53.36
5634,749.76,760.33,761.61,758.80,757.62,-58.59,-1541.02,-247.56,-63.90,163.18,-199.22,54.86
5670,749.68,760.28,761.52,758.77,757.56,-154.30,-1607.42,-116.70,-27.89,121.34,-177.43,53.71
5706,749.62,760.24,761.41,758.70,757.49,-455.08,-1789.06,-3.91,-67.01,45.15,-162.77,52.54
5740,749.53,760.28,761.42,758.77,757.50,-732.42,-1643.07,12.21,20.74,3.97,-161.83,51.67
5774,749.48,760.15,761.38,758.73,757.44,-1291.50,-1219.73,10.25,8.63,-48.92,-120.82,52.66
5808,749.78,760.21,761.44,758.74,757.54,-1658.20,-1070.31,132.81,-35.70,-79.60,-51.87,52.59
5842,752.13,760.34,761.36,758.67,758.13,-1110.35,-682.13,-368.16,250.13,101.15,74.88,42.25
5877,771.85,760.39,761.42,758.70,763.09,589.84,-160.16,449.22,250.13,187.08,90.31,-24.69
5911,806.47,760.88,761.93,758.83,772.03,-660.64,-1697.75,1934.08,25.89,18.91,191.07,-136.58
5945,815.67,762.47,765.06,759.00,775.55,-1607.91,-2000.00,1999.94,68.18,-125.84,23.74,-105.44
5979,817.60,764.56,769.52,760.20,777.97,271.00,-836.91,404.30,-10.14,8.40,12.84,-35.28
6013,822.50,766.53,772.35,761.84,780.80,131.84,-1035.64,320.80,21.34,1.56,2.51,-21.66
6047,825.96,767.49,774.68,763.45,782.90,108.40,-940.92,386.72,11.85,1.66,0.06,-6.73
6083,823.16,768.29,776.97,764.63,783.26,125.00,-897.95,417.97,-10.16,-3.60,2.97,36.04
6117,817.21,769.42,779.95,765.75,783.08,134.28,-936.04,397.95,-14.73,-5.35,7.15,105.13
6151,812.20,770.02,782.71,766.95,782.97,143.55,-969.24,357.42,-8.78,-3.09,6.27,168.64
6185,806.68,770.04,784.17,767.68,782.14,130.86,-930.66,392.09,-3.50,1.31,3.37,212.97
6219,801.69,769.99,784.34,768.00,781.00,137.21,-933.11,384.77,-3.74,2.61,2.47,230.08
6254,797.42,769.92,783.71,768.23,779.82,119.63,-946.29,368.16,2.80,1.08,3.41,226.03
6288,794.77,769.73,783.22,768.29,779.00,141.11,-930.66,402.83,4.40,3.88,2.40,223.52
6322,793.34,769.56,783.37,768.16,778.61,106.45,-927.25,387.21,1.00,-0.05,0.27,235.65
6355,792.07,769.93,783.88,768.46,778.59,140.62,-921.87,390.14,-1.71,-1.72,3.26,245.18
6389,790.82,770.83,784.70,769.19,778.89,114.75,-907.71,413.09,-1.93,-0.50,3.10,251.94
6423,789.05,772.83,785.76,770.85,779.62,95.70,-933.59,378.42,-5.27,-0.85,5.14,244.01
6456,785.22,775.30,787.89,773.69,780.52,134.77,-948.73,386.72,-1.21,0.41,2.06,248.60
6491,774.83,778.93,792.97,778.79,781.38,141.60,-968.26,314.45,13.24,7.73,8.90,306.72
6525,761.75,782.04,800.54,786.19,782.63,133.79,-993.16,291.99,23.87,16.02,5.92,406.33
6559,752.54,781.72,807.50,794.36,784.03,129.88,-1157.71,490.23,30.83,18.94,36.44,493.77
6593,750.74,776.24,811.07,797.85,783.98,-18.07,-850.59,309.08,6.71,11.16,41.31,581.52
6627,750.36,768.70,812.94,791.60,780.90,207.03,-1259.77,539.06,-6.40,101.68,144.91,781.63
6662,750.10,764.49,811.67,779.47,776.43,241.70,-1485.84,346.68,-19.91,63.59,175.34,963.23
6696,749.91,762.54,799.03,768.57,770.01,-109.86,-1916.99,615.23,17.01,34.88,220.23,825.10
6730,749.75,761.55,770.51,762.56,761.09,1.95,-1898.44,221.19,84.34,49.18,225.91,211.41
6764,749.64,761.10,762.76,760.28,758.45,-158.20,-1899.90,500.49,76.12,93.56,130.15,55.86
6798,749.58,760.80,762.37,759.88,758.16,288.57,-1136.72,152.83,100.24,45.21,-2.45,54.75
6832,749.56,760.53,762.08,759.63,757.95,534.18,-687.01,-8.30,44.93,62.84,26.88,53.52
6866,749.59,760.45,762.11,759.41,757.89,643.55,-444.34,-77.15,30.40,66.00,-13.84,57.83
6902,749.65,760.35,762.03,759.35,757.84,699.71,-278.32,-83.50,-14.44,62.98,-70.16,57.46
6936,749.58,760.33,762.02,759.23,757.79,605.96,-295.90,-1.46,-49.20,55.90,-127.02,59.31
6970,749.57,760.25,761.98,759.17,757.74,470.21,-647.95,155.76,-71.15,36.76,-175.37,59.87
7004,749.48,760.23,762.02,759.03,757.69,297.36,-870.12,276.37,-42.49,16.02,-220.64,63.46
7038,749.39,760.28,762.14,759.07,757.72,198.24,-980.96,324.71,-42.90,-1.30,-219.69,65.59
7072,749.33,760.43,762.30,758.86,757.73,102.05,-1391.60,469.24,-33.96,-19.74,-208.02,71.67
7106,749.32,760.38,762.39,758.78,757.72,3.42,-1671.39,366.70,-54.05,-57.02,-196.81,75.70
7141,749.27,760.31,762.30,758.65,757.63,-353.03,-1839.84,330.57,-48.95,-5.06,-189.69,76.06
7175,749.19,760.24,762.22,758.64,757.57,-909.18,-2000.00,545.41,-69.20,-16.48,-211.80,75.04
7209,749.19,760.14,762.14,758.68,757.54,-1470.70,-1993.16,266.11,62.00,-18.38,-180.76,73.26
7243,749.54,760.28,762.16,758.73,757.68,-2000.00,-784.67,-164.06,91.63,-21.92,-70.01,70.55
7277,754.82,760.47,761.84,758.58,758.93,-1785.64,-769.53,572.75,223.00,132.92,153.34,45.08
7313,771.66,760.43,762.16,758.73,763.24,1281.25,173.83,-6.35,-29.17,106.67,70.08,-6.39
7347,805.03,760.65,762.62,758.93,771.81,-84.96,-2000.00,791.50,-37.31,32.95,179.71,-114.00
7381,814.70,762.01,763.68,758.94,774.83,8.30,-1616.21,907.71,119.50,27.95,147.05,-131.93
7415,811.75,763.18,772.20,759.55,776.67,-99.12,-745.12,-76.17,-30.02,-43.12,13.86,71.89
7449,809.49,764.75,781.41,761.34,779.25,104.98,-976.56,296.39,-17.83,-19.01,6.82,270.31
7483,807.55,766.02,786.73,762.92,780.81,127.93,-924.80,420.41,-0.03,0.87,2.84,376.08
7518,806.78,766.79,789.59,764.33,781.87,127.44,-900.88,422.85,1.46,3.81,3.54,423.00
7552,806.07,767.72,790.55,765.42,782.44,125.00,-910.64,422.36,-0.44,2.00,1.80,425.86
7586,805.48,768.77,790.65,766.59,782.87,123.54,-929.20,398.93,-6.10,-1.33,2.50,404.91
7622,803.97,769.27,790.93,767.40,782.89,126.46,-928.22,394.53,-4.58,0.17,5.02,401.03
7656,802.30,769.72,790.56,767.85,782.61,135.25,-954.10,386.72,-2.19,-0.76,1.75,387.16
7690,801.12,770.20,789.62,768.27,782.30,115.72,-920.90,397.46,1.31,3.80,3.30,357.97
7726,799.21,770.59,788.19,768.98,781.74,125.49,-908.69,416.02,-3.03,0.43,3.01,315.09
7760,797.88,770.84,787.01,769.23,781.24,116.70,-918.46,406.74,-2.65,-0.21,1.97,284.70
7794,797.23,771.21,786.26,769.31,781.00,110.84,-905.76,379.39,2.85,-0.94,2.73,264.04
7828,796.75,771.70,785.72,769.49,780.92,118.16,-923.34,405.76,0.71,-2.11,2.98,245.74
7862,795.81,772.61,784.78,769.99,780.80,103.52,-907.71,425.29,-0.47,2.43,3.76,210.80
7896,793.91,773.84,784.59,770.76,780.77,115.23,-918.95,404.79,-3.23,0.14,6.31,191.43
7930,792.14,775.57,785.22,771.60,781.13,101.07,-933.11,386.23,-4.47,-1.37,6.45,187.10
7963,789.54,777.68,786.78,773.33,781.83,129.39,-975.59,360.84,1.43,1.32,5.79,192.51
7997,783.08,779.83,789.04,776.13,782.02,129.39,-929.69,396.97,7.02,4.11,5.75,212.31
8030,772.55,781.93,792.75,780.12,781.84,119.63,-972.17,356.93,16.36,8.91,3.86,265.19
8064,762.07,783.38,798.25,785.50,782.30,127.44,-981.45,341.80,21.23,8.66,2.61,347.53
8098,754.19,782.77,804.47,790.96,783.10,107.91,-1060.06,387.21,41.87,15.48,30.98,454.02
8134,750.95,779.43,809.46,794.52,783.59,181.64,-985.35,541.99,8.99,12.43,35.92,563.96
8168,750.49,773.90,812.00,793.09,782.37,300.78,-1202.64,466.80,-53.85,69.82,85.18,694.06
8202,750.12,768.22,813.62,787.29,779.81,146.48,-1166.50,561.52,-80.76,40.69,106.28,866.74
8236,750.02,764.68,813.37,778.92,776.75,20.51,-1341.31,430.66,-31.16,56.82,153.40,1012.46
8269,749.72,762.70,806.97,770.73,772.53,-70.31,-1603.52,385.25,28.51,51.89,201.76,990.34
8303,749.67,761.57,790.16,765.86,766.82,-182.13,-1491.21,466.80,19.29,22.67,222.73,652.60
8337,749.48,760.99,773.93,761.79,761.55,-155.76,-1311.52,491.70,20.53,8.56,232.77,313.47
8371,749.56,760.74,763.73,759.79,758.46,845.21,-833.01,197.27,32.98,32.76,201.64,90.46
8405,749.54,760.50,763.25,759.68,758.24,613.77,-491.21,237.30,82.06,7.31,-19.39,82.18
8439,749.56,760.34,762.92,759.44,758.07,547.85,-625.49,165.04,-8.66,16.23,-58.19,78.69
8474,749.49,760.21,762.67,759.31,757.92,482.42,-629.88,190.43,3.85,32.58,-113.28,75.69
8509,749.48,760.19,762.63,759.13,757.86,286.62,-636.23,212.89,3.50,23.21,-153.81,77.39
8543,749.53,760.12,762.51,759.02,757.79,226.56,-829.10,203.61,9.36,23.71,-188.30,76.34
8579,749.44,760.28,762.49,758.89,757.77,34.18,-979.49,225.10,-0.95,28.40,-201.25,76.93
8613,749.39,760.27,762.47,758.85,757.75,-30.76,-1239.26,222.66,-3.46,38.18,-194.63,77.29
8647,749.39,760.25,762.57,758.88,757.77,-91.31,-1405.76,176.27,8.18,56.03,-195.79,79.43
8681,749.37,760.34,762.66,758.82,757.80,-205.08,-1448.73,101.56,-11.18,58.48,-197.40,81.83
8716,749.32,760.18,762.62,758.75,757.72,-221.19,-1538.09,-61.04,-25.92,79.39,-177.90,83.45
8750,749.25,760.14,762.56,758.76,757.68,-446.78,-1341.31,-58.59,-37.09,122.66,-142.57,82.39
8784,749.17,760.00,762.42,758.75,757.58,-641.11,-1428.22,132.32,-72.69,117.42,-108.72,80.46
8818,749.17,760.06,762.28,758.73,757.56,-903.81,-1538.09,225.59,-24.94,97.58,-88.59,76.69
8852,749.13,760.03,762.23,758.73,757.53,-1165.04,-1187.50,87.89,22.79,52.15,-75.02,76.03
8886,749.20,760.06,762.20,758.63,757.52,-1111.33,-924.32,37.11,9.36,-8.22,-48.04,76.07
8922,749.51,760.08,762.23,758.68,757.63,-795.41,-931.64,49.32,-10.13,-46.83,1.11,74.92
8956,756.08,760.17,762.14,758.60,759.25,-357.42,-60.06,-650.39,250.13,239.83,88.57,50.38
8990,779.31,760.37,762.52,758.66,765.21,307.13,-746.58,270.51,47.15,60.38,106.08,-22.13
9024,796.39,761.59,764.04,758.73,770.18,-336.43,-1690.43,816.41,44.14,29.24,122.32,-53.66
9058,797.26,762.94,767.58,759.55,771.83,409.18,-888.18,955.08,-3.65,-16.88,11.48,8.64
9093,799.69,764.73,770.95,760.60,773.99,132.32,-872.07,422.85,-27.56,-21.98,13.60,54.51
9127,804.22,766.08,774.37,761.69,776.59,138.18,-972.66,367.68,-13.67,-10.40,3.03,97.25
9161,809.63,766.78,776.75,762.73,778.97,148.44,-948.73,399.90,6.37,0.37,1.18,116.94
9195,813.16,767.58,778.42,763.85,780.75,112.79,-884.28,452.15,0.08,-1.14,-1.99,123.69
9229,812.93,768.48,779.19,764.73,781.33,132.81,-918.46,412.60,-7.03,-1.98,4.88,123.38
9263,810.71,769.09,779.82,765.42,781.26,125.49,-935.55,394.53,-3.79,-2.49,2.60,131.69
9297,807.73,769.43,780.33,765.97,780.86,113.77,-929.20,419.43,0.44,0.92,-0.61,143.88
9333,804.26,769.76,780.88,766.34,780.31,117.19,-934.57,408.69,-1.81,1.21,2.08,161.39
9367,801.96,770.08,781.45,766.76,780.06,112.79,-933.11,394.53,1.31,1.47,1.29,174.59
9401,800.38,770.42,782.12,767.19,780.03,116.21,-905.76,416.02,-0.36,0.84,2.72,187.58
9435,799.22,770.88,783.20,767.96,780.32,115.72,-931.64,399.41,3.73,2.08,1.10,203.64
9469,798.45,771.22,784.17,768.66,780.62,114.26,-916.50,397.46,0.24,1.74,1.11,217.52
9505,797.59,771.53,784.74,769.29,780.79,104.49,-920.90,393.55,-4.18,1.14,1.24,222.75
9539,795.34,771.55,785.16,769.56,780.40,112.79,-945.80,378.42,0.44,0.98,2.26,236.84
9572,790.66,771.04,785.02,769.62,779.09,88.38,-984.86,417.48,3.72,4.84,0.95,252.50
9606,780.49,770.04,784.50,769.38,776.10,145.51,-936.52,360.84,-1.05,7.74,0.34,286.06
9639,764.98,768.61,784.29,769.67,771.89,154.79,-988.28,326.66,1.24,14.21,2.18,341.20
9673,753.46,766.06,784.63,769.88,768.51,193.36,-1346.19,591.31,-32.18,8.62,27.02,406.66
9707,750.68,763.06,783.04,767.15,765.98,170.41,-1228.52,796.87,-33.53,-32.17,62.11,440.85
9742,750.35,761.29,777.44,761.93,762.75,327.15,-1529.30,495.61,68.62,66.89,134.68,393.46
9776,750.36,760.66,767.43,760.21,759.67,94.73,-1446.29,14.65,160.49,64.79,122.02,174.34
9810,750.33,760.43,763.06,759.30,758.28,550.78,130.37,-816.89,222.42,121.20,36.11,80.75
9844,750.32,760.28,762.91,759.23,758.19,719.24,-609.86,-75.20,-49.00,71.47,-72.54,79.38
9878,750.25,760.27,762.62,759.15,758.07,394.04,-664.55,6.35,-23.89,96.18,-87.84,73.66
9911,750.18,760.23,762.65,759.14,758.05,291.02,-630.37,186.52,-59.79,41.66,-106.37,75.07
9945,750.16,760.26,762.56,759.06,758.01,157.23,-772.46,266.60,-46.76,20.12,-93.73,73.84
9979,750.07,760.23,762.49,758.97,757.94,-7.32,-980.96,347.66,-50.01,-11.09,-96.71,74.07
10013,749.96,760.21,762.51,758.90,757.90,-183.59,-1059.08,381.84,-52.65,-32.56,-86.60,75.99
10048,749.97,760.21,762.51,758.85,757.88,-311.04,-1020.51,485.84,-68.37,-37.98,-61.53,76.67
10082,749.87,760.16,762.45,758.84,757.83,-329.10,-1060.55,616.70,-57.82,-18.63,-32.13,76.26
10116,749.77,760.15,762.49,758.83,757.81,-262.21,-1129.39,587.40,-25.37,-9.29,-15.13,77.59
10152,749.70,760.02,762.41,758.82,757.74,-207.03,-1005.86,442.87,-17.98,-8.82,-0.36,77.15
10186,749.73,759.97,762.38,758.82,757.72,-111.33,-925.78,338.87,-5.21,-7.33,2.17,76.61
10220,749.61,759.94,762.40,758.79,757.68,-9.28,-933.59,353.03,-36.98,-6.54,4.24,78.38
10254,749.60,759.88,762.31,758.86,757.66,86.91,-958.01,384.28,-17.49,9.76,-0.47,75.65
10288,749.58,759.78,762.29,758.89,757.64,131.35,-947.75,342.77,-3.07,29.64,8.04,75.38
10322,749.71,759.83,762.23,758.93,757.68,40.53,-934.57,312.99,4.36,40.13,18.22,72.46
10356,750.10,760.11,762.66,759.04,757.98,-295.41,-2000.00,546.39,-6.99,-97.19,-30.55,77.94
10390,752.12,760.52,763.12,759.17,758.73,1021.00,-303.22,839.36,-69.79,85.64,-8.23,77.34
10424,753.27,761.11,764.52,759.65,759.64,70.31,-789.55,518.55,91.51,55.21,1.04,96.41
10460,753.26,761.70,766.75,760.20,760.47,236.82,-921.87,303.22,40.66,12.34,4.20,139.25
10494,753.51,762.22,768.74,760.65,761.28,142.58,-943.85,368.65,-4.67,-7.12,2.00,177.33
10528,755.68,763.56,771.81,761.52,763.14,102.54,-917.97,377.44,2.67,-6.23,5.23,222.78
10564,760.77,766.00,776.10,763.12,766.49,104.49,-925.29,335.94,10.21,-3.19,6.02,268.91
10598,766.48,768.05,779.83,765.12,769.87,115.23,-926.76,358.89,14.84,3.63,3.27,296.38
10632,773.00,769.70,783.14,766.89,773.18,106.93,-919.43,380.37,20.58,6.87,1.41,317.20
10667,780.97,771.19,785.75,768.50,776.60,132.32,-925.78,359.86,13.76,-0.34,-3.53,319.18
10701,787.32,772.64,787.14,769.92,779.26,95.21,-902.34,413.57,12.95,1.82,0.74,299.44
10735,788.95,773.81,788.14,771.28,780.54,142.58,-952.64,389.16,7.44,2.14,0.90,289.49
10769,790.87,774.05,788.87,772.02,781.45,101.07,-922.36,407.23,5.29,-0.36,-2.15,288.33
10803,792.04,773.85,788.27,772.09,781.56,109.86,-900.39,410.16,7.28,0.03,0.19,270.01
10837,791.75,773.47,787.91,771.94,781.27,108.40,-914.06,396.00,1.44,1.31,-0.64,267.15
10871,790.93,772.95,787.27,771.49,780.66,112.79,-932.13,383.30,1.24,-1.61,-1.87,264.87
10905,790.07,772.48,786.82,770.99,780.09,127.93,-919.43,396.97,-1.78,2.50,2.38,267.67
10940,790.05,772.03,786.14,770.36,779.64,127.44,-913.57,414.06,-3.53,-3.87,0.04,263.69
10975,791.10,771.38,785.43,769.34,779.31,133.79,-945.80,372.07,1.71,-3.95,1.31,262.60
11010,793.12,771.18,785.22,768.65,779.54,118.16,-897.95,434.08,-2.67,-3.63,2.36,262.29
11044,795.42,771.17,785.38,768.16,780.03,120.61,-942.38,384.77,-0.36,-5.95,4.35,265.64
11078,795.60,770.85,785.05,767.44,779.73,134.77,-899.41,406.25,0.34,-4.54,6.97,269.84
11111,793.71,770.71,784.83,766.63,778.97,123.54,-933.11,421.87,-0.44,-4.68,4.76,283.93
11145,790.81,770.71,784.71,766.16,778.10,122.07,-951.17,371.58,-6.18,-0.44,6.50,297.79
11178,786.25,770.50,783.84,765.30,776.47,152.34,-901.86,401.37,5.61,0.40,6.91,306.09
11212,783.37,770.12,782.96,764.53,775.25,110.35,-951.17,365.72,0.60,-1.05,-0.21,308.37
11246,775.86,769.84,782.47,764.03,773.05,131.35,-981.45,342.77,7.80,8.66,1.25,331.58
11279,769.86,769.90,782.56,763.92,771.56,152.34,-985.84,351.56,18.09,7.73,4.10,355.74
11313,765.50,769.61,783.76,764.54,770.85,121.58,-1026.86,497.56,29.79,8.33,14.83,393.88
11349,759.93,768.49,785.20,765.28,769.73,93.75,-1032.23,407.23,46.24,21.37,25.44,446.78
11384,756.35,767.73,786.54,765.90,769.13,-150.88,-664.55,453.12,13.79,-2.63,19.91,489.52
11418,755.93,767.11,786.83,766.00,768.97,68.36,-919.43,373.54,47.79,-22.98,25.34,501.46
11452,756.05,766.56,786.89,766.17,768.92,89.36,-765.14,507.32,27.62,-41.80,33.69,504.48
11486,756.16,766.40,787.18,766.34,769.02,163.09,-683.11,765.62,32.58,-1.99,11.89,510.09
11519,756.61,766.50,786.89,765.76,768.94,41.02,-903.81,490.23,-23.20,-3.06,-13.27,509.31
11554,758.59,766.43,785.37,764.87,768.81,46.39,-877.93,499.51,13.06,-8.00,-7.27,478.29
11588,760.89,766.39,782.74,763.64,768.41,38.09,-811.52,549.32,-3.50,-5.09,-20.37,423.12
11622,762.84,766.39,779.90,762.49,767.90,124.51,-952.64,474.61,-15.69,-7.07,-19.29,362.85
11656,764.23,766.38,777.91,761.80,767.58,105.47,-912.11,480.47,-4.12,-4.79,-5.62,318.65
11690,765.57,766.49,776.65,761.23,767.49,94.73,-912.60,499.51,-3.05,-2.85,-5.20,289.96
11724,767.38,765.78,774.95,760.69,767.20,82.03,-958.01,468.26,3.07,0.11,-3.72,255.07
11760,768.60,765.33,773.79,760.32,767.01,125.98,-857.91,515.14,-10.95,-12.74,0.36,231.25
11794,768.61,765.03,772.86,760.21,766.68,101.56,-968.75,472.17,0.09,3.55,-1.46,211.89
11828,768.81,764.56,771.61,760.16,766.29,73.73,-917.97,485.84,16.41,4.92,2.31,184.46
11862,768.80,764.04,770.59,759.88,765.83,55.18,-753.91,573.73,-10.29,-4.99,-4.20,167.45
11896,768.36,763.91,769.84,759.77,765.47,159.67,-826.66,464.84,-29.70,-13.37,-3.69,153.04
11931,767.29,763.74,769.28,759.51,764.96,131.35,-977.05,437.50,-23.14,-2.57,-2.72,147.91
11965,765.90,763.44,768.17,759.25,764.19,69.34,-895.02,508.79,-13.75,-4.97,0.31,131.37
11999,764.39,763.04,767.19,759.07,763.43,43.46,-906.25,499.51,-21.38,-23.37,8.09,117.97
12033,762.37,762.56,765.85,758.85,762.41,87.89,-939.45,465.82,-14.86,-30.63,8.05,98.54
12067,760.04,761.96,764.77,758.62,761.34,143.07,-997.07,380.37,-5.44,-33.23,14.69,87.83
12101,757.81,761.60,763.95,758.67,760.51,177.25,-1071.78,447.75,7.31,-28.85,4.17,77.26
12135,755.78,761.29,763.55,758.62,759.81,81.54,-947.75,356.93,39.95,-19.29,3.45,77.50
12171,753.73,761.07,763.34,758.66,759.20,-0.98,-1009.28,449.71,63.37,-47.70,13.89,80.28
12205,752.20,760.72,763.02,758.60,758.63,-90.33,-790.53,84.96,-53.22,-142.08,12.34,81.45
12239,751.52,760.56,762.89,758.61,758.39,342.29,-1368.16,54.20,-105.12,-189.35,-11.73,81.52
12273,751.10,760.38,762.74,758.60,758.20,315.92,-1009.28,-5.37,-3.79,-124.08,-19.12,81.07
12308,750.93,760.32,762.63,758.60,758.12,280.76,-1016.11,59.08,-61.70,-130.08,13.79,79.12
12343,750.89,760.16,762.52,758.52,758.02,474.61,-1221.19,39.06,-38.45,-76.69,18.55,79.07
12377,750.73,760.10,762.54,758.49,757.97,230.47,-803.22,55.66,-44.82,-38.47,23.35,81.10
12412,750.73,760.11,762.44,758.56,757.96,127.44,-977.05,142.09,-73.38,-55.50,43.01,77.54
12446,750.74,760.02,762.33,758.61,757.92,268.55,-994.14,162.11,-34.83,-34.76,51.37,74.78
12480,750.65,759.97,762.32,758.60,757.88,338.87,-766.11,143.55,-27.14,-2.52,47.15,75.20
12514,750.66,759.92,762.35,758.55,757.87,507.32,-870.61,202.64,-63.63,0.33,32.57,77.15
12548,750.63,759.87,762.28,758.60,757.84,627.44,-897.95,272.95,-25.82,31.90,24.95,75.11
12584,750.53,759.84,762.29,758.59,757.81,683.11,-960.45,272.95,-16.87,34.76,-12.73,76.13
12618,750.57,759.80,762.27,758.56,757.80,556.64,-962.40,323.73,-16.09,18.36,-33.02,76.24
12652,750.48,759.80,762.31,758.54,757.78,487.30,-1056.15,324.22,-3.60,2.40,-40.34,77.96
12686,750.48,759.69,762.17,758.55,757.72,312.99,-1069.82,252.93,17.57,0.53,-49.16,75.24
12719,750.34,759.68,762.09,758.58,757.67,244.14,-886.72,237.30,13.22,-3.83,-54.01,73.18
12753,750.31,759.65,762.08,758.64,757.67,231.45,-944.34,146.00,22.02,6.82,-49.05,72.50
12787,750.35,759.58,761.99,758.61,757.63,104.49,-875.00,27.83,33.89,25.20,-39.82,71.06
12820,750.32,759.60,761.94,758.62,757.62,-68.36,-920.41,35.16,-7.24,17.63,-34.35,69.60
12854,750.10,759.66,761.89,758.62,757.57,-180.66,-1205.08,86.43,-25.43,3.34,-36.79,68.61
12888,750.09,759.67,761.82,758.67,757.56,-228.03,-1232.42,135.74,-26.92,-1.25,-13.44,66.25
12922,750.04,759.60,761.71,758.65,757.50,-227.54,-1330.57,157.23,-25.28,-4.40,25.85,64.39
12955,750.02,759.64,761.64,758.61,757.48,-89.36,-1322.27,179.69,-15.89,-5.88,40.04,63.08
12991,750.05,759.62,761.70,758.64,757.50,115.72,-1208.50,137.70,-4.23,-14.18,41.40,64.24
13025,750.11,759.62,761.72,758.57,757.50,305.66,-1023.93,96.68,-3.66,-16.31,38.11,65.50
13058,750.08,759.69,761.67,758.57,757.50,451.17,-931.15,125.00,-1.26,-9.82,36.92,63.79
13092,750.08,759.57,761.58,758.64,757.47,503.91,-878.42,93.75,0.85,-9.20,26.03,61.52
13126,750.06,759.58,761.65,758.65,757.49,505.37,-842.29,71.78,-2.55,-13.35,17.25,62.99
13161,750.11,759.59,761.62,758.70,757.50,516.11,-813.48,65.43,-3.50,-15.32,12.42,61.39
13195,750.12,759.61,761.63,758.61,757.49,538.09,-820.80,21.48,2.86,-10.34,7.16,62.72
13229,750.08,759.55,761.56,758.59,757.45,496.09,-796.87,-15.14,6.89,-0.43,-8.96,61.95
13264,750.09,759.64,761.58,758.66,757.49,423.34,-775.39,-31.25,3.85,-2.21,-10.28,60.42
13299,750.14,759.65,761.55,758.63,757.49,358.89,-805.18,-1.46,-3.04,-9.69,-11.58,60.10
13333,750.10,759.57,761.57,758.69,757.48,383.79,-840.82,10.25,6.24,-10.11,-17.83,60.28
13367,750.02,759.61,761.50,758.61,757.44,325.20,-875.98,16.11,3.61,-12.11,-23.40,59.76
13403,750.00,759.56,761.47,758.64,757.42,313.48,-1001.95,-1.95,6.91,-5.29,-21.89,59.02
13437,749.99,759.60,761.40,758.65,757.41,291.99,-974.12,-4.88,6.02,14.18,-14.20,56.89
13471,749.98,759.59,761.49,758.63,757.42,315.43,-1068.85,32.71,-4.30,27.10,-18.39,59.37
13505,749.94,759.63,761.44,758.62,757.41,292.48,-961.91,27.34,5.45,29.41,-20.50,58.16
13539,749.96,759.63,761.47,758.57,757.41,259.28,-1063.96,62.01,-4.84,17.83,-13.96,59.77
13573,749.94,759.56,761.43,758.63,757.39,227.05,-1023.44,59.57,7.37,12.82,-12.30,58.28
13607,749.92,759.57,761.43,758.64,757.39,289.55,-1011.23,53.22,-0.31,-3.73,-12.50,58.27
13641,750.01,759.58,761.40,758.68,757.42,291.99,-984.86,30.76,1.83,-4.24,-9.56,56.41
13676,749.96,759.62,761.42,758.63,757.41,325.68,-954.10,31.74,-1.78,-4.27,-6.95,57.65
13710,749.94,759.61,761.41,758.66,757.40,321.78,-920.90,23.93,-0.82,0.60,-5.98,57.10
13744,750.05,759.56,761.40,758.64,757.41,318.85,-946.29,47.85,-6.73,1.53,-4.72,57.18
13778,749.98,759.58,761.39,758.59,757.39,307.62,-885.74,62.50,-7.64,-1.42,-3.91,57.72
13814,750.05,759.61,761.40,758.65,757.42,312.50,-962.89,70.31,-3.31,-0.56,-0.73,56.63
13848,749.99,759.58,761.38,758.59,757.39,330.08,-967.29,58.59,7.50,5.79,-6.69,57.33
13882,749.95,759.64,761.41,758.63,757.41,335.94,-917.97,71.78,3.05,8.20,2.11,57.29
13916,749.98,759.58,761.34,758.61,757.38,361.82,-944.82,55.18,1.98,4.72,1.98,56.22
13950,749.93,759.59,761.42,758.67,757.40,387.70,-932.13,58.59,1.57,0.38,-2.55,57.53
13984,749.94,759.62,761.37,758.62,757.39,400.88,-877.44,69.34,3.51,0.80,-0.43,56.61
14018,749.98,759.57,761.32,758.65,757.38,391.60,-920.41,41.50,7.05,6.57,-5.73,54.97
14053,749.99,759.57,761.28,758.62,757.37,373.54,-893.07,56.15,7.90,14.75,-2.53,54.49
14087,749.96,759.58,761.31,758.60,757.36,332.52,-897.46,41.02,2.69,9.26,-7.30,55.68
14121,749.94,759.63,761.34,758.62,757.38,308.11,-884.77,70.31,3.94,5.08,-0.43,55.91
14155,749.96,759.51,761.36,758.57,757.35,357.42,-980.47,86.43,4.53,1.37,0.17,57.92
14189,749.96,759.66,761.34,758.49,757.36,351.56,-998.05,73.24,4.35,8.92,-1.76,57.36
14226,749.97,759.61,761.35,758.58,757.37,351.56,-1032.23,99.61,4.09,10.04,0.27,56.58
14261,749.94,759.56,761.38,758.66,757.38,354.49,-997.07,93.75,7.28,3.76,0.60,56.65
14294,749.92,759.56,761.35,758.58,757.35,377.93,-977.05,82.03,2.68,-6.92,4.61,57.12
14328,749.98,759.61,761.34,758.57,757.37,434.57,-972.17,73.73,1.20,-4.26,1.07,56.46
14361,749.92,759.57,761.39,758.62,757.37,407.71,-920.90,57.62,-0.85,3.18,3.30,57.37
14395,749.92,759.62,761.34,758.62,757.38,413.57,-947.27,90.33,-3.69,1.76,-1.92,56.01
14428,749.89,759.64,761.30,758.53,757.34,404.79,-943.85,101.56,1.60,2.56,-5.34,56.01
14462,749.93,759.54,761.30,758.57,757.33,399.41,-931.64,83.50,3.64,1.90,-6.84,56.25
14496,749.93,759.58,761.30,758.57,757.35,402.34,-924.80,81.05,2.50,6.89,-4.64,55.99
14530,749.92,759.54,761.27,758.63,757.34,382.32,-961.43,105.47,1.03,8.76,-4.67,54.51
14564,749.93,759.59,761.29,758.67,757.37,362.30,-946.78,123.54,5.03,14.75,-2.89,54.12
14599,749.90,759.58,761.25,758.66,757.35,353.03,-998.05,123.54,3.86,8.57,-2.81,53.39
14633,749.96,759.57,761.32,758.63,757.37,322.27,-943.36,131.35,6.92,3.53,-4.63,55.52
14667,749.88,759.62,761.37,758.62,757.37,376.95,-963.38,111.33,9.34,2.93,1.62,56.91
14700,749.90,759.56,761.30,758.63,757.35,399.90,-923.34,72.27,11.51,9.11,-0.53,55.46
14735,749.99,759.57,761.24,758.62,757.35,356.45,-894.53,58.59,4.67,10.75,-2.16,53.66
14769,749.96,759.61,761.31,758.66,757.39,354.98,-899.90,82.03,2.20,5.19,0.02,54.60
14803,749.90,759.61,761.31,758.70,757.38,373.05,-898.44,125.00,-1.82,-4.18,-0.17,54.04
14837,749.95,759.63,761.32,758.66,757.39,397.95,-912.11,125.00,2.70,-4.69,-6.81,54.82
14871,749.84,759.68,761.35,758.65,757.38,416.50,-911.62,123.05,2.02,-2.18,-4.33,55.51
14905,750.12,759.62,761.31,758.65,757.42,445.31,-954.59,102.05,7.66,4.92,-4.46,54.01
14939,750.26,759.57,761.34,758.66,757.46,516.11,-708.98,-93.26,25.09,27.56,14.18,54.51
14973,750.29,759.61,761.24,758.63,757.44,333.98,-1108.89,120.12,14.89,3.48,9.73,52.16
15009,750.36,759.64,761.32,758.58,757.48,402.83,-894.04,113.77,19.63,18.69,-5.14,54.33
15043,750.47,759.58,761.29,758.61,757.49,376.46,-863.77,207.03,4.37,20.10,3.45,53.24
15077,750.67,759.61,761.28,758.61,757.54,353.03,-904.30,241.70,13.27,13.42,6.02,52.14
15112,751.06,759.76,761.27,758.59,757.67,379.39,-898.44,213.38,16.89,9.01,9.82,49.59
15147,751.50,759.66,761.29,758.57,757.76,366.70,-939.94,166.02,14.44,8.44,12.15,49.58
15181,751.78,759.67,761.26,758.59,757.82,357.91,-960.45,169.92,15.11,11.65,8.63,47.53
15216,752.03,759.68,761.24,758.48,757.86,340.33,-933.11,239.26,12.89,11.18,5.49,47.73
15250,752.31,759.80,761.27,758.56,757.99,340.82,-903.32,251.46,7.66,10.88,6.31,45.46
15284,752.67,759.71,761.27,758.65,758.08,358.89,-913.57,220.70,11.24,3.47,7.53,43.47
15318,753.18,759.68,761.32,758.65,758.21,356.45,-944.34,208.98,10.81,4.92,9.56,43.31
15352,753.66,759.76,761.29,758.64,758.34,343.75,-934.08,227.54,13.85,10.37,9.10,40.47
15386,754.24,759.69,761.27,758.67,758.47,323.24,-908.20,282.71,14.34,10.68,8.37,38.13
15422,754.88,759.74,761.23,758.67,758.63,315.43,-911.62,302.25,13.41,9.92,9.96,34.53
15456,755.46,759.83,761.16,758.65,758.77,314.94,-911.13,293.46,10.24,5.01,14.20,30.44
15490,756.02,759.87,761.23,758.64,758.94,291.50,-947.27,263.18,8.39,5.11,10.05,29.94
15524,756.42,759.76,761.27,758.65,759.02,303.22,-940.92,280.27,8.61,8.08,13.60,30.25
15558,756.68,759.76,761.28,758.68,759.10,274.90,-953.61,306.15,4.11,6.80,10.25,29.20
15593,756.70,759.83,761.32,758.70,759.14,285.16,-919.92,296.39,5.46,2.67,6.57,29.25
15627,756.72,759.83,761.32,758.65,759.13,270.51,-942.87,289.06,3.35,0.81,3.57,29.91
15661,756.65,759.78,761.26,758.61,759.08,282.71,-913.09,278.81,2.06,2.57,6.27,29.74
15695,756.38,759.81,761.26,758.53,759.00,298.83,-896.97,277.34,6.94,3.16,12.29,31.56
15729,756.19,759.65,761.24,758.62,758.93,294.43,-878.91,264.16,6.50,8.28,23.66,31.63
15763,755.97,759.63,761.28,758.57,758.86,263.67,-892.09,293.95,6.01,6.64,30.64,34.15
15797,755.72,759.58,761.28,758.56,758.78,240.72,-877.44,379.39,10.79,11.21,41.23,35.88
15833,755.33,759.51,761.20,758.57,758.65,214.36,-941.89,299.32,-1.97,10.56,46.08,35.52
15867,755.25,759.54,761.31,758.63,758.68,152.83,-1009.28,302.25,2.52,13.50,47.31,37.45
15901,755.24,759.58,761.24,758.70,758.69,107.91,-1047.85,314.45,7.89,7.69,29.05,34.41
15935,755.11,759.51,761.27,758.75,758.66,24.41,-887.70,470.70,14.20,-1.08,-0.68,35.33
15968,754.97,759.53,761.27,758.71,758.62,138.67,-936.04,306.15,-9.65,-0.76,1.73,36.16
16002,754.94,759.59,761.27,758.71,758.63,153.32,-973.63,262.70,4.21,3.86,0.06,35.93
16036,755.10,759.62,761.36,758.67,758.69,147.46,-960.94,308.11,4.99,4.40,2.36,37.90
16069,754.96,759.65,761.30,758.66,758.64,119.63,-963.87,343.26,-3.06,0.08,-2.36,36.87
16104,754.52,759.55,761.27,758.73,758.52,134.77,-976.07,300.78,-17.31,-4.31,-2.18,37.21
16139,753.72,759.52,761.23,758.69,758.29,112.30,-1006.35,333.01,-26.56,-13.21,-2.89,39.85
16172,752.94,759.55,761.26,758.76,758.13,58.59,-930.18,371.58,5.03,-14.09,2.01,42.06
16206,752.58,759.65,761.19,758.81,758.06,66.89,-840.33,316.41,9.14,-24.59,19.61,39.97
16242,752.35,759.57,761.30,758.83,758.01,318.85,-991.21,102.54,-10.27,2.65,3.82,43.83
16275,751.93,759.61,761.31,758.83,757.92,41.99,-954.59,361.82,12.50,10.75,-1.69,45.04
16309,751.80,759.63,761.36,758.92,757.93,60.06,-974.12,318.85,7.44,9.12,-0.74,45.46
16343,751.86,759.69,761.42,758.99,757.99,258.30,-894.53,312.99,5.57,0.27,1.21,45.32
16377,751.98,759.90,761.43,758.87,758.05,170.41,-996.58,185.06,0.84,5.27,1.02,45.14
16411,752.54,759.82,761.52,758.90,758.19,112.30,-961.91,350.10,16.27,6.97,-0.11,45.68
16445,752.57,759.84,761.58,758.94,758.23,136.23,-944.34,315.92,7.02,3.65,1.11,46.36
16480,752.43,759.75,761.50,758.95,758.16,124.51,-954.59,310.06,-2.81,3.49,-0.27,45.42
16514,752.23,759.73,761.38,758.81,758.04,152.34,-974.12,315.43,-0.82,2.71,2.22,45.34
16548,752.08,759.76,761.48,758.93,758.06,129.39,-954.10,318.36,-1.05,1.18,-1.51,46.21
16582,751.82,759.79,761.47,758.93,758.00,134.28,-935.06,334.47,-5.03,0.51,-0.89,46.81
16616,751.67,759.71,761.42,758.97,757.94,145.51,-952.15,296.39,-4.73,-2.21,-0.56,46.04
16652,751.65,759.66,761.46,758.92,757.92,133.79,-949.22,318.85,-3.02,0.89,0.21,48.29
16686,751.48,759.62,761.38,758.92,757.85,156.25,-979.98,287.60,-1.37,2.07,1.69,47.02
16720,751.32,759.64,761.34,758.96,757.82,89.36,-952.15,314.45,-3.64,-1.33,0.60,45.88
16754,751.11,759.60,761.29,758.86,757.72,40.04,-975.59,303.71,-7.38,4.79,-2.15,47.19
16788,751.04,759.72,761.36,758.90,757.76,-16.11,-979.98,317.87,-0.05,11.54,-3.11,47.73
16822,751.12,759.76,761.42,758.96,757.81,166.50,-980.96,298.34,1.62,9.19,-3.16,47.77
16856,751.26,759.67,761.49,758.95,757.84,390.14,-959.47,258.79,5.64,2.85,1.11,49.72
16890,751.62,759.78,761.47,758.99,757.97,144.04,-947.75,335.45,17.10,10.27,1.53,46.66
16924,752.38,759.86,761.68,759.05,758.24,162.60,-934.08,306.15,19.40,8.53,-2.68,47.74
16959,752.69,760.05,761.88,759.09,758.43,131.84,-937.50,330.57,8.66,0.28,1.32,49.53
16993,752.72,760.03,762.00,759.13,758.47,134.77,-966.80,320.80,-0.95,3.03,3.32,51.83
17028,752.76,759.99,761.86,759.14,758.44,139.65,-954.59,315.43,0.01,2.16,-0.01,48.43
17064,752.90,760.00,761.95,759.10,758.49,136.23,-955.08,327.64,-0.80,2.40,-0.16,50.60
17098,753.00,760.02,761.85,759.08,758.49,137.70,-960.94,310.55,3.56,2.87,1.02,48.06
17132,753.09,760.03,761.88,759.01,758.50,146.97,-954.10,319.82,-0.06,1.78,1.83,49.60
17166,753.19,760.09,761.81,759.12,758.55,141.11,-954.59,320.80,-0.11,1.46,0.60,45.18
17201,753.36,759.96,761.82,759.03,758.54,137.70,-955.08,326.66,-0.67,-0.66,-1.79,47.23
17235,753.52,760.00,761.84,758.99,758.59,150.39,-945.31,332.52,0.69,3.26,0.76,47.46
17269,753.74,759.94,761.91,759.01,758.65,135.25,-957.52,317.87,1.63,-0.69,0.79,48.77
17303,754.00,759.96,761.87,759.04,758.72,141.60,-956.54,322.27,-0.57,1.73,1.26,46.26
17337,754.26,759.98,761.88,759.04,758.79,143.55,-957.03,324.22,3.21,1.06,-1.60,45.54
17371,754.34,759.96,761.88,759.04,758.81,139.16,-953.61,326.17,0.09,1.81,2.05,45.23
17405,754.47,760.09,761.86,759.00,758.85,144.53,-950.20,319.82,2.84,3.56,-0.62,44.01
17439,754.51,760.03,761.88,758.94,758.84,133.79,-955.08,336.43,2.11,0.53,-0.21,45.57
17475,754.62,760.07,761.83,758.99,758.88,131.84,-939.45,333.50,0.78,1.31,0.64,42.88
17510,754.65,760.07,761.89,758.97,758.90,139.65,-957.52,329.10,-1.49,2.34,1.49,44.53
17543,754.66,760.05,761.85,759.05,758.91,134.77,-958.01,328.12,-0.24,0.44,-0.48,42.54
17577,754.71,760.00,761.91,759.04,758.91,136.23,-949.22,327.64,1.46,0.85,-2.17,44.41
17610,754.67,759.96,761.90,758.95,758.87,135.25,-946.78,323.73,0.57,0.89,-0.66,45.78
17644,754.71,760.02,761.91,759.06,758.92,140.62,-951.17,326.66,-0.31,0.26,0.00,44.03
17677,754.74,759.95,761.93,759.04,758.91,142.58,-953.12,335.45,-0.64,1.13,0.09,45.28
17711,754.79,759.93,761.94,758.98,758.91,138.18,-952.15,330.08,2.31,1.30,1.68,46.42
17745,754.77,760.00,761.92,759.00,758.92,137.70,-949.22,324.22,-0.05,2.47,0.15,45.13
17779,754.81,760.08,761.91,759.00,758.95,131.84,-937.01,332.03,-0.32,-0.95,-0.29,44.11
17813,754.84,760.06,761.92,759.08,758.98,144.53,-959.47,323.73,-1.63,1.87,-0.30,43.22
17848,754.88,760.17,761.95,759.10,759.02,132.81,-937.99,324.71,-1.08,1.37,-1.01,42.61
17882,754.90,760.07,761.86,759.12,758.99,133.79,-958.98,321.78,1.55,-0.42,0.55,40.73
17916,754.95,760.02,762.02,759.08,759.02,137.21,-949.71,313.48,1.00,0.56,2.47,45.55
17949,755.02,760.02,761.92,759.01,758.99,139.16,-946.29,325.68,-0.76,2.94,1.42,43.86
17985,755.13,760.14,761.94,759.02,759.06,132.32,-946.78,330.08,0.59,1.63,1.97,43.02
18019,755.17,760.08,761.99,758.99,759.06,141.11,-948.24,328.12,1.02,2.48,-1.43,44.92
18053,755.15,760.10,761.98,759.04,759.07,131.84,-954.59,334.96,0.66,0.63,0.61,43.76
18088,755.14,759.96,761.92,759.07,759.02,136.72,-951.66,325.68,-0.44,-0.22,-0.11,43.21
18122,755.02,760.02,761.96,758.99,759.00,134.77,-956.54,334.47,-0.51,3.72,0.72,45.23
18156,755.00,760.00,761.90,759.07,758.99,136.23,-953.61,334.47,0.05,-0.15,0.51,42.68
18190,755.03,760.05,761.93,759.01,759.00,125.00,-944.82,333.01,1.24,1.35,1.77,43.98
18224,755.00,760.06,761.90,759.03,758.99,138.18,-951.66,325.68,0.50,1.57,1.30,42.88
18260,755.01,759.98,761.98,759.01,758.99,145.51,-959.47,318.36,-0.43,3.18,1.20,45.75
18294,755.03,760.05,761.97,759.10,759.04,148.93,-955.57,330.57,0.08,1.02,0.33,43.64
18328,755.04,760.01,761.91,759.07,759.01,131.84,-960.45,335.94,1.36,0.40,2.41,42.92
18362,755.02,760.07,761.97,759.03,759.02,137.70,-942.87,323.24,-0.37,1.44,1.96,44.38
18396,754.97,760.04,761.96,759.07,759.01,140.62,-950.68,326.17,-0.76,-0.64,0.54,44.17
18430,754.83,760.06,761.91,759.11,758.98,138.18,-949.71,317.87,-1.05,3.44,-0.15,42.51
18465,754.86,760.00,761.89,758.98,758.93,130.86,-951.66,316.89,0.78,1.50,-1.33,44.21
18499,754.70,759.99,761.85,759.01,758.89,137.70,-946.78,324.71,-0.21,2.52,-0.73,43.34
18533,754.73,760.00,761.90,758.97,758.90,137.21,-950.20,322.75,-0.18,2.57,-1.50,45.13
18567,754.71,759.95,761.91,758.93,758.87,130.37,-949.71,320.31,-0.26,0.47,1.02,46.39
18601,754.65,759.93,761.82,758.99,758.85,137.21,-945.80,320.80,-0.07,2.65,-0.06,43.72
18635,754.65,759.95,761.89,758.99,758.87,139.16,-955.08,327.15,-0.92,0.81,0.09,45.27
18671,754.61,759.95,761.81,759.00,758.84,126.95,-944.82,318.36,-0.34,2.45,-0.21,43.28
18705,754.56,759.88,761.85,758.95,758.81,142.58,-961.43,315.43,-2.32,0.69,2.60,45.73
18739,754.58,759.85,761.83,758.95,758.80,146.48,-954.10,316.41,-0.78,1.45,1.05,45.29
18773,754.57,759.89,761.79,759.03,758.82,130.37,-947.27,325.68,-1.12,2.82,1.33,43.06
18807,754.51,759.88,761.83,758.95,758.79,137.21,-965.33,310.06,-0.01,0.13,0.47,45.38
18842,754.45,759.88,761.85,758.94,758.78,124.51,-946.78,316.41,0.00,2.01,-1.61,46.16
18876,754.43,759.85,761.77,759.00,758.76,139.65,-962.40,309.57,0.36,1.31,0.84,43.75
18911,754.30,759.92,761.71,759.02,758.74,146.48,-950.20,321.78,0.99,0.20,2.95,41.93
18945,754.36,759.84,761.81,759.01,758.75,139.16,-956.54,318.85,-2.26,1.53,1.98,44.85
18980,754.33,759.87,761.76,758.99,758.74,126.95,-949.22,328.61,-1.98,0.68,2.22,43.74
19014,754.24,759.85,761.77,758.91,758.69,141.60,-958.98,313.96,0.56,1.15,0.62,45.59
19048,754.23,759.86,761.76,758.90,758.69,131.35,-953.12,312.50,-0.85,0.98,1.31,45.60
19084,754.31,759.85,761.77,759.00,758.73,134.77,-957.03,324.22,0.52,0.13,1.85,43.96
19118,754.39,759.84,761.78,759.01,758.75,136.23,-959.47,321.78,0.05,3.57,-2.37,44.09
19152,754.42,759.93,761.90,759.02,758.82,145.51,-954.10,320.80,1.43,2.36,0.98,46.01
19186,754.51,759.86,761.88,758.96,758.80,142.58,-950.20,318.36,0.44,2.50,1.95,46.78
19219,754.68,759.93,761.95,759.03,758.90,147.95,-952.15,317.87,3.10,3.36,0.62,46.36
19253,754.82,759.95,761.96,759.03,758.94,132.32,-938.96,324.71,2.98,1.44,-0.54,45.92
19286,754.90,760.03,762.04,759.14,759.03,136.72,-959.47,327.15,0.75,1.90,-2.47,45.34
19320,755.03,760.07,762.07,759.13,759.07,129.39,-950.20,331.05,3.17,1.37,0.31,45.37
19353,755.16,760.13,762.13,759.20,759.16,149.41,-940.92,337.40,0.75,2.91,2.48,44.99
19388,755.24,760.12,762.13,759.19,759.17,138.67,-945.80,331.54,-0.57,2.34,-0.77,44.87
19421,755.27,760.12,762.27,759.18,759.21,136.23,-948.73,339.36,1.52,0.21,-1.39,48.46
19455,755.30,760.17,762.28,759.21,759.24,140.62,-960.94,334.96,0.94,1.05,2.55,47.79
19491,755.39,760.15,762.24,759.30,759.27,138.18,-948.73,324.71,1.60,1.57,1.95,45.28
19524,755.43,760.14,762.26,759.23,759.26,135.74,-954.59,332.03,2.32,2.77,1.47,46.65
19558,755.46,760.22,762.25,759.26,759.30,152.34,-964.84,333.01,0.40,3.33,-1.75,45.28
19592,755.43,760.21,762.20,759.20,759.26,148.93,-951.17,320.31,-0.87,-0.83,1.02,45.18
19626,755.42,760.18,762.28,759.23,759.28,131.35,-958.98,323.73,-1.20,2.40,0.76,46.81
19660,755.48,760.20,762.28,759.22,759.29,140.14,-965.82,333.50,1.61,3.26,-1.02,46.69
19694,755.48,760.20,762.27,759.16,759.28,142.09,-928.22,337.89,2.65,2.87,-1.38,47.43
19729,755.55,760.21,762.21,759.17,759.29,132.32,-948.24,334.96,1.81,2.24,0.02,45.34
19763,755.44,760.18,762.34,759.21,759.29,146.97,-952.15,325.68,1.81,1.31,-2.28,48.64
19797,755.46,760.22,762.25,759.24,759.29,138.67,-939.94,319.82,0.28,1.71,0.40,45.63
19831,755.52,760.21,762.27,759.16,759.29,141.60,-946.78,320.80,-0.19,3.15,2.07,47.24
19867,755.52,760.17,762.25,759.16,759.28,141.11,-937.99,331.05,0.64,1.18,0.63,47.13
19903,755.50,760.19,762.22,759.14,759.26,143.55,-958.50,313.48,-0.65,-2.18,0.55,46.61
19937,755.54,760.21,762.26,759.18,759.29,152.34,-948.24,319.34,-0.76,1.63,-1.31,46.59
19971,755.52,760.22,762.25,759.14,759.28,147.46,-954.10,326.17,2.46,0.34,3.47,46.88
20005,755.52,760.15,762.25,759.25,759.29,132.32,-955.57,331.05,0.21,2.04,-0.46,45.94
20039,755.58,760.19,762.24,759.17,759.30,130.86,-958.50,323.73,1.82,2.05,0.93,46.18
20073,755.69,760.24,762.28,759.17,759.35,142.58,-956.05,325.20,1.23,-0.37,-0.23,46.31
20107,755.75,760.15,762.32,759.20,759.36,144.04,-956.54,327.15,1.23,-0.50,1.18,47.53
20141,755.83,760.27,762.36,759.21,759.42,136.72,-947.27,342.77,2.91,1.24,0.63,47.10
20176,755.84,760.29,762.40,759.25,759.44,143.07,-941.41,340.82,1.40,2.34,-2.54,47.24
20210,755.76,760.30,762.43,759.24,759.43,152.34,-947.27,326.17,3.42,3.44,3.02,48.56
20244,755.54,760.38,762.54,759.22,759.42,136.23,-930.66,333.98,5.34,0.37,2.29,51.69
20278,755.21,760.62,762.84,759.44,759.53,134.28,-954.10,331.54,4.88,3.18,0.64,54.88
20314,754.89,760.76,763.14,759.46,759.56,129.39,-953.12,327.15,5.51,3.59,0.97,62.21
20348,754.72,760.81,763.41,759.51,759.61,135.74,-949.22,344.24,4.41,-0.27,1.35,68.45
20382,754.69,760.93,763.61,759.64,759.72,140.14,-945.31,351.07,0.42,1.02,2.79,70.50
20416,754.82,760.86,763.58,759.62,759.72,134.77,-950.68,353.52,-0.95,3.56,-0.27,70.24
20450,755.04,760.72,763.42,759.60,759.70,140.62,-951.66,340.82,-0.89,1.01,0.10,66.80
20484,755.37,760.69,763.32,759.43,759.70,140.62,-947.27,334.96,-1.24,0.44,0.24,65.99
20518,755.63,760.57,763.19,759.36,759.69,138.67,-951.17,330.08,-2.24,3.40,-1.21,63.92
20552,755.81,760.49,763.12,759.36,759.70,138.67,-955.08,333.01,1.07,-0.73,-0.60,62.06
20587,755.89,760.47,763.02,759.31,759.67,148.44,-948.24,340.82,-0.17,2.18,-1.73,60.33
20621,756.03,760.46,762.97,759.34,759.70,128.91,-948.24,353.03,-2.46,1.56,0.44,58.20
20655,756.11,760.47,762.94,759.30,759.71,143.07,-949.71,345.70,-0.95,2.04,1.17,57.78
20689,756.12,760.48,762.97,759.38,759.74,133.79,-957.03,333.01,-1.39,1.59,-1.69,57.06
20725,756.15,760.50,762.92,759.20,759.69,127.93,-948.24,329.59,-0.93,1.15,-0.73,58.19
20759,756.17,760.47,762.99,759.32,759.74,148.44,-947.27,335.94,-0.56,2.77,-0.58,58.40
20795,756.17,760.47,762.91,759.34,759.72,126.46,-946.78,346.19,-0.89,0.66,-0.17,56.11
20828,756.20,760.54,762.94,759.32,759.75,139.16,-951.66,341.80,-0.13,1.58,-2.40,56.36
20862,756.20,760.49,762.91,759.30,759.72,132.81,-948.24,338.38,-1.33,0.81,-2.01,56.41
20895,756.25,760.45,762.89,759.37,759.74,149.41,-958.50,335.45,0.27,1.51,0.08,55.24
20929,756.17,760.52,762.94,759.32,759.74,141.11,-946.78,330.08,0.76,3.67,0.37,56.78
20962,756.18,760.50,762.91,759.35,759.74,133.30,-938.96,335.94,-0.22,-0.56,-2.86,55.72
20996,756.17,760.48,762.93,759.36,759.73,150.39,-948.24,347.17,-0.29,1.96,-0.37,56.19
21030,756.19,760.45,762.97,759.34,759.74,145.51,-943.85,346.19,-0.53,1.45,1.40,57.81
21064,756.16,760.46,762.86,759.32,759.70,132.81,-938.96,328.12,0.20,-1.06,-0.46,55.40
21100,756.17,760.52,762.94,759.31,759.74,154.79,-943.85,345.70,1.66,1.05,-0.18,56.88
21133,756.17,760.52,762.88,759.39,759.74,133.30,-939.45,331.54,-0.33,1.51,-0.46,54.38
21167,756.16,760.52,762.92,759.24,759.71,138.67,-953.61,345.21,1.44,3.38,1.05,57.38
21201,756.19,760.45,762.88,759.25,759.69,127.44,-944.34,334.96,1.06,3.42,2.72,56.74
21235,756.15,760.43,762.92,759.32,759.71,134.77,-955.57,335.94,-0.67,1.75,0.08,57.10
21269,756.10,760.36,762.88,759.29,759.66,120.12,-948.24,344.24,1.47,-0.85,-1.58,57.32
21303,756.17,760.40,762.89,759.27,759.68,133.30,-941.89,337.40,-1.08,1.54,-1.07,57.31
21338,756.11,760.33,762.87,759.25,759.64,136.23,-950.20,349.12,-1.22,1.89,-1.21,57.69
21372,756.11,760.41,762.86,759.33,759.68,139.16,-957.03,347.66,0.01,-0.51,-1.50,55.73
21455,756.21,760.39,762.87,759.29,759.69,145.02,-941.89,335.94,0.88,2.70,0.43,56.48
21491,756.16,760.34,762.86,759.33,759.67,132.32,-958.50,329.10,0.43,1.52,0.18,55.95
21563,756.21,760.40,762.82,759.34,759.69,144.53,-957.03,332.52,0.45,0.05,1.65,54.26
21615,756.16,760.34,762.89,759.30,759.67,131.84,-942.38,330.57,0.53,3.08,1.40,57.26
21649,756.18,760.38,762.88,759.34,759.69,131.84,-945.31,343.26,0.08,0.76,0.24,56.04
21683,756.13,760.42,762.79,759.28,759.65,137.70,-945.80,328.12,0.06,0.67,1.73,54.54
21717,756.18,760.37,762.85,759.34,759.68,136.23,-951.17,331.54,0.11,1.67,0.34,55.28
21752,756.21,760.37,762.86,759.31,759.69,140.14,-946.78,336.91,0.79,2.27,-2.05,55.96
21786,756.24,760.41,762.78,759.31,759.68,143.07,-953.12,341.80,-1.02,0.79,0.98,53.53
21820,756.23,760.41,762.81,759.32,759.69,139.65,-951.17,335.94,0.46,-0.02,-0.64,54.36
21854,756.18,760.41,762.87,759.33,759.70,141.60,-949.22,325.20,1.32,0.18,0.89,55.72
21888,756.19,760.49,762.88,759.28,759.71,131.35,-952.15,347.66,-1.96,1.03,0.54,55.89
21922,756.28,760.48,762.86,759.31,759.73,129.88,-946.78,333.01,1.26,2.19,0.53,54.75
21956,756.18,760.38,762.83,759.37,759.69,132.81,-958.50,332.03,1.59,1.72,1.95,54.52
21990,756.27,760.41,762.85,759.30,759.71,139.65,-946.29,331.05,1.21,0.89,1.82,55.43
22026,756.17,760.40,762.93,759.30,759.70,144.53,-944.34,328.61,-1.55,5.11,1.84,57.84
22060,756.18,760.46,762.85,759.32,759.70,146.97,-946.78,342.29,-0.15,-0.56,-0.50,54.91
22095,756.27,760.43,762.92,759.30,759.73,126.95,-954.10,337.89,-1.59,3.25,0.66,56.94
22129,756.27,760.36,762.94,759.25,759.71,134.77,-948.73,335.45,-1.50,1.94,-0.92,58.70
22163,756.27,760.41,762.90,759.31,759.72,141.11,-944.34,329.59,-1.27,-0.08,1.19,56.62
22197,756.25,760.40,762.89,759.26,759.70,137.70,-944.82,338.87,1.21,0.26,-0.28,57.19
22231,756.24,760.38,762.91,759.33,759.71,134.77,-958.50,328.12,0.26,0.00,2.26,56.72
22265,756.19,760.48,762.91,759.33,759.73,138.18,-940.43,344.24,1.93,1.50,-0.54,56.20
22301,756.20,760.33,762.91,759.28,759.68,153.32,-952.15,331.54,0.44,0.58,-1.10,58.04
22336,756.23,760.37,762.90,759.30,759.70,134.28,-956.05,334.47,1.72,0.95,2.67,57.08
22370,756.21,760.37,762.90,759.26,759.68,131.84,-953.12,336.43,2.46,1.37,1.40,57.77
22404,756.28,760.49,762.93,759.31,759.75,148.93,-955.57,342.29,0.18,-0.92,-1.66,56.54
22440,756.30,760.41,762.87,759.27,759.71,138.67,-947.27,338.87,0.85,0.56,-0.40,56.43
22474,756.25,760.41,762.94,759.30,759.73,138.18,-958.50,339.36,-0.97,-0.05,-0.82,57.61
22509,756.31,760.43,762.86,759.27,759.72,147.46,-957.52,338.87,1.16,0.16,1.37,55.81
22542,756.19,760.41,762.87,759.36,759.71,142.09,-950.68,331.54,-1.34,1.15,0.02,55.24
22576,756.19,760.43,762.89,759.33,759.71,134.28,-951.66,345.70,0.27,3.44,2.30,55.87
22609,756.26,760.47,762.90,759.31,759.74,146.00,-948.73,343.75,0.98,1.05,-2.47,56.15
22643,756.22,760.40,762.90,759.24,759.69,131.84,-947.27,341.31,-1.41,1.93,-0.15,57.64
22676,756.24,760.48,762.91,759.32,759.74,139.65,-942.38,334.47,-0.19,-0.47,1.73,56.06
22710,756.20,760.43,762.87,759.26,759.69,139.65,-952.64,337.89,0.95,1.76,-0.09,56.61
22745,756.27,760.44,762.91,759.40,759.76,143.55,-955.08,339.84,-1.11,-0.05,-1.49,55.25
22778,756.26,760.41,762.85,759.25,759.69,132.32,-944.82,340.33,0.78,0.56,0.18,56.19
22812,756.25,760.44,762.90,759.33,759.73,143.07,-947.27,334.47,-0.32,2.29,3.30,55.95
22848,756.21,760.43,762.92,759.34,759.72,143.55,-947.27,329.10,-1.05,1.37,0.90,56.49
22881,756.25,760.45,762.91,759.29,759.73,142.58,-947.27,348.14,0.04,-0.96,2.89,56.83
22915,756.31,760.43,762.84,759.34,759.73,141.11,-961.91,334.47,1.04,1.82,-0.73,54.30
22949,756.25,760.49,762.87,759.32,759.74,139.65,-943.36,338.87,-1.13,2.07,2.73,55.02
22983,756.26,760.44,762.91,759.27,759.72,128.91,-942.38,348.63,0.40,2.73,-0.87,57.13
23017,756.21,760.39,762.88,759.27,759.68,141.60,-946.78,342.77,-1.67,1.23,-0.04,56.91
23051,756.32,760.48,762.91,759.31,759.75,147.46,-952.64,341.80,-0.26,-1.04,0.58,55.93
23086,756.29,760.47,762.89,759.26,759.73,137.21,-946.78,327.64,0.68,2.30,1.27,56.47
23120,756.34,760.48,762.86,759.27,759.74,136.72,-939.94,330.57,-0.20,1.60,0.73,55.28
23154,756.29,760.45,762.87,759.35,759.74,139.16,-946.78,321.78,0.01,1.29,0.58,54.72
23188,756.26,760.49,762.88,759.38,759.75,130.37,-947.27,349.12,-1.37,-0.42,-2.79,54.32
23224,756.30,760.44,762.84,759.37,759.74,132.81,-947.75,333.50,0.48,1.21,-1.56,53.64
23260,756.27,760.58,762.87,759.32,759.76,144.04,-957.03,346.68,1.51,0.44,0.93,54.09
23294,756.26,760.46,762.94,759.29,759.74,133.79,-944.34,325.68,0.02,-0.73,1.74,57.33
23328,756.25,760.48,762.89,759.32,759.74,135.74,-944.82,325.68,-1.58,2.50,0.50,55.63
23362,756.34,760.53,762.84,759.36,759.77,143.55,-953.12,338.38,0.07,0.85,1.63,53.22
23396,756.29,760.45,762.87,759.36,759.74,140.62,-961.91,334.96,0.95,2.47,0.07,54.72
23431,756.29,760.47,762.87,759.37,759.75,129.88,-959.47,330.57,1.84,1.37,0.17,54.13
23465,756.33,760.45,762.96,759.40,759.79,130.86,-964.36,334.96,0.44,3.11,3.62,55.96
23499,756.32,760.49,762.93,759.35,759.78,145.02,-944.82,337.89,1.48,2.18,-1.97,55.68
23533,756.32,760.43,762.95,759.32,759.75,139.65,-948.24,324.71,0.30,-0.14,2.07,57.16
23567,756.37,760.51,762.91,759.34,759.78,133.79,-950.20,333.01,0.15,0.93,1.54,55.29
23601,756.32,760.48,762.88,759.32,759.75,138.18,-948.73,328.12,-0.98,-0.81,-0.38,55.09
23635,756.32,760.50,762.91,759.36,759.77,145.02,-960.94,342.29,-1.32,-0.24,3.80,55.17
23671,756.31,760.49,762.95,759.37,759.78,133.79,-942.87,328.61,-0.02,2.24,-0.69,56.05
23705,756.27,760.48,762.90,759.32,759.74,138.18,-957.52,354.49,0.18,2.01,-1.66,55.72
23739,756.31,760.45,762.86,759.30,759.73,143.07,-945.80,343.26,2.08,2.47,1.84,55.21
23774,756.30,760.52,762.99,759.34,759.79,134.28,-961.43,330.08,-0.52,-0.40,1.01,57.33
23808,756.31,760.52,762.95,759.30,759.77,139.65,-945.80,343.75,-0.23,0.10,-0.42,56.83
23842,756.33,760.52,762.95,759.28,759.77,138.67,-947.75,323.24,0.44,-1.65,3.50,57.14
23876,756.37,760.47,762.95,759.37,759.79,133.30,-949.71,339.36,2.20,1.18,-0.87,56.00
23910,756.33,760.51,762.93,759.35,759.78,150.88,-955.57,340.82,0.65,2.73,1.37,55.57
23944,756.30,760.52,762.86,759.27,759.74,135.74,-955.57,337.89,-0.21,2.53,-0.53,55.13
23978,756.34,760.45,762.89,759.32,759.75,144.53,-949.71,330.08,-0.92,0.27,0.50,55.44
24012,756.25,760.42,762.95,759.29,759.73,143.07,-945.80,341.31,1.56,0.44,0.98,58.12
24047,756.33,760.55,762.86,759.25,759.75,125.98,-951.17,343.75,0.16,3.42,-0.71,55.05
24082,756.36,760.45,762.90,759.32,759.76,141.11,-962.89,342.29,-1.28,2.29,2.62,55.76
24117,756.34,760.46,762.95,759.35,759.78,156.25,-945.80,332.52,0.15,-0.15,0.58,56.54
24153,756.37,760.45,762.90,759.42,759.78,131.84,-952.64,335.94,-0.11,2.53,1.39,54.38
24187,756.35,760.47,762.97,759.41,759.80,148.93,-945.80,333.01,0.87,2.73,1.69,55.94
24220,756.36,760.55,762.94,759.35,759.80,127.44,-933.59,331.54,-0.12,3.21,2.44,55.45
24254,756.42,760.44,762.92,759.39,759.79,147.46,-967.77,333.01,1.18,0.74,1.10,55.04
24287,756.33,760.52,762.95,759.43,759.81,137.21,-943.36,342.29,0.18,1.92,2.29,55.00
24321,756.37,760.54,762.94,759.40,759.81,128.42,-947.75,344.73,1.72,1.29,0.63,54.70
24354,756.40,760.47,762.91,759.36,759.78,140.62,-956.05,355.47,0.56,3.13,1.74,55.12
24389,756.32,760.54,762.93,759.44,759.81,133.79,-952.64,344.73,0.95,1.33,3.70,54.31
24422,756.38,760.50,762.89,759.46,759.81,128.42,-951.17,352.54,0.64,1.83,-0.15,52.85
24458,756.29,760.55,762.96,759.41,759.80,138.18,-957.52,346.68,2.02,0.21,-1.34,55.09
24492,756.39,760.53,762.93,759.45,759.82,136.23,-959.96,341.80,-1.53,1.17,-1.15,53.93
24526,756.33,760.52,762.85,759.41,759.78,149.90,-945.31,329.10,-0.40,1.57,3.08,52.65
24559,756.40,760.59,762.90,759.44,759.83,124.02,-954.10,328.12,-0.65,-0.05,0.47,52.71
24593,756.41,760.51,762.92,759.34,759.79,140.62,-943.85,335.45,-0.08,1.10,2.21,55.24
24627,756.37,760.56,762.92,759.44,759.82,138.18,-947.75,333.98,0.50,1.55,1.57,53.47
24662,756.49,760.55,762.95,759.41,759.85,128.42,-949.71,327.64,0.02,-0.31,0.87,54.38
24696,756.43,760.51,762.94,759.43,759.83,141.11,-949.22,340.33,2.01,-1.15,0.36,54.52
24730,756.39,760.59,762.90,759.40,759.82,130.37,-941.41,327.64,-0.26,1.33,0.56,53.23
24764,756.40,760.58,762.92,759.44,759.84,134.77,-946.78,336.91,-0.50,2.20,0.60,53.39
24798,756.37,760.63,762.86,759.48,759.83,137.21,-966.80,340.82,-0.29,-1.69,2.08,51.04
24832,756.40,760.52,762.91,759.46,759.82,134.77,-949.22,326.66,2.13,0.82,0.11,53.26
24868,756.38,760.55,762.91,759.41,759.81,135.25,-961.91,331.05,1.31,2.66,0.08,53.69
24902,756.38,760.52,762.86,759.40,759.79,146.48,-942.38,338.87,1.73,1.06,2.07,53.12
24936,756.35,760.55,762.90,759.39,759.80,142.09,-947.27,338.38,2.36,1.47,1.24,53.80
24971,756.37,760.48,762.93,759.46,759.81,140.14,-943.85,331.05,0.83,2.11,-2.05,54.13
25005,756.40,760.47,762.87,759.43,759.79,141.11,-959.96,331.05,1.31,-0.78,-0.76,52.98
25039,756.38,760.54,762.93,759.44,759.82,147.46,-950.68,337.40,0.77,2.02,0.79,53.86
25075,756.38,760.57,762.92,759.49,759.84,143.07,-947.27,335.45,1.44,0.49,-0.21,52.79
25109,756.42,760.54,762.93,759.47,759.84,143.55,-943.36,329.10,-0.21,0.42,0.48,53.25
25143,756.33,760.52,762.94,759.50,759.82,150.39,-957.52,322.27,-0.60,3.62,1.18,53.63
25177,756.44,760.54,762.96,759.48,759.85,137.21,-958.01,330.08,2.48,1.87,-1.08,53.81
25211,756.36,760.49,762.91,759.45,759.80,134.28,-950.68,333.50,2.43,1.14,1.00,53.87
25245,756.45,760.52,762.91,759.40,759.82,149.90,-951.66,339.36,0.19,0.66,4.15,54.00
25281,756.43,760.56,762.88,759.46,759.83,136.72,-944.34,347.66,0.31,2.38,-0.99,51.96
25315,756.34,760.55,762.96,759.41,759.82,138.18,-953.61,336.43,-1.55,2.02,0.20,55.07
25349,756.37,760.65,762.97,759.45,759.86,143.55,-940.43,328.61,1.95,1.20,1.01,53.73
25384,756.41,760.61,762.96,759.43,759.85,140.14,-953.12,349.12,0.63,1.89,1.43,54.07
25418,756.41,760.49,762.92,759.43,759.81,124.51,-954.10,326.66,1.05,1.31,0.35,54.19
25452,756.44,760.57,762.95,759.48,759.86,132.81,-935.06,333.01,0.62,-1.05,-1.95,53.29
25486,756.37,760.49,762.97,759.46,759.82,130.86,-957.52,340.82,2.47,1.02,1.30,55.01
25520,756.47,760.61,762.96,759.43,759.87,150.88,-954.10,336.91,-1.34,3.99,0.79,53.89
25554,756.45,760.63,762.98,759.44,759.87,127.93,-948.24,320.80,-1.09,2.47,-0.24,54.20
25588,756.41,760.55,762.95,759.38,759.82,135.74,-957.03,334.47,2.62,-1.06,0.99,55.03
25623,756.43,760.63,762.94,759.43,759.86,134.28,-954.59,333.01,0.58,4.88,2.85,53.52
25657,756.42,760.60,762.91,759.51,759.86,146.48,-949.71,342.77,-1.84,2.63,-0.73,51.88
25693,756.42,760.58,762.94,759.43,759.84,139.65,-954.59,323.73,-0.03,1.45,1.76,53.82
25727,756.33,760.57,762.88,759.46,759.81,137.70,-954.10,335.94,1.02,1.24,-0.73,52.48
25761,756.51,760.55,762.93,759.37,759.84,146.00,-958.01,335.94,1.11,0.64,-1.27,54.48
25795,756.44,760.57,762.99,759.51,759.88,137.21,-950.68,339.84,-1.19,0.58,-1.04,53.95
25828,756.43,760.56,763.00,759.46,759.86,146.48,-944.82,332.52,0.13,2.15,0.06,55.06
25862,756.42,760.57,762.97,759.45,759.85,153.32,-944.82,348.14,2.51,-0.73,0.62,54.45
25896,756.46,760.54,762.94,759.50,759.86,132.32,-950.68,334.96,1.80,1.36,0.03,52.89
25929,756.47,760.58,762.99,759.50,759.89,145.51,-941.89,339.36,0.09,0.66,1.18,53.93
25963,756.46,760.53,762.94,759.46,759.85,138.18,-950.20,321.29,0.50,2.45,-0.91,53.85
25998,756.48,760.53,763.00,759.50,759.88,144.53,-942.38,345.21,0.35,0.05,-1.69,54.46
26032,756.46,760.62,762.92,759.48,759.87,137.21,-944.34,331.54,-0.34,-0.16,-1.74,52.08
26066,756.45,760.58,762.99,759.48,759.87,146.97,-947.27,339.84,0.15,1.46,-1.03,54.13
26102,756.43,760.59,762.95,759.46,759.86,143.55,-950.20,325.68,3.01,-0.28,-0.79,53.43
26136,756.45,760.58,762.95,759.49,759.87,139.65,-948.73,341.31,-0.66,2.69,-1.21,53.10
26170,756.48,760.66,763.03,759.49,759.92,143.07,-952.64,334.96,1.79,1.34,-0.92,54.37
26203,756.42,760.66,762.92,759.40,759.85,142.09,-958.98,331.05,1.22,0.05,-0.60,53.26
26237,756.39,760.62,762.94,759.49,759.86,137.70,-937.50,340.82,-0.84,-0.15,0.80,52.64
26271,756.45,760.66,763.02,759.46,759.90,146.00,-949.22,329.59,1.61,2.04,-1.86,54.76
26305,756.45,760.68,762.97,759.50,759.90,140.62,-955.57,328.12,1.00,4.21,-0.50,52.52
26340,756.48,760.62,763.02,759.46,759.89,134.28,-952.64,335.45,-0.48,1.53,1.09,54.75
26374,756.50,760.64,762.97,759.52,759.91,125.98,-952.64,323.24,1.73,2.18,0.79,52.43
26408,756.40,760.60,762.98,759.50,759.87,138.18,-933.59,334.96,0.10,0.61,2.11,53.73
26442,756.45,760.63,762.98,759.46,759.88,126.95,-940.92,328.12,0.49,2.20,0.99,53.94
26476,756.36,760.56,763.03,759.51,759.86,139.65,-932.13,339.84,0.41,2.42,-0.59,55.16
26512,756.41,760.67,762.97,759.44,759.87,139.65,-949.22,335.94,-1.42,0.07,-0.18,53.83
26546,756.39,760.59,763.01,759.50,759.87,142.09,-963.38,344.24,0.97,2.60,0.34,54.43
26580,756.44,760.64,763.02,759.43,759.88,137.21,-964.84,337.89,1.57,0.87,0.28,55.33
26614,756.45,760.64,763.03,759.49,759.90,143.07,-946.78,335.94,-0.65,1.35,0.99,54.61
26649,756.41,760.58,762.96,759.47,759.86,135.74,-943.36,340.82,-2.22,1.70,0.32,53.86
26683,756.43,760.60,762.94,759.41,759.85,145.51,-955.08,325.20,-0.72,0.82,-1.58,53.96
26717,756.48,760.61,762.99,759.45,759.88,140.62,-940.43,331.05,2.23,0.15,0.43,54.22
26751,756.51,760.55,763.00,759.49,759.89,147.95,-954.59,330.57,-0.33,1.47,1.11,54.39
26785,756.55,760.63,762.94,759.49,759.90,134.28,-951.17,330.08,0.24,0.79,0.10,52.09
26819,756.52,760.58,762.96,759.44,759.88,140.62,-951.66,339.84,0.71,2.07,-0.11,53.88
26853,756.47,760.66,762.97,759.49,759.90,121.09,-945.31,330.08,-0.34,0.86,0.65,52.88
26888,756.50,760.64,762.96,759.44,759.88,145.51,-943.36,327.64,1.59,-1.77,-0.51,53.38
26925,756.45,760.63,763.04,759.50,759.90,154.79,-942.38,345.70,-1.73,3.02,0.26,54.87
26959,756.46,760.67,762.96,759.45,759.88,142.58,-953.12,331.05,1.62,-0.69,2.18,53.12
26993,756.44,760.62,762.98,759.51,759.89,144.53,-941.89,339.84,1.32,0.94,-1.50,53.31
27028,756.45,760.65,762.96,759.48,759.88,144.53,-950.20,324.22,-1.44,0.63,0.39,52.77
27062,756.47,760.62,762.98,759.56,759.91,136.72,-964.84,338.38,-0.34,1.02,0.94,52.51
27096,756.51,760.56,762.95,759.53,759.89,136.72,-949.71,337.89,1.35,0.85,0.83,52.44
27130,756.47,760.63,762.98,759.53,759.90,133.79,-964.36,329.59,-0.58,3.10,-0.51,52.74
27164,756.44,760.63,763.08,759.53,759.92,146.00,-949.71,334.47,1.26,-0.72,0.86,55.40
27198,756.50,760.63,762.99,759.44,759.89,143.07,-955.57,330.08,1.25,1.89,1.43,54.39
27232,756.45,760.64,763.01,759.49,759.90,123.54,-946.29,330.08,-1.32,0.24,1.57,54.03
27266,756.52,760.58,762.98,759.44,759.88,145.51,-944.82,325.20,0.77,-0.66,-1.58,54.23
27301,756.46,760.62,762.99,759.45,759.88,133.79,-955.57,331.54,1.24,0.53,0.24,54.21
27336,756.46,760.60,763.03,759.52,759.90,144.53,-959.47,337.40,0.35,0.54,1.20,54.39
27371,756.45,760.60,763.04,759.43,759.88,142.58,-944.82,323.73,-2.40,2.65,1.78,56.11
27405,756.44,760.65,763.01,759.49,759.90,146.00,-953.61,333.50,-1.18,2.31,1.22,53.89
27438,756.52,760.67,763.02,759.45,759.92,147.46,-949.71,344.73,-0.20,2.50,-0.90,54.50
27472,756.49,760.64,763.03,759.52,759.92,143.07,-950.68,338.87,-0.84,0.76,0.71,54.02
27505,756.55,760.67,762.99,759.51,759.93,139.16,-951.17,336.43,1.65,1.84,2.77,52.84
27539,756.51,760.64,763.02,759.53,759.93,137.21,-949.71,332.03,0.67,2.70,0.44,53.64
27573,756.55,760.65,762.98,759.49,759.92,131.35,-951.66,343.75,-0.82,0.78,2.02,53.06
27606,756.50,760.62,762.96,759.52,759.90,135.74,-945.31,337.89,0.67,2.37,2.07,52.50
27640,756.56,760.69,762.98,759.51,759.94,127.93,-948.24,331.54,0.56,-0.50,2.27,52.33
27674,756.52,760.62,763.01,759.53,759.92,146.97,-942.87,328.61,0.66,0.61,0.69,53.49
27710,756.51,760.65,763.04,759.53,759.93,137.21,-936.04,332.03,-0.44,3.03,1.61,53.98
27743,756.55,760.68,763.11,759.46,759.95,145.02,-949.71,346.68,0.68,1.36,1.30,56.40
27777,756.51,760.72,763.00,759.51,759.93,148.93,-957.52,349.61,-0.12,3.47,-0.01,52.66
27811,756.52,760.66,763.05,759.48,759.93,133.79,-954.10,340.82,-0.50,0.25,2.76,54.74
27847,756.51,760.72,763.02,759.52,759.94,138.18,-955.08,340.33,-0.56,2.88,0.55,52.98
27881,756.52,760.63,762.97,759.55,759.92,147.95,-961.43,337.40,1.00,2.04,0.13,52.10
27915,756.60,760.70,763.08,759.58,759.99,127.93,-946.78,351.07,0.88,0.53,-1.27,53.50
27949,756.48,760.73,763.07,759.55,759.96,138.18,-948.73,348.63,0.80,0.74,2.16,53.90
27983,756.45,760.76,763.07,759.58,759.97,139.16,-953.61,335.94,0.53,1.60,1.21,53.42
28017,756.49,760.75,763.04,759.49,759.94,143.07,-938.96,337.89,0.92,1.95,-2.27,53.75
28051,756.52,760.70,763.05,759.47,759.94,142.58,-947.75,335.94,1.70,1.89,0.24,54.66
28086,756.54,760.66,763.03,759.46,759.92,126.95,-959.96,340.33,-0.19,1.16,-0.19,54.55
28121,756.51,760.72,763.04,759.50,759.94,138.67,-949.22,339.36,-0.99,2.89,1.76,53.76
28156,756.56,760.70,763.03,759.59,759.97,134.77,-967.29,350.10,0.95,1.62,-0.05,52.40
28190,756.60,760.61,763.01,759.51,759.93,152.83,-949.22,332.52,0.98,1.30,0.99,53.51
28224,756.52,760.63,763.08,759.53,759.94,146.00,-941.41,342.77,1.03,0.40,-1.40,54.98
28258,756.51,760.72,763.04,759.50,759.94,140.62,-953.12,337.40,1.47,-0.71,1.02,53.95
28292,756.49,760.71,763.03,759.48,759.93,147.46,-932.62,338.38,0.09,1.87,0.09,54.13
28326,756.53,760.75,763.05,759.50,759.96,148.93,-950.20,319.34,0.27,0.97,2.29,53.69
28360,756.52,760.66,763.11,759.52,759.95,145.02,-948.73,332.52,-0.37,0.99,2.24,55.69
28394,756.51,760.71,763.08,759.53,759.96,130.86,-953.12,328.61,-0.92,1.55,0.08,54.45
28429,756.50,760.72,763.06,759.56,759.96,146.48,-953.12,345.21,-0.07,-0.15,-1.85,53.57
28463,756.48,760.65,763.06,759.55,759.94,129.39,-946.29,346.68,-2.00,1.91,1.79,54.34
28497,756.52,760.68,763.09,759.59,759.97,137.70,-940.92,320.31,-0.60,1.89,-1.00,53.98
28533,756.49,760.71,763.07,759.52,759.95,143.07,-946.78,330.57,1.67,0.62,-0.38,54.49
28567,756.51,760.72,763.10,759.68,760.00,125.49,-951.66,340.33,-0.66,-0.60,-1.27,52.79
28601,756.62,760.65,763.02,759.61,759.97,147.95,-951.66,327.64,1.93,2.00,1.11,51.93
28635,756.51,760.75,763.02,759.53,759.95,149.41,-952.15,339.36,0.24,-0.30,0.52,52.79
28669,756.51,760.70,763.07,759.62,759.97,135.74,-955.08,324.22,-0.27,0.45,0.86,52.89
28703,756.54,760.77,763.05,759.60,759.99,135.25,-947.27,331.54,2.21,0.41,1.83,52.00
28737,756.59,760.76,763.06,759.53,759.99,140.62,-927.25,337.89,-1.20,2.25,1.87,53.24
28773,756.55,760.75,763.06,759.55,759.98,141.60,-950.20,330.57,-0.04,2.18,0.77,53.29
28808,756.56,760.77,763.02,759.57,759.98,148.93,-953.61,340.82,-0.83,0.44,-0.13,51.84
28842,756.55,760.70,762.99,759.56,759.95,129.39,-944.82,323.73,0.60,1.02,0.13,51.83
28876,756.47,760.64,763.05,759.57,759.93,146.00,-954.10,328.61,-0.41,2.52,1.17,53.95
28910,756.58,760.72,763.08,759.60,760.00,128.42,-947.27,332.52,1.11,-0.13,-0.99,53.12
28946,756.56,760.82,763.10,759.59,760.02,134.77,-953.12,335.45,1.41,1.89,3.85,52.97
28980,756.48,760.77,763.07,759.57,759.98,142.09,-956.54,337.40,-1.18,-0.56,2.46,53.33
29014,756.57,760.71,763.08,759.56,759.98,141.60,-955.08,341.80,-0.42,0.88,0.01,53.82
29048,756.54,760.75,763.09,759.60,759.99,138.67,-948.73,334.96,1.91,2.23,0.02,53.13
29082,756.59,760.77,763.04,759.63,760.01,139.65,-952.15,325.20,-0.27,1.71,1.84,51.36
29115,756.62,760.74,763.08,759.57,760.01,146.48,-946.78,330.57,0.42,2.31,-1.67,53.29
29149,756.59,760.74,763.03,759.59,759.99,146.00,-944.82,334.96,2.54,3.65,2.00,51.89
29183,756.59,760.70,763.05,759.61,759.99,142.58,-947.27,335.94,-0.17,-0.35,1.15,52.36
29216,756.66,760.75,763.07,759.55,760.01,145.02,-956.54,326.17,-0.24,1.37,-0.53,53.28
29250,756.58,760.69,763.07,759.53,759.97,146.97,-953.12,342.29,-1.40,1.56,-2.15,54.03
29284,756.52,760.73,763.10,759.57,759.98,145.51,-957.52,326.17,1.82,0.31,2.60,54.40
29318,756.62,760.72,763.08,759.55,759.99,139.16,-951.66,337.89,0.69,0.07,-0.70,53.84
29353,756.57,760.69,763.09,759.58,759.98,136.23,-945.31,341.31,1.37,1.44,-1.70,53.91
29387,756.56,760.70,763.14,759.53,759.98,142.09,-952.64,324.71,0.82,2.01,0.20,55.81
29421,756.58,760.68,763.13,759.63,760.01,133.30,-956.05,335.94,-0.73,3.76,-1.05,54.23
29455,756.55,760.74,763.06,759.51,759.96,132.32,-956.54,328.61,0.92,-0.54,2.44,53.84
29488,756.54,760.74,763.11,759.56,759.99,156.74,-943.36,343.75,1.31,-1.42,0.66,54.58
29523,756.55,760.81,763.05,759.61,760.01,141.60,-953.61,334.47,0.92,3.08,-2.25,51.71
29557,756.62,760.85,763.05,759.54,760.01,142.09,-960.94,332.03,-0.77,2.27,3.10,52.25
29591,756.63,760.66,763.07,759.63,760.00,137.70,-953.61,342.77,-0.15,-0.32,-0.13,52.64
29625,756.67,760.70,763.10,759.66,760.03,132.81,-961.43,331.05,-1.02,2.01,2.15,52.72
29659,756.64,760.76,763.07,759.64,760.03,135.25,-943.36,332.52,0.11,2.50,-1.12,51.71
29695,756.57,760.78,763.04,759.62,760.00,134.28,-958.01,338.38,1.09,4.11,-0.38,51.42
29729,756.62,760.74,763.11,759.54,760.01,125.98,-953.12,333.98,0.78,0.73,1.62,54.52
29765,756.69,760.70,763.13,759.61,760.03,133.30,-946.78,335.94,-0.31,1.03,0.50,53.99
29799,756.59,760.75,763.14,759.57,760.01,145.02,-933.59,327.15,-2.43,2.52,1.36,54.96
29833,756.69,760.75,763.07,759.68,760.05,132.32,-957.03,337.40,0.10,1.27,2.05,51.15
29867,756.63,760.68,763.11,759.58,760.00,139.65,-957.52,340.82,-1.45,2.65,-0.90,54.16
29902,756.61,760.68,763.09,759.57,759.99,141.60,-941.41,341.31,0.04,0.93,0.86,53.91
29936,756.64,760.72,763.01,759.53,759.97,126.95,-945.31,331.05,0.96,1.30,-0.87,52.15
29970,756.62,760.70,763.05,759.59,759.99,143.55,-947.27,327.64,0.54,1.76,2.97,52.63
30004,756.70,760.66,763.02,759.56,759.98,132.32,-963.38,330.57,-0.44,3.04,-1.03,52.18
30038,756.58,760.70,763.06,759.60,759.98,144.04,-952.15,328.12,3.85,0.13,0.33,52.88
30072,756.68,760.69,763.13,759.56,760.01,139.65,-961.43,332.03,-0.69,0.87,0.03,54.80
30106,756.62,760.69,763.08,759.56,759.99,137.70,-945.80,334.96,-0.08,0.59,-1.98,53.93
30140,756.65,760.69,763.05,759.51,759.98,128.42,-964.36,335.45,0.18,1.69,3.89,53.84
30176,756.62,760.69,763.07,759.65,760.01,146.97,-952.64,334.96,0.95,1.79,2.05,52.39
30210,756.69,760.72,763.14,759.57,760.03,138.67,-953.61,334.96,-0.31,4.81,0.23,54.86
30245,756.61,760.77,763.10,759.58,760.02,141.11,-948.73,331.54,0.40,0.39,1.10,53.44
30279,756.57,760.83,763.07,759.67,760.03,137.21,-936.52,338.38,1.52,2.83,1.98,51.08
30313,756.59,760.79,763.08,759.67,760.03,139.16,-957.03,339.36,0.31,0.09,3.45,51.50
30347,756.62,760.77,763.09,759.69,760.04,148.44,-944.82,323.24,1.22,0.08,0.80,51.46
30381,756.55,760.77,763.12,759.63,760.02,134.77,-941.41,339.36,0.15,0.66,0.46,53.35
30415,756.61,760.84,763.12,759.65,760.05,140.62,-950.68,338.38,1.03,1.91,-0.93,52.25
30449,756.58,760.79,763.15,759.66,760.04,148.44,-958.01,315.43,-0.82,2.82,2.03,53.50
30484,756.57,760.69,763.12,759.67,760.01,143.07,-942.87,324.22,0.69,0.79,-0.26,53.34
30518,756.54,760.79,763.08,759.64,760.01,131.35,-958.98,338.87,0.88,-0.28,-0.67,52.19
30552,756.56,760.81,763.09,759.66,760.03,141.60,-956.54,335.94,-0.05,0.10,-0.49,51.99
30588,756.60,760.75,763.10,759.64,760.02,142.09,-953.12,333.01,-1.16,1.15,1.14,52.93
30623,756.58,760.77,763.14,759.65,760.04,127.44,-953.12,329.10,2.11,-0.24,0.44,53.60
30658,756.52,760.81,763.08,759.58,760.00,137.21,-946.29,343.75,2.31,2.04,-1.15,52.95
30692,756.55,760.82,763.14,759.64,760.04,148.44,-951.17,340.82,0.05,3.29,-1.03,53.21
30725,756.60,760.83,763.13,759.70,760.07,141.11,-955.57,333.98,0.79,1.55,2.21,51.98
30759,756.56,760.81,763.16,759.70,760.06,141.60,-950.68,336.91,-1.25,-0.44,-0.95,53.02
30792,756.62,760.77,763.06,759.69,760.04,138.18,-959.47,333.50,0.84,1.15,-2.73,50.88
30826,756.67,760.78,763.11,759.59,760.04,136.23,-948.24,340.33,1.26,0.90,-0.50,53.07
30860,756.66,760.72,763.07,759.66,760.03,138.18,-959.47,324.22,-0.80,0.40,-1.97,51.60
30893,756.61,760.77,763.15,759.67,760.05,130.86,-952.15,339.84,1.44,0.54,-2.50,53.43
30927,756.60,760.78,763.16,759.60,760.03,133.30,-946.78,325.68,1.46,0.53,-1.25,54.49
30963,756.55,760.74,763.05,759.65,760.00,148.44,-951.66,329.10,0.59,-2.34,1.05,51.60
30997,756.62,760.83,763.16,759.62,760.06,133.79,-941.41,340.82,1.75,0.74,0.66,53.87
31030,756.65,760.75,763.16,759.57,760.03,140.62,-951.66,333.50,1.46,-1.30,-1.50,55.27
31064,756.65,760.78,763.10,759.61,760.03,133.79,-957.03,334.96,-1.01,0.29,0.18,52.80
31098,756.60,760.75,763.07,759.64,760.01,141.60,-958.50,332.52,0.05,-1.39,-0.70,51.95
31132,756.64,760.73,763.13,759.59,760.02,141.60,-955.08,326.17,-0.93,2.90,1.54,54.20
31166,756.66,760.79,763.11,759.60,760.04,141.60,-963.38,329.10,-2.51,0.19,1.01,53.05
31200,756.67,760.83,763.13,759.61,760.06,131.84,-939.94,336.43,1.16,0.41,-0.99,52.88
31234,756.64,760.83,763.11,759.63,760.05,137.70,-936.52,339.84,-1.73,1.18,0.54,52.52
31268,756.66,760.82,763.10,759.67,760.06,137.21,-939.94,333.50,1.85,0.12,1.25,51.53
31302,756.70,760.76,763.15,759.62,760.06,137.21,-953.61,327.64,0.69,1.19,0.43,53.99
31337,756.63,760.79,763.14,759.69,760.06,132.81,-948.24,326.17,-0.34,-0.41,0.79,52.59
31373,756.66,760.81,763.12,759.67,760.07,126.46,-945.80,312.50,0.05,2.85,1.87,52.11
31407,756.64,760.84,763.09,759.69,760.06,146.48,-951.17,339.84,1.22,1.82,0.25,50.89
31441,756.62,760.78,763.15,759.62,760.04,128.91,-952.15,335.94,0.07,0.63,-2.52,54.06
31475,756.59,760.84,763.14,759.73,760.08,143.55,-937.99,331.05,1.63,1.38,1.10,51.64
31509,756.61,760.83,763.16,759.63,760.06,132.81,-951.66,323.73,-1.10,2.04,-2.08,53.59
31545,756.65,760.79,763.09,759.68,760.05,131.35,-954.10,329.10,-0.31,2.56,1.33,51.34
31579,756.63,760.76,763.13,759.67,760.05,131.35,-956.54,337.89,0.71,-0.11,-1.53,52.90
31613,756.67,760.76,763.14,759.59,760.04,137.21,-951.17,322.75,1.73,0.51,0.95,54.24
31647,756.62,760.80,763.17,759.68,760.07,148.44,-928.22,321.29,0.83,0.88,-1.11,53.28
31681,756.61,760.84,763.12,759.69,760.07,145.51,-958.01,331.54,-0.53,2.41,-0.70,51.68
31715,756.64,760.77,763.16,759.74,760.08,150.88,-956.54,335.45,0.74,2.62,1.02,52.57
31750,756.64,760.79,763.13,759.72,760.07,140.62,-942.87,331.54,1.15,0.40,3.24,51.90
31785,756.68,760.79,763.14,759.68,760.07,131.84,-954.59,342.77,1.14,1.10,0.40,52.56
31820,756.67,760.82,763.10,759.77,760.09,139.16,-952.15,335.45,-0.28,-0.30,0.98,50.08
31854,756.68,760.81,763.15,759.69,760.08,138.18,-935.55,333.98,0.79,1.49,-0.29,52.40
31888,756.67,760.84,763.13,759.76,760.10,133.30,-951.17,330.57,0.16,1.97,0.56,50.76
31922,756.67,760.84,763.17,759.68,760.09,144.53,-956.05,322.75,0.43,1.24,-2.02,52.97
31956,756.68,760.84,763.12,759.66,760.08,148.44,-948.24,336.43,0.83,0.05,1.89,51.83
31990,756.67,760.76,763.11,759.68,760.06,131.84,-964.84,340.82,-0.57,1.40,1.03,51.98
32024,756.63,760.77,763.06,759.66,760.03,137.21,-949.71,339.36,0.73,0.60,-1.17,51.25
32058,756.58,760.81,763.09,759.71,760.05,130.37,-957.52,332.52,-0.08,0.33,-1.85,51.06
32093,756.62,760.77,763.12,759.76,760.07,134.28,-947.27,333.50,-2.23,1.24,-2.81,51.36
32127,756.70,760.83,763.17,759.76,760.11,148.93,-951.17,330.08,-0.14,1.35,-0.92,51.80
32161,756.68,760.86,763.13,759.68,760.09,156.25,-946.78,335.94,2.08,1.24,-0.05,51.82
32197,756.66,760.87,763.20,759.70,760.11,147.46,-937.99,337.40,1.82,0.11,0.52,53.01
32231,756.66,760.89,763.19,759.76,760.13,142.58,-943.36,331.54,0.69,2.88,-0.54,51.88
32265,756.69,760.85,763.21,759.72,760.12,146.00,-937.01,327.64,-0.62,0.53,1.76,53.35
32299,756.68,760.83,763.21,759.70,760.11,148.44,-951.66,338.87,1.49,0.41,0.79,53.56
32333,756.66,760.85,763.18,759.71,760.10,129.39,-958.98,343.75,0.28,0.82,0.99,52.83
32366,756.63,760.77,763.19,759.71,760.08,130.86,-954.59,328.12,0.48,1.79,-1.76,53.76
32400,756.65,760.81,763.15,759.68,760.07,146.97,-949.71,337.89,1.18,2.47,1.27,52.84
32434,756.62,760.81,763.15,759.70,760.07,135.25,-944.34,339.36,-1.66,2.25,3.76,52.57
32467,756.62,760.93,763.15,759.73,760.11,139.16,-950.68,333.01,-1.73,0.40,-1.02,51.21
32502,756.68,760.82,763.14,759.71,760.09,134.77,-955.08,333.98,1.57,1.61,-1.06,51.72
32536,756.59,760.83,763.13,759.69,760.06,149.90,-950.20,332.52,1.11,0.62,-0.88,52.24
32570,756.64,760.76,763.18,759.70,760.07,135.25,-951.17,334.47,0.58,0.39,1.24,53.62
32606,756.64,760.86,763.19,759.71,760.10,141.60,-937.50,312.50,1.19,0.42,-0.42,53.12
32640,756.65,760.90,763.17,759.62,760.09,131.35,-959.96,321.29,0.08,-1.08,1.59,53.36
32673,756.62,760.77,763.14,759.73,760.06,144.04,-938.96,331.54,0.57,0.59,0.33,52.12
32707,756.67,760.90,763.17,759.70,760.11,139.16,-951.17,334.47,-0.72,3.64,1.12,52.21
32741,756.63,760.82,763.14,759.73,760.08,151.86,-953.12,327.15,1.00,2.62,-0.76,51.65
32775,756.65,760.76,763.18,759.73,760.08,135.25,-949.22,332.52,-0.13,-0.53,-1.71,53.16
32809,756.64,760.85,763.14,759.75,760.10,130.86,-945.31,320.31,0.73,0.82,0.96,51.01
32843,756.68,760.79,763.16,759.72,760.09,145.02,-944.82,336.43,-0.46,-0.23,0.63,52.52
32878,756.59,760.89,763.10,759.64,760.05,135.25,-948.73,337.40,-0.17,0.67,1.28,51.58
32912,756.64,760.87,763.18,759.67,760.09,135.74,-965.33,336.43,0.21,3.18,-1.08,53.15
32946,756.72,760.83,763.10,759.71,760.09,138.18,-946.29,331.05,1.76,2.37,0.60,50.66
32980,756.68,760.81,763.19,759.65,760.08,152.34,-954.59,324.71,2.60,1.47,-0.57,54.00
33016,756.70,760.81,763.19,759.64,760.09,132.32,-957.52,340.33,1.27,-0.31,-1.60,54.26
33050,756.67,760.77,763.16,759.79,760.10,132.81,-960.94,335.45,1.04,1.78,-1.97,51.57
33084,756.64,760.80,763.12,759.81,760.09,139.16,-940.92,333.98,1.29,-0.35,-2.37,50.27
33118,756.66,760.77,763.20,759.65,760.07,139.16,-948.73,334.96,0.47,0.77,2.88,54.67
33152,756.73,760.81,763.17,759.74,760.11,139.65,-948.73,317.38,-0.36,0.50,1.46,52.07
33187,756.61,760.80,763.13,759.72,760.06,137.21,-951.17,326.66,0.14,0.90,1.73,51.82
33221,756.62,760.77,763.19,759.68,760.07,144.04,-956.05,320.31,-1.88,1.76,1.93,54.10
33255,756.68,760.82,763.16,759.72,760.10,139.65,-956.54,324.71,1.73,0.36,1.95,52.18
33289,756.62,760.89,763.13,759.76,760.10,139.65,-948.73,330.08,0.24,3.86,2.15,50.52
33323,756.57,760.85,763.13,759.69,760.06,144.04,-952.15,334.96,1.11,1.21,1.56,52.04
33357,756.72,760.95,763.20,759.72,760.15,138.18,-945.80,336.43,0.48,-0.68,0.15,52.18
33391,756.60,760.87,763.16,759.71,760.08,134.28,-960.45,327.15,1.85,2.24,-3.45,52.30
33429,756.61,760.82,763.16,759.76,760.09,141.11,-950.68,330.08,1.81,1.02,1.27,51.84
33463,756.61,760.84,763.20,759.73,760.09,134.28,-946.78,334.47,0.98,-0.26,0.96,53.14
33497,756.66,760.85,763.21,759.79,760.13,144.53,-948.73,331.54,0.21,-0.92,-1.17,52.14
33531,756.67,760.83,763.13,759.68,760.08,154.30,-950.68,325.20,0.98,2.41,0.13,51.87
33565,756.69,760.91,763.20,759.67,760.12,134.28,-961.91,331.54,0.46,2.47,-2.93,53.14
33599,756.68,760.85,763.19,759.71,760.11,136.72,-946.29,332.52,1.77,1.81,1.11,52.82
33634,756.63,760.88,763.24,759.72,760.12,141.60,-954.10,322.75,3.13,1.85,-0.49,54.05
33668,756.61,760.82,763.20,759.71,760.09,136.23,-967.29,329.59,-0.60,-1.54,0.89,53.67
33702,756.64,760.82,763.20,759.76,760.11,144.04,-942.87,335.45,-0.70,1.43,-0.72,52.76
33736,756.67,760.86,763.24,759.78,760.14,138.67,-957.03,327.64,-0.50,-0.18,-1.67,52.96
33770,756.65,760.87,763.25,759.78,760.14,142.09,-950.68,334.96,-0.10,0.75,2.38,53.10
33804,756.66,760.90,763.21,759.71,760.12,146.97,-951.17,335.45,0.53,5.04,-2.53,53.16
33840,756.67,760.84,763.18,759.74,760.11,141.11,-960.94,329.10,2.43,1.39,2.63,52.29
33874,756.71,760.83,763.17,759.82,760.13,134.28,-945.31,332.52,-0.08,1.41,-0.20,50.92
33908,756.64,760.88,763.18,759.79,760.12,139.16,-966.31,338.38,-0.69,1.08,1.18,51.44
33942,756.59,760.92,763.20,759.78,760.12,143.55,-942.38,327.15,-0.25,3.19,0.21,51.97
33976,756.56,760.91,763.22,759.68,760.09,143.07,-957.52,333.98,-1.97,2.30,-3.40,53.84
34010,756.60,760.85,763.18,759.73,760.09,141.60,-949.22,330.57,0.65,2.71,-1.57,52.70
34043,756.64,760.93,763.22,759.77,760.14,138.67,-946.29,326.66,-2.65,0.98,-0.56,52.32
34077,756.75,760.85,763.22,759.67,760.12,137.21,-952.15,330.57,-0.99,-0.82,1.69,53.90
34110,756.64,760.89,763.25,759.63,760.10,143.07,-951.66,328.61,0.82,-0.18,-1.02,55.25
34144,756.68,760.86,763.24,759.68,760.12,136.23,-951.66,332.52,0.49,-0.89,-2.01,54.45
34178,756.67,760.88,763.26,759.72,760.13,142.09,-943.36,329.59,1.97,0.14,0.30,54.40
34214,756.68,760.86,763.26,759.65,760.11,138.18,-944.34,331.54,-0.76,1.63,1.37,55.56
34248,756.69,760.90,763.25,759.74,760.14,141.60,-963.38,334.96,1.39,0.32,-0.31,53.44
34281,756.76,760.96,763.26,759.70,760.17,134.77,-945.31,331.54,-0.04,1.30,0.79,53.69
34315,756.71,760.92,763.27,759.74,760.16,126.46,-957.52,330.57,-1.06,1.09,-1.82,53.76
34349,756.75,760.95,763.20,759.75,760.16,139.16,-957.03,329.59,0.70,0.70,1.23,51.47
34384,756.75,760.96,763.29,759.77,760.19,132.32,-949.71,336.91,0.44,0.37,2.38,53.25
34418,756.65,760.95,763.19,759.80,760.15,152.34,-952.64,333.98,0.76,0.95,2.05,50.93
34453,756.70,760.89,763.22,759.76,760.14,138.67,-957.03,330.08,-2.98,0.50,1.69,52.55
34487,756.71,760.92,763.32,759.74,760.17,149.41,-958.98,325.20,0.21,1.12,1.14,55.03
34521,756.63,761.01,763.23,759.79,760.16,135.25,-948.73,330.08,-0.85,0.53,-0.38,51.76
34555,756.71,760.93,763.23,759.81,760.17,135.25,-938.48,331.54,-0.11,0.88,1.91,51.75
34589,756.65,760.89,763.24,759.79,760.14,135.74,-960.94,339.84,-0.04,0.56,2.55,52.80
34625,756.68,760.83,763.22,759.67,760.10,146.00,-940.92,330.57,1.42,0.51,0.56,54.43
34659,756.66,760.89,763.22,759.84,760.15,141.60,-943.85,335.94,-0.82,1.51,0.42,51.36
34693,756.65,760.89,763.29,759.79,760.15,138.67,-954.59,328.12,0.88,1.81,0.64,54.05
34727,756.67,760.98,763.25,759.80,760.18,126.46,-944.34,329.10,0.50,2.89,2.18,52.06
34762,756.65,760.88,763.22,759.83,760.15,136.23,-956.54,328.61,0.23,-0.99,-1.40,51.61
34796,756.75,760.90,763.22,759.77,760.16,142.58,-938.96,337.40,1.74,1.05,-2.56,52.16
34830,756.78,761.01,763.23,759.76,760.20,132.81,-954.10,335.45,-1.21,2.76,-0.73,51.59
34864,756.68,760.98,763.28,759.75,760.17,143.55,-954.59,333.50,-0.45,1.58,0.74,53.53
34898,756.75,760.95,763.22,759.81,760.18,129.88,-947.75,341.80,-0.34,1.51,0.08,51.16
34932,756.67,760.93,763.22,759.77,760.15,146.48,-949.22,336.43,-0.09,-0.31,-0.15,52.18
34966,756.71,760.93,763.23,759.76,760.15,147.95,-947.27,332.52,-1.57,3.38,0.25,52.38
35001,756.74,760.98,763.28,759.78,760.19,136.23,-957.03,332.03,1.34,3.26,-1.06,52.75
35036,756.75,760.95,763.20,759.72,760.15,137.70,-958.98,332.03,-0.06,1.77,1.56,51.83
35070,756.73,760.96,763.20,759.73,760.15,133.79,-942.38,343.26,-1.13,0.62,1.01,51.90
35105,756.68,761.01,763.22,759.78,760.17,132.32,-954.59,340.82,-0.19,-0.17,2.51,51.23
35139,756.69,760.97,763.19,759.71,760.14,146.00,-955.08,326.17,-1.66,1.41,-1.27,51.77
35173,756.70,760.85,763.18,759.82,760.14,141.60,-952.64,339.84,1.00,1.03,0.60,50.96
35207,756.69,760.96,763.21,759.71,760.14,142.58,-950.20,334.47,1.21,0.69,2.00,52.57
35241,756.71,760.95,763.30,759.78,760.19,140.62,-965.82,327.15,-0.34,1.24,0.02,53.55
35275,756.76,760.94,763.27,759.72,760.17,137.21,-946.29,326.66,0.03,-0.59,-1.27,53.68
35311,756.74,760.97,763.29,759.82,760.21,141.11,-952.64,329.59,1.56,0.79,2.30,52.53
35345,756.73,760.97,763.29,759.78,760.19,127.93,-952.15,330.08,1.80,2.10,0.84,53.13
35379,756.69,760.90,763.29,759.75,760.16,136.23,-958.50,335.45,1.35,-1.27,-1.88,54.43
35413,756.73,760.91,763.29,759.79,760.18,138.18,-948.73,328.61,0.37,2.27,0.78,53.44
35449,756.72,760.92,763.22,759.86,760.18,142.09,-947.75,334.47,0.87,2.09,0.46,50.54
35483,756.67,760.98,763.27,759.87,760.20,146.00,-948.24,329.59,1.83,0.61,0.28,51.62
35518,756.68,760.96,763.30,759.82,760.19,145.02,-949.22,323.24,1.18,2.62,0.01,53.16
35552,756.72,761.01,763.21,759.89,760.21,137.70,-951.17,329.10,1.24,1.04,0.40,49.44
35586,756.75,760.98,763.29,759.79,760.20,141.60,-950.20,330.57,-0.12,3.69,-1.94,52.74
35619,756.70,761.05,763.25,759.84,760.21,129.39,-965.33,341.31,-0.93,1.13,1.97,50.68
35653,756.65,760.96,763.25,759.85,760.18,136.23,-949.71,334.96,1.09,0.38,0.37,51.66
35687,756.66,760.97,763.26,759.86,760.19,144.04,-948.24,318.85,-0.98,0.87,0.98,51.62
35720,756.68,760.94,763.23,759.80,760.16,142.09,-952.15,331.05,1.36,4.56,0.50,51.65
35754,756.74,760.90,763.27,759.84,760.19,132.81,-940.43,337.89,-1.29,1.97,-0.31,52.34
35787,756.72,760.94,763.29,759.80,760.19,127.44,-949.71,334.47,1.04,1.95,0.89,53.23
35822,756.68,760.95,763.30,759.87,760.20,154.79,-943.36,332.03,0.66,0.04,-1.15,52.47
35857,756.70,760.95,763.26,759.89,760.20,140.14,-945.31,321.29,1.32,1.89,3.79,51.20
35891,756.75,760.96,763.26,759.85,760.21,131.35,-947.27,317.87,-0.18,0.98,-1.98,51.43
35925,756.65,760.95,763.31,759.85,760.19,137.70,-947.27,331.54,1.73,4.53,0.58,53.05
35958,756.71,760.90,763.31,759.79,760.18,133.79,-949.22,325.68,-1.86,0.15,-0.60,54.09
35992,756.72,761.01,763.28,759.76,760.19,143.07,-944.82,328.12,2.93,1.03,-1.69,52.86
36026,756.72,760.94,763.22,759.79,760.17,139.16,-946.29,323.73,0.30,0.07,0.75,51.65
36060,756.71,760.94,763.20,759.80,760.16,147.95,-952.15,335.45,1.29,1.07,-1.75,51.11
36094,756.81,760.93,763.26,759.82,760.21,139.65,-961.91,328.12,2.54,0.99,-1.30,51.75
36129,756.77,760.92,763.33,759.81,760.21,137.21,-949.71,328.61,0.81,1.82,0.08,53.91
36163,756.69,760.94,763.18,759.84,760.16,135.25,-943.85,339.36,2.73,2.65,1.89,50.04
36197,756.79,761.01,763.20,759.80,760.20,130.37,-950.20,325.20,-1.41,1.64,0.08,50.12
36231,756.75,760.99,763.24,759.81,760.20,141.11,-946.29,330.08,0.66,1.05,0.06,51.35
36269,756.78,760.98,763.31,759.75,760.20,137.70,-948.24,336.43,1.47,0.78,2.22,53.79
36303,756.72,761.02,763.26,759.81,760.20,138.67,-950.20,325.68,-0.08,2.60,-0.47,51.78
36337,756.80,760.96,763.25,759.78,760.20,134.77,-955.57,328.61,-0.18,-0.97,1.02,52.13
36371,756.74,761.05,763.28,759.80,760.22,137.70,-949.71,322.27,1.25,1.68,1.10,52.13
36405,756.75,760.94,763.31,759.84,760.21,127.93,-950.68,331.54,2.41,0.80,0.50,52.87
36439,756.75,761.02,763.31,759.78,760.21,148.44,-957.52,326.66,-2.53,1.11,-1.51,53.34
36474,756.74,760.95,763.30,759.84,760.21,131.35,-953.12,349.61,0.41,2.73,2.06,52.58
36508,756.77,760.96,763.25,759.78,760.19,141.60,-956.54,325.20,0.07,2.12,-0.09,52.17
36542,756.80,760.96,763.29,759.86,760.23,136.72,-955.08,327.15,0.50,1.31,-1.34,51.89
36576,756.73,760.96,763.25,759.86,760.20,146.48,-948.73,323.24,1.45,-2.21,1.22,50.95
36610,756.77,761.02,763.29,759.91,760.25,120.12,-959.96,316.89,-0.08,-1.02,1.32,50.68
36644,756.83,761.03,763.26,759.89,760.25,143.07,-946.78,325.68,1.68,2.04,-1.35,50.18
36680,756.76,761.03,763.27,759.88,760.24,142.09,-950.68,332.03,-0.01,0.34,3.28,50.62
36714,756.67,761.03,763.29,759.83,760.20,148.44,-942.38,335.45,-0.66,0.53,2.34,52.27
36748,756.84,760.98,763.28,759.80,760.22,133.79,-959.96,324.71,-1.31,-1.74,-0.02,52.17
36783,756.77,760.98,763.29,759.82,760.22,136.72,-953.61,322.75,1.63,0.05,1.66,52.37
36817,756.80,760.98,763.28,759.80,760.22,129.88,-959.96,325.20,1.61,2.54,-2.27,52.27
36851,756.76,761.03,763.26,759.82,760.22,125.98,-948.73,325.68,0.66,0.56,0.56,51.21
36885,756.81,760.98,763.34,759.83,760.24,144.04,-955.08,331.05,2.38,-1.43,-1.22,53.16
36919,756.71,761.10,763.26,759.86,760.23,142.58,-947.75,327.15,0.19,2.16,1.37,50.31
36953,756.78,761.05,763.28,759.88,760.25,137.21,-956.54,329.59,-0.87,0.95,-0.47,50.70
36987,756.76,761.00,763.29,759.90,760.24,148.93,-951.66,328.12,1.56,2.06,2.24,51.01
37022,756.72,760.97,763.24,759.82,760.19,146.48,-938.96,332.03,0.25,1.15,-1.51,51.29
37056,756.87,760.97,763.31,759.85,760.25,144.04,-948.24,333.98,1.95,0.97,1.54,52.11
37092,756.77,760.93,763.36,759.88,760.24,149.41,-956.05,331.54,2.06,-0.11,-0.69,53.76
37126,756.73,760.99,763.27,759.81,760.20,151.37,-955.08,337.40,-0.50,0.67,-0.99,52.10
37160,756.74,761.04,763.32,759.83,760.23,140.14,-951.17,331.54,1.18,4.09,-0.95,52.70
37196,756.77,760.93,763.24,759.85,760.20,140.62,-953.61,331.05,0.76,0.68,2.46,51.11
37229,756.83,761.06,763.24,759.86,760.25,131.35,-954.59,335.94,0.90,0.95,0.97,49.58
37263,756.75,760.96,763.29,759.86,760.22,138.18,-947.75,336.43,-0.40,1.47,-1.27,52.01
37296,756.79,760.96,763.28,759.81,760.21,145.02,-956.54,350.59,0.31,1.40,1.64,52.50
37330,756.80,761.02,763.33,759.88,760.26,129.39,-948.24,324.71,1.18,1.38,1.27,52.13
37363,756.74,761.07,763.30,759.87,760.25,137.21,-955.08,320.80,0.66,2.41,0.32,51.35
37397,756.80,761.06,763.28,759.93,760.27,134.28,-954.10,330.57,-1.55,3.44,1.24,49.67
37431,756.87,760.99,763.37,759.86,760.27,146.00,-942.38,325.68,-0.27,1.29,-0.31,53.35
37467,756.86,760.99,763.33,759.98,760.29,139.65,-958.98,337.40,1.02,2.21,0.08,50.66
37501,756.87,761.08,763.30,759.85,760.27,129.88,-953.12,315.92,0.02,-0.93,0.88,51.01
37534,756.87,761.06,763.34,759.89,760.29,145.51,-938.96,336.91,-0.50,-2.21,-0.40,51.62
37568,756.84,761.01,763.27,759.91,760.26,142.58,-947.75,338.38,-0.64,0.79,0.02,50.10
37602,756.74,761.07,763.30,759.87,760.24,136.72,-961.43,329.10,-0.59,3.41,-0.81,51.41
37636,756.82,761.00,763.34,759.85,760.25,143.07,-953.12,332.03,0.11,2.09,0.75,53.00
37670,756.78,761.12,763.33,759.83,760.26,146.97,-955.57,337.89,0.15,1.54,-0.69,52.15
37704,756.78,761.03,763.36,759.88,760.26,142.09,-949.22,326.66,-1.01,-1.28,1.89,52.95
37738,756.80,761.08,763.36,759.93,760.29,134.77,-944.82,332.52,-0.28,0.27,-1.50,51.65
37773,756.79,761.05,763.34,759.98,760.29,128.42,-949.71,333.98,0.49,0.85,-0.45,50.65
37807,756.79,761.06,763.31,759.93,760.27,141.60,-960.45,325.20,0.45,1.14,-0.18,50.59
37841,756.75,761.07,763.39,759.90,760.28,132.81,-951.66,336.91,0.68,0.85,0.08,53.03
37877,756.78,761.10,763.33,759.83,760.26,142.58,-945.31,333.98,0.18,1.08,1.34,52.18
37911,756.78,761.08,763.31,759.87,760.26,128.91,-949.71,330.08,-0.08,1.80,-0.72,51.18
37945,756.83,761.07,763.31,759.91,760.28,149.90,-954.10,328.12,0.38,2.31,4.25,50.72
37979,756.79,761.08,763.34,759.91,760.28,157.71,-958.01,326.66,-0.10,-0.07,0.78,51.49
38013,756.88,761.13,763.39,759.85,760.31,142.09,-961.91,323.24,-0.24,0.82,-0.29,52.72
38048,756.78,761.02,763.35,759.88,760.26,134.77,-963.87,334.47,0.75,1.35,-0.15,52.61
38082,756.81,761.05,763.35,759.92,760.28,144.04,-961.43,331.54,-2.08,0.53,-1.53,51.67
38116,756.86,761.02,763.33,759.90,760.28,137.21,-956.54,345.21,2.39,4.11,0.54,51.64
38152,756.78,761.13,763.44,759.88,760.31,152.34,-961.43,325.20,-0.34,1.48,2.45,53.94
38186,756.79,761.08,763.37,759.94,760.29,136.72,-954.59,324.71,1.47,0.14,-0.40,51.89
38220,756.80,761.08,763.32,759.87,760.27,155.76,-955.08,329.59,2.53,2.11,0.05,51.53
38254,756.80,761.06,763.47,759.96,760.32,137.21,-953.61,328.61,0.32,2.60,-1.09,54.09
38290,756.76,761.10,763.35,759.94,760.28,138.67,-965.82,324.71,0.75,1.97,1.73,51.26
38324,756.83,761.07,763.33,760.00,760.31,133.30,-951.17,333.98,0.52,3.08,0.68,49.82
38358,756.76,761.07,763.42,759.92,760.29,132.32,-960.94,322.27,0.59,0.95,0.53,53.62
38392,756.84,761.08,763.34,759.92,760.29,149.41,-943.36,328.12,-0.17,0.23,1.73,51.24
38426,756.78,761.07,763.30,759.92,760.26,144.04,-951.17,338.38,1.53,0.07,0.40,50.41
38461,756.79,761.09,763.38,759.89,760.29,144.04,-950.68,335.94,-0.23,2.01,-0.69,52.54
38495,756.86,761.05,763.37,759.89,760.29,156.25,-954.59,337.89,2.34,1.33,1.11,52.60
38529,756.82,761.05,763.34,759.88,760.27,135.25,-944.82,334.96,1.64,0.79,0.21,52.11
38563,756.81,761.05,763.40,759.99,760.31,139.65,-953.12,327.15,-0.91,1.67,1.00,51.99
38597,756.79,761.07,763.37,759.90,760.28,139.65,-944.34,332.03,0.22,1.46,-1.24,52.53
38631,756.78,761.15,763.41,759.86,760.30,125.49,-944.34,333.50,1.29,3.26,-1.05,53.39
38665,756.74,761.13,763.40,759.86,760.28,141.11,-947.27,320.31,1.78,2.54,-1.08,53.34
38701,756.76,761.15,763.50,759.93,760.34,146.48,-944.34,327.15,-0.17,1.27,0.27,54.57
38736,756.78,761.16,763.33,759.87,760.29,146.48,-951.66,339.36,-0.82,1.08,1.12,51.13
38770,756.77,761.11,763.39,760.02,760.32,143.07,-941.89,335.45,0.08,1.85,0.37,50.92
38804,756.82,761.08,763.39,759.89,760.29,139.65,-955.08,323.24,-0.89,1.37,-0.47,52.77
38838,756.84,761.14,763.36,759.98,760.33,135.74,-951.17,322.27,-0.98,1.72,-0.91,50.30
38872,756.79,761.16,763.29,759.87,760.28,136.23,-951.66,318.85,0.49,-1.83,0.69,50.30
38905,756.80,761.08,763.38,759.90,760.29,147.46,-938.48,341.80,0.02,-1.49,2.73,52.58
38939,756.86,761.06,763.39,760.01,760.33,140.14,-951.66,333.01,-0.91,3.11,-0.34,51.10
38973,756.88,761.09,763.38,760.00,760.34,143.07,-948.24,321.78,0.57,1.55,-0.57,50.68
39006,756.87,761.07,763.36,760.02,760.33,144.53,-953.12,322.75,-2.04,0.47,-1.53,50.12
39040,756.84,761.12,763.33,760.00,760.32,145.02,-954.10,331.05,-0.50,-0.72,0.58,49.47
39076,756.89,761.05,763.31,759.94,760.30,142.58,-945.31,342.77,1.53,2.51,-0.17,50.16
39111,756.78,761.11,763.39,760.02,760.33,146.00,-942.87,332.03,0.85,1.53,2.27,50.84
39145,756.85,761.14,763.40,759.93,760.33,137.70,-941.41,329.10,0.75,0.74,1.09,51.96
39179,756.82,761.06,763.42,759.99,760.32,128.42,-959.96,334.96,2.12,1.31,0.54,52.26
39213,756.79,761.26,763.41,759.89,760.34,134.77,-958.50,333.01,2.26,2.18,0.89,51.96
39246,756.90,761.17,763.41,760.05,760.38,127.93,-952.64,339.84,2.70,-0.39,2.58,49.90
39280,756.80,761.11,763.44,760.02,760.34,146.97,-949.71,338.87,1.01,2.98,-0.79,52.07
39314,756.87,761.05,763.39,760.00,760.33,146.00,-958.01,333.50,-0.90,-0.18,1.32,51.48
39349,756.83,761.16,763.41,759.93,760.33,145.51,-945.80,341.31,0.34,0.33,1.34,52.19
39383,756.83,761.06,763.36,759.95,760.30,141.60,-948.24,336.91,0.89,2.09,-1.79,51.42
39417,756.78,761.13,763.45,759.97,760.33,146.00,-953.12,337.89,-0.63,-0.21,-1.76,53.07
39451,756.80,761.07,763.44,759.96,760.32,144.04,-958.98,332.52,0.68,2.91,-0.81,53.41
39485,756.79,761.11,763.37,759.94,760.30,140.14,-943.36,326.17,-0.64,3.65,-0.55,51.65
39521,756.85,761.07,763.41,759.97,760.33,156.25,-938.96,328.61,0.06,1.44,-1.02,52.25
39555,756.86,761.11,763.44,760.02,760.36,151.86,-955.57,335.94,0.42,-1.66,3.82,51.91
39589,756.76,761.17,763.45,760.00,760.35,149.41,-941.89,323.73,0.41,0.71,-0.86,52.33
39624,756.82,761.11,763.40,760.02,760.34,144.04,-948.24,328.12,-2.04,1.56,3.76,51.08
39658,756.83,761.10,763.46,760.02,760.35,133.79,-945.31,339.36,-0.90,1.02,0.68,52.53
39692,756.82,761.14,763.42,760.03,760.35,149.90,-940.43,332.03,-0.04,1.10,-0.50,51.16
39726,756.84,761.08,763.38,760.03,760.33,139.65,-944.82,342.77,0.60,0.07,1.11,50.65
39760,756.87,761.08,763.43,759.95,760.33,146.97,-952.64,323.73,0.72,1.47,-0.24,52.84
39794,756.83,761.16,763.38,760.01,760.34,141.11,-954.59,335.94,1.33,1.02,-0.63,50.41
39828,756.82,761.14,763.38,760.04,760.35,144.04,-951.66,331.05,1.21,2.42,2.18,50.05
39863,756.89,761.10,763.38,760.01,760.35,147.95,-947.75,334.47,2.02,-0.69,-1.82,50.45
39897,756.82,761.13,763.41,759.96,760.33,147.95,-947.27,323.73,0.56,5.01,1.99,51.92
39933,756.84,761.11,763.35,760.01,760.33,148.44,-946.29,326.17,0.67,4.02,3.37,49.92
39967,756.88,761.18,763.36,759.97,760.35,130.86,-939.45,337.89,0.82,1.05,2.08,49.91
40003,756.90,761.12,763.41,759.97,760.35,147.95,-953.61,330.08,2.25,-0.29,-0.22,51.60
40037,756.83,761.20,763.38,760.04,760.36,138.67,-955.57,323.73,0.89,1.35,-1.68,49.47
40071,756.87,761.14,763.36,759.98,760.34,144.04,-949.71,328.61,-0.47,0.88,0.99,50.21
40105,756.86,761.13,763.40,760.00,760.35,143.55,-949.22,329.59,-0.06,2.52,3.54,51.03
40139,756.81,761.20,763.49,760.01,760.38,135.25,-943.85,325.20,-0.99,2.60,5.24,52.63
40173,756.80,761.20,763.51,759.98,760.37,137.70,-950.20,337.89,1.08,2.27,-0.59,53.73
40207,756.80,761.15,763.45,760.04,760.36,140.62,-954.59,330.08,-2.05,-2.06,1.18,51.68
40242,756.84,761.12,763.40,760.10,760.37,138.67,-950.68,317.87,0.02,1.54,1.55,49.79
40276,756.84,761.13,763.41,759.99,760.34,144.04,-947.27,321.78,0.95,0.82,2.15,51.34
40310,756.90,761.09,763.40,759.98,760.34,142.58,-947.27,319.82,1.42,0.75,0.73,51.35
40346,756.83,761.09,763.41,760.03,760.34,139.16,-954.59,330.08,0.17,0.42,-0.11,51.39
40380,756.87,761.11,763.42,759.99,760.35,139.65,-958.98,339.36,-2.12,2.11,0.73,51.75
40414,756.79,761.11,763.43,760.01,760.33,134.28,-958.01,333.01,-2.44,-0.55,-0.63,51.95
40448,756.84,761.09,763.48,760.01,760.36,144.53,-957.52,335.94,-0.94,1.03,3.08,53.28
40482,756.78,761.11,763.50,760.05,760.36,131.35,-961.43,337.89,-0.48,1.01,2.69,53.17
40516,756.87,761.09,763.51,759.96,760.36,143.07,-953.61,321.78,0.47,1.24,0.32,54.56
40549,756.84,761.12,763.43,760.05,760.36,141.11,-951.66,338.87,0.14,-1.13,-0.19,51.23
40583,756.91,761.11,763.40,760.02,760.36,146.97,-945.31,336.91,2.64,-0.94,-0.63,50.69
40617,756.81,761.15,763.40,760.05,760.35,147.46,-941.89,335.94,0.66,1.95,2.28,50.14
40650,756.83,761.13,763.37,759.99,760.33,137.21,-950.68,329.59,1.66,-0.20,0.21,50.56
40684,756.87,761.16,763.44,760.01,760.37,132.81,-946.78,325.68,1.89,0.64,-0.15,51.66
40720,756.96,761.16,763.45,760.01,760.40,149.41,-945.31,321.78,0.76,1.07,2.56,51.48
40754,756.87,761.21,763.43,759.97,760.37,143.07,-955.08,325.68,-0.22,0.82,0.33,51.39
40787,756.82,761.17,763.40,760.05,760.36,128.91,-947.75,327.64,-2.41,-0.36,-0.99,50.05
40821,756.89,761.09,763.42,759.99,760.35,145.02,-958.01,327.15,-1.11,1.21,3.56,51.85
40855,756.81,761.11,763.35,759.97,760.31,150.39,-957.03,338.87,1.45,1.54,0.64,50.56
40889,756.82,761.15,763.46,760.02,760.36,150.88,-942.38,327.15,1.87,3.23,-0.85,52.11
40924,756.85,761.15,763.43,760.00,760.36,139.65,-947.75,337.40,0.78,-0.80,0.94,51.62
40958,756.90,761.16,763.44,760.06,760.39,118.65,-948.73,325.20,0.30,1.56,0.46,50.67
40993,756.84,761.16,763.42,760.02,760.36,134.28,-936.04,312.01,0.50,2.82,-0.22,51.05
41027,756.79,761.22,763.43,760.03,760.37,153.81,-949.22,335.45,-1.71,0.03,2.44,50.81
41061,756.85,761.14,763.43,760.01,760.36,141.60,-950.68,335.94,-0.22,1.38,1.32,51.40
41095,756.87,761.10,763.41,759.95,760.33,145.51,-943.36,336.43,-1.01,1.98,-0.58,52.14
41131,756.87,761.12,763.34,759.94,760.32,144.04,-943.36,335.45,0.73,2.57,-1.28,50.49
41165,756.83,761.18,763.46,760.08,760.39,136.72,-958.01,333.98,0.28,-1.76,-0.60,51.02
41199,756.91,761.23,763.40,760.09,760.41,149.41,-953.61,330.57,0.89,1.89,0.04,48.53
41233,756.90,761.15,763.41,760.01,760.37,149.41,-958.01,321.78,0.66,-0.29,0.29,50.92
41268,756.80,761.15,763.45,759.97,760.34,134.28,-945.80,329.59,-0.31,0.56,2.10,52.67
41302,756.91,761.07,763.46,760.04,760.37,151.86,-956.54,325.68,-0.18,0.98,-1.63,52.11
41336,756.87,761.12,763.41,760.01,760.35,137.21,-946.78,334.47,1.23,1.25,0.30,51.12
41370,756.84,761.18,763.47,760.04,760.38,124.51,-951.66,327.15,-0.09,2.16,1.45,51.85
41404,756.88,761.22,763.42,760.02,760.38,136.23,-948.24,333.01,-0.12,2.24,2.41,50.54
41438,756.91,761.18,763.48,760.11,760.42,149.41,-948.73,324.22,0.95,1.69,0.68,50.64
41472,756.89,761.10,763.53,760.11,760.41,142.58,-946.29,326.17,0.50,-1.01,0.21,52.67
41507,756.82,761.14,763.44,760.03,760.36,129.88,-941.89,342.29,-0.08,2.37,1.02,51.54
41543,756.85,761.21,763.49,760.03,760.39,137.70,-964.36,324.22,0.69,1.46,-0.02,52.14
41577,756.83,761.17,763.58,760.09,760.42,136.72,-949.71,320.80,2.19,1.89,2.08,53.97
41611,756.95,761.20,763.44,760.08,760.41,159.18,-949.71,334.47,0.53,0.55,-0.28,49.92
41645,756.92,761.19,763.45,760.08,760.41,139.16,-955.08,336.91,-2.37,0.88,1.11,50.45
41679,756.86,761.15,763.46,760.06,760.38,142.58,-948.73,334.96,-0.35,0.01,-1.68,51.45
41713,756.87,761.20,763.40,760.11,760.40,131.84,-947.27,331.54,0.43,-1.21,-1.27,48.73
41747,756.95,761.16,763.49,759.97,760.39,155.27,-948.73,330.08,0.90,1.87,0.63,53.11
41782,756.89,761.18,763.45,760.07,760.40,145.02,-963.87,332.03,1.82,2.34,1.40,50.75
41816,756.94,761.21,763.49,760.04,760.42,129.39,-954.59,336.91,0.12,1.51,-1.59,51.79
41851,756.86,761.15,763.48,760.04,760.38,148.44,-939.94,327.15,1.93,2.36,-1.15,52.16
41885,756.88,761.21,763.53,760.02,760.41,140.14,-945.80,335.45,-0.85,0.17,1.29,53.24
41920,756.95,761.24,763.44,760.01,760.41,145.51,-959.96,326.17,-0.08,0.96,-0.37,50.68
41956,756.91,761.20,763.45,760.04,760.40,154.79,-959.47,329.10,0.73,2.22,1.79,51.05
41990,756.93,761.22,763.48,760.03,760.42,142.58,-958.98,324.22,1.71,2.08,-0.50,51.67
42024,756.92,761.18,763.47,760.07,760.41,142.58,-962.89,332.52,-1.88,2.44,0.11,51.16
42058,756.95,761.21,763.47,760.06,760.42,146.00,-951.17,327.64,-1.64,1.04,0.26,50.85
42092,756.91,761.18,763.49,760.02,760.40,137.70,-954.10,330.57,-1.73,2.31,-1.27,52.33
42126,756.93,761.20,763.52,760.01,760.41,143.55,-946.29,330.08,3.05,0.18,0.15,52.90
42159,756.92,761.17,763.49,760.02,760.40,149.41,-958.50,318.36,1.87,-0.36,-0.60,52.34
42193,756.94,761.17,763.52,760.05,760.42,148.93,-969.24,332.52,-1.60,3.04,0.92,52.68
42226,756.98,761.19,763.49,760.06,760.43,132.81,-952.15,339.36,0.00,1.01,1.08,51.53
42260,756.91,761.13,763.50,760.07,760.40,136.23,-964.36,324.71,-0.72,-0.57,0.31,52.34
42294,756.92,761.11,763.47,760.06,760.39,143.07,-954.10,329.59,0.05,0.62,-0.09,51.75
42328,756.85,761.13,763.50,760.12,760.40,140.62,-947.27,321.29,-0.85,0.54,2.90,51.81
42364,756.86,761.12,763.49,760.06,760.38,147.95,-952.15,327.15,1.23,0.60,0.04,52.42
42397,756.92,761.14,763.45,760.05,760.39,144.53,-950.68,333.50,0.34,0.40,-0.21,51.18
42431,756.93,761.12,763.48,760.16,760.42,154.30,-953.12,328.12,1.34,2.76,3.16,50.45
42465,756.93,761.11,763.43,760.10,760.39,142.09,-948.24,333.50,-0.63,2.34,-1.77,50.14
42499,756.93,761.21,763.51,760.06,760.43,129.88,-951.66,328.61,0.88,2.82,3.19,51.96
42533,756.87,761.16,763.42,760.13,760.40,134.77,-944.82,339.84,0.92,0.54,0.95,49.36
42567,756.89,761.13,763.50,760.09,760.40,143.07,-959.47,331.54,-0.77,2.40,-0.76,51.97
42601,756.92,761.11,763.42,760.07,760.38,147.46,-952.15,337.89,1.95,2.69,0.18,50.25
42635,756.85,761.22,763.47,760.08,760.41,149.90,-952.64,314.45,3.12,0.78,-3.37,50.79
42669,756.90,761.09,763.49,760.04,760.38,136.23,-948.73,334.96,-0.94,0.90,0.58,52.69
42703,756.94,761.14,763.49,760.11,760.42,139.16,-943.36,329.10,1.44,3.02,2.49,51.10
42737,756.91,761.14,763.54,760.03,760.40,157.71,-958.98,338.38,0.36,1.62,0.38,53.70
42775,756.95,761.14,763.53,760.00,760.41,146.00,-948.73,333.50,0.73,-0.82,-0.55,53.73
42809,756.84,761.23,763.51,760.09,760.42,134.28,-952.64,330.57,-0.48,1.37,2.20,51.61
42843,756.88,761.18,763.45,760.09,760.40,133.79,-952.64,330.57,0.23,-0.52,2.78,50.46
42878,756.98,761.19,763.51,760.05,760.43,141.60,-940.43,311.04,-1.05,1.96,-2.73,51.95
42912,756.96,761.20,763.43,760.04,760.41,134.28,-950.68,338.87,0.67,2.47,0.92,50.11
42946,756.97,761.12,763.48,760.06,760.41,145.51,-942.87,323.24,1.05,1.92,-4.21,51.78
42980,756.92,761.17,763.49,760.10,760.42,149.90,-952.64,315.92,0.48,-0.13,0.65,51.19
43014,756.90,761.20,763.42,760.08,760.40,142.58,-939.94,328.61,1.16,2.63,0.46,49.58
43048,756.90,761.11,763.52,760.01,760.38,140.62,-945.80,320.80,0.54,-0.12,2.85,53.72
43082,756.93,761.24,763.46,760.01,760.41,137.21,-956.54,328.61,2.64,1.05,-0.93,51.08
43117,756.98,761.16,763.40,760.04,760.39,148.44,-954.10,329.10,1.61,3.43,-0.11,49.74
43151,756.93,761.24,763.51,760.07,760.44,137.21,-934.08,328.61,1.43,-0.56,2.89,51.61
43187,756.93,761.18,763.52,760.11,760.44,132.81,-957.52,333.50,1.20,0.11,-1.56,51.73
43221,756.90,761.17,763.52,760.04,760.41,124.02,-947.27,335.94,1.95,-0.33,2.67,52.97
43255,756.95,761.18,763.49,760.06,760.42,129.88,-956.05,326.66,-0.64,-0.55,0.18,51.72
43289,756.86,761.15,763.49,760.07,760.39,145.51,-955.08,334.47,0.05,0.92,-2.60,51.98
43323,756.92,761.17,763.51,760.07,760.42,141.60,-958.98,327.15,0.80,0.69,-1.07,52.20
43357,756.93,761.20,763.46,760.00,760.40,126.95,-947.27,335.94,0.27,0.10,2.50,51.85
43392,756.92,761.18,763.52,760.04,760.41,150.88,-944.82,335.45,-0.36,1.20,-0.85,52.82
43426,756.92,761.18,763.47,760.10,760.42,141.60,-952.64,323.73,1.24,1.20,2.83,50.70
43460,756.93,761.21,763.47,760.13,760.43,138.18,-943.36,334.47,0.74,0.84,1.31,49.99
43494,756.97,761.19,763.46,760.09,760.43,140.14,-945.80,329.59,-0.60,0.82,1.44,50.42
43528,756.93,761.18,763.50,760.08,760.42,136.72,-956.54,332.52,0.56,1.24,0.86,51.56
43562,756.93,761.21,763.46,760.02,760.41,143.55,-946.78,334.47,-0.66,1.06,0.53,51.34
43598,756.93,761.22,763.52,760.03,760.43,151.86,-947.75,333.01,1.66,-0.57,0.98,52.51
43632,757.02,761.26,763.48,760.03,760.44,135.74,-950.68,326.17,-0.30,1.76,0.05,50.90
43666,756.94,761.22,763.57,760.02,760.44,142.58,-950.20,338.38,-0.49,2.50,1.79,54.01
43702,757.00,761.15,763.50,760.00,760.41,152.83,-958.50,321.78,-2.64,2.33,0.37,52.70
43736,757.00,761.17,763.47,760.03,760.42,146.97,-955.57,331.05,-0.13,3.17,-0.30,51.46
43770,756.99,761.28,763.52,760.05,760.46,149.90,-946.78,325.20,0.05,0.98,0.49,51.44
43803,756.96,761.26,763.54,760.05,760.45,135.25,-958.98,327.15,0.17,1.50,1.47,52.36
43837,756.94,761.25,763.49,760.10,760.44,143.55,-961.91,322.27,1.16,0.84,2.42,50.51
43870,756.90,761.22,763.51,760.08,760.43,150.88,-948.24,323.73,1.23,2.72,0.03,51.65
43904,756.93,761.23,763.57,760.07,760.45,135.25,-960.45,321.78,3.27,-0.59,-0.87,53.07
43937,756.94,761.20,763.47,760.09,760.43,148.93,-950.20,323.73,-0.55,0.82,1.89,50.39
43973,756.99,761.27,763.49,760.03,760.45,147.46,-959.96,329.59,1.04,2.08,-0.84,51.08
44007,757.00,761.19,763.52,760.06,760.44,143.07,-952.64,319.34,1.96,1.02,3.39,51.94
44041,757.00,761.23,763.49,760.04,760.44,139.16,-935.06,325.68,1.11,1.53,1.62,51.43
44075,757.02,761.18,763.51,760.10,760.45,140.14,-960.94,327.15,1.79,0.53,2.64,51.31
44109,756.97,761.25,763.49,760.08,760.45,137.21,-942.87,326.17,1.32,1.05,0.29,50.70
44142,757.04,761.21,763.46,760.12,760.46,142.09,-955.08,331.54,1.08,0.08,-1.06,49.56
44176,756.99,761.16,763.53,760.17,760.46,146.00,-961.43,340.82,0.50,3.07,1.97,51.17
44210,757.00,761.21,763.47,760.14,760.46,142.09,-942.87,332.52,0.95,0.31,0.69,49.54
44244,757.03,761.24,763.54,760.09,760.47,154.30,-939.45,320.80,-0.40,0.94,-0.23,51.59
44279,757.02,761.13,763.52,760.06,760.43,140.14,-952.15,327.64,1.59,2.03,0.00,52.64
44313,756.96,761.19,763.54,760.10,760.45,149.41,-959.47,330.08,-0.15,1.16,0.50,52.27
44347,756.94,761.23,763.47,760.06,760.42,146.97,-954.59,330.57,1.14,1.24,-0.81,50.78
44383,756.91,761.19,763.52,760.16,760.45,144.53,-946.29,326.66,0.73,1.37,-0.73,50.87
44417,756.92,761.25,763.57,760.05,760.45,142.58,-958.50,326.17,-0.05,1.81,0.06,53.24
44451,757.00,761.23,763.50,760.12,760.46,144.04,-945.80,321.78,-1.70,2.86,0.47,50.42
44485,757.01,761.19,763.54,760.10,760.46,142.09,-957.52,322.75,0.24,2.62,1.12,52.03
44519,756.94,761.19,763.54,760.08,760.44,142.09,-944.82,339.36,1.69,-0.97,-0.20,52.56
44553,756.97,761.24,763.54,760.03,760.45,150.88,-954.10,328.12,0.59,-1.70,0.71,52.73
44587,756.95,761.22,763.55,760.09,760.45,153.81,-942.38,329.59,1.34,-0.53,-1.57,52.36
44623,756.94,761.19,763.54,760.13,760.45,139.65,-954.10,328.61,3.08,-0.88,2.46,51.78
44657,756.91,761.25,763.53,760.10,760.45,140.62,-947.75,330.08,-0.85,0.61,1.33,51.53
44691,757.00,761.29,763.48,760.16,760.48,142.09,-956.05,318.85,0.97,3.54,3.40,48.80
44725,756.94,761.12,763.50,760.03,760.40,142.09,-954.59,329.10,-1.11,1.19,-0.92,52.76
44760,756.99,761.17,763.52,760.12,760.45,151.86,-964.84,336.91,1.24,1.75,1.84,51.50
44796,756.96,761.27,763.55,760.05,760.46,149.90,-959.96,321.78,0.24,3.96,2.10,52.58
44830,756.96,761.23,763.57,760.05,760.45,147.46,-946.78,324.22,-1.88,0.77,-2.73,53.27
44864,756.97,761.20,763.56,760.04,760.44,163.57,-954.59,343.26,1.19,2.78,-1.63,53.39
44898,757.01,761.23,763.48,760.12,760.46,148.93,-946.29,328.12,0.37,2.52,-1.63,49.87
44932,757.02,761.26,763.57,760.05,760.48,143.55,-953.61,328.61,-0.46,1.40,0.50,52.97
44966,757.01,761.30,763.53,760.06,760.48,138.18,-942.87,325.20,2.76,0.92,0.37,51.50
45000,757.00,761.19,763.52,760.05,760.44,143.07,-946.78,331.54,-0.13,1.07,0.54,52.17
45034,757.03,761.23,763.52,760.05,760.46,145.51,-945.31,328.12,-0.75,4.20,0.15,51.77
45068,756.96,761.28,763.62,759.98,760.46,151.86,-963.38,340.33,1.27,-0.53,0.79,55.15
45103,757.06,761.19,763.54,760.08,760.47,135.74,-955.57,328.61,1.13,1.66,2.24,51.99
45137,756.98,761.21,763.58,760.12,760.47,146.00,-949.22,334.47,0.88,0.81,2.45,52.78
45171,757.05,761.19,763.56,760.05,760.46,137.21,-964.36,314.45,-0.11,0.17,0.30,53.05
45207,757.02,761.18,763.48,760.05,760.43,126.46,-955.57,334.47,0.24,0.53,-0.88,51.24
45241,756.96,761.23,763.56,760.16,760.48,143.55,-955.57,323.24,0.49,0.95,1.27,51.45
45275,757.02,761.22,763.57,760.00,760.45,146.48,-955.57,324.22,0.38,2.20,0.02,53.98
45309,757.02,761.31,763.54,760.14,760.50,148.93,-946.78,337.40,1.96,2.81,-1.08,50.39
45343,757.04,761.29,763.54,760.09,760.49,139.65,-951.17,321.78,-1.37,1.76,1.15,51.21
45377,756.97,761.18,763.49,760.11,760.44,143.07,-950.68,318.36,1.68,0.30,0.91,50.85
45411,757.09,761.18,763.52,760.09,760.47,124.51,-960.45,333.50,0.31,0.18,-1.60,51.62
45445,757.03,761.24,763.52,760.17,760.49,145.51,-956.05,324.22,1.26,-0.21,-0.09,50.08
45478,757.01,761.23,763.55,760.17,760.49,139.65,-955.08,335.45,-0.13,1.15,-0.15,50.88
45512,756.96,761.26,763.49,760.15,760.46,147.46,-953.61,333.98,0.27,1.92,-2.63,49.69
45547,756.96,761.16,763.58,760.05,760.43,143.55,-949.22,327.15,-1.15,1.91,1.37,54.17
45580,757.00,761.28,763.56,760.05,760.47,131.84,-952.15,336.91,-1.66,1.85,0.17,52.39
45616,757.00,761.25,763.57,760.13,760.49,145.51,-944.34,323.24,1.13,1.56,-0.92,52.01
45650,757.02,761.27,763.52,760.23,760.51,144.04,-955.08,337.89,2.43,1.68,-0.01,49.05
45684,756.98,761.22,763.51,760.15,760.46,129.88,-948.24,312.99,-0.53,0.21,0.95,50.30
45718,756.89,761.22,763.53,760.16,760.45,147.46,-946.29,329.10,0.13,1.28,-0.66,50.93
45751,757.01,761.25,763.59,760.16,760.50,137.21,-948.24,324.22,0.84,-0.04,0.21,51.80
45785,756.92,761.24,763.56,760.23,760.49,157.71,-952.15,329.10,0.32,3.60,-0.14,50.41
45819,757.01,761.24,763.59,760.15,760.49,147.46,-951.17,327.15,0.45,2.35,2.27,52.12
45853,757.05,761.28,763.61,760.18,760.53,135.74,-953.12,325.20,1.47,-0.03,3.37,51.83
45887,757.06,761.29,763.57,760.15,760.52,143.07,-952.15,334.47,1.12,1.49,-1.53,50.84
45921,756.98,761.26,763.60,760.12,760.49,133.79,-958.98,322.75,-1.21,-0.19,3.21,52.74
45956,757.02,761.29,763.61,760.10,760.50,139.16,-955.08,326.66,0.76,0.13,2.61,52.74
45990,757.05,761.26,763.57,760.17,760.51,144.53,-949.71,330.57,0.43,1.97,3.45,51.06
46026,757.01,761.27,763.65,760.10,760.51,141.11,-955.08,310.06,0.21,1.79,-0.07,54.08
46060,757.11,761.33,763.59,760.15,760.54,132.81,-943.36,331.05,-0.25,2.07,2.15,51.21
46094,757.05,761.31,763.57,760.12,760.51,148.44,-946.78,335.45,1.16,1.63,-2.58,51.28
46128,757.03,761.29,763.61,760.14,760.52,152.34,-942.38,309.57,1.01,0.80,0.63,52.36
46162,756.99,761.29,763.57,760.12,760.49,154.79,-946.29,320.80,-0.68,2.21,0.43,51.71
46196,756.97,761.24,763.62,760.13,760.49,150.39,-961.43,342.29,-0.37,2.63,1.11,53.30
46230,756.99,761.32,763.61,760.09,760.50,133.30,-960.45,321.78,-0.44,1.04,3.74,52.82
46265,757.02,761.26,763.59,760.13,760.50,144.04,-962.40,321.78,2.47,2.09,0.38,52.33
46299,756.99,761.24,763.57,760.14,760.49,149.90,-951.66,314.94,-0.62,2.39,1.79,51.80
46333,757.00,761.30,763.62,760.17,760.52,140.62,-950.68,336.91,0.68,-0.20,2.46,52.18
46367,757.04,761.29,763.64,760.10,760.52,151.37,-943.85,315.43,1.11,1.80,-0.31,53.46
46401,757.03,761.27,763.60,760.15,760.51,134.28,-955.57,331.54,1.79,0.37,-0.07,51.92
46437,757.01,761.29,763.61,760.15,760.52,139.16,-954.59,338.38,0.83,0.60,2.73,52.31
46473,757.07,761.24,763.56,760.25,760.53,137.21,-950.68,325.68,1.31,2.51,2.60,49.62
46507,757.02,761.30,763.56,760.23,760.53,153.81,-953.61,325.20,-1.44,1.82,-0.06,49.60
46541,757.06,761.24,763.54,760.24,760.52,139.16,-957.03,337.89,0.60,1.18,-0.56,49.40
46575,756.99,761.30,763.58,760.27,760.54,147.46,-935.55,322.75,-0.02,3.39,1.60,49.48
46609,757.00,761.24,763.59,760.21,760.51,136.72,-957.52,333.98,-0.05,4.16,-0.63,51.28
46643,757.03,761.30,763.62,760.19,760.54,140.62,-957.52,338.38,1.02,0.86,1.41,51.71
46677,757.09,761.26,763.58,760.16,760.52,154.79,-958.01,339.36,2.26,-0.91,0.14,51.26
46711,757.05,761.25,763.60,760.21,760.53,147.46,-942.87,336.43,-2.11,0.87,3.06,51.11
46745,757.11,761.24,763.66,760.16,760.54,138.18,-947.75,334.96,-0.15,2.40,-0.54,53.42
46779,757.01,761.28,763.61,760.13,760.51,142.09,-936.04,316.89,0.81,1.90,-0.31,52.64
46814,756.98,761.34,763.59,760.17,760.52,142.58,-960.94,326.17,1.48,1.15,1.01,51.11
46849,757.00,761.23,763.65,760.18,760.51,141.11,-950.68,328.61,0.35,1.33,1.53,53.33
46884,757.01,761.33,763.58,760.17,760.52,139.65,-956.05,324.71,-0.37,0.89,-1.75,50.79
46918,757.05,761.32,763.59,760.11,760.52,147.46,-952.15,322.75,-0.53,3.50,1.32,51.84
46952,757.05,761.24,763.65,760.19,760.53,154.79,-939.94,333.01,0.15,4.18,0.93,52.79
46986,757.08,761.25,763.63,760.16,760.53,140.14,-951.17,322.27,-1.52,3.06,1.90,52.58
47019,757.02,761.25,763.56,760.16,760.49,133.79,-958.01,324.71,3.08,0.98,0.79,51.05
47053,757.02,761.19,763.61,760.18,760.50,140.14,-956.05,331.54,-0.45,1.31,1.18,52.39
47087,757.07,761.21,763.57,760.20,760.51,141.60,-958.98,327.64,2.19,1.26,0.66,50.86
47120,757.08,761.20,763.60,760.20,760.52,134.77,-954.10,320.31,0.31,1.95,0.69,51.69
47154,757.09,761.21,763.60,760.17,760.51,137.21,-960.45,331.54,1.38,-0.81,0.21,52.05
47187,757.05,761.26,763.61,760.25,760.55,154.30,-943.85,330.08,1.44,0.31,1.85,50.73
47223,757.09,761.28,763.58,760.24,760.55,150.88,-954.10,337.40,-0.17,0.30,2.43,50.01
47257,757.09,761.27,763.66,760.23,760.56,145.51,-954.10,318.36,0.42,1.05,1.15,52.14
47291,757.03,761.23,763.55,760.21,760.51,137.70,-947.27,322.75,1.14,1.71,-2.08,50.30
47325,757.11,761.33,763.59,760.23,760.56,148.93,-947.75,329.10,-0.62,1.76,-0.11,49.77
47359,757.07,761.19,763.61,760.27,760.54,135.25,-947.75,329.59,0.85,2.15,0.40,51.22
47394,757.14,761.26,763.63,760.14,760.54,145.51,-960.45,328.12,1.75,2.21,-0.60,52.54
47428,757.07,761.24,763.63,760.22,760.54,151.86,-961.43,325.20,1.03,1.70,-1.39,51.84
47462,757.06,761.23,763.63,760.15,760.52,133.30,-961.43,330.08,1.19,1.92,2.69,53.01
47496,757.05,761.31,763.65,760.19,760.55,138.67,-959.96,321.78,0.21,1.43,-0.04,52.46
47530,757.10,761.28,763.66,760.22,760.57,156.25,-947.27,324.22,0.01,2.40,1.27,52.29
47564,757.11,761.27,763.63,760.20,760.55,149.41,-954.59,328.12,2.20,0.26,0.23,51.70
47598,757.12,761.30,763.64,760.21,760.57,146.00,-953.12,329.10,-0.75,3.61,2.56,51.71
47634,757.06,761.24,763.67,760.17,760.54,133.30,-955.57,332.52,-1.10,3.74,1.86,53.49
47668,757.10,761.18,763.63,760.14,760.51,151.37,-960.94,322.27,-1.56,-1.34,-0.56,53.47
47703,757.10,761.25,763.64,760.22,760.55,144.53,-960.45,335.45,0.60,0.83,-1.10,52.01
47737,757.09,761.27,763.62,760.13,760.53,148.93,-947.27,331.54,1.58,1.02,-0.18,52.51
47771,757.10,761.29,763.63,760.23,760.56,129.39,-947.27,317.87,2.33,2.38,1.98,51.26
47805,757.17,761.29,763.60,760.16,760.56,146.97,-955.08,337.40,0.73,0.45,1.08,51.23
47839,757.09,761.21,763.61,760.21,760.53,130.86,-949.22,330.08,0.02,-0.92,1.08,51.64
47873,756.99,761.23,763.66,760.22,760.52,138.67,-963.87,331.05,0.11,2.82,1.60,53.12
47907,757.06,761.29,763.63,760.21,760.55,138.67,-946.29,316.89,1.21,1.79,0.92,51.68
47941,757.04,761.23,763.63,760.16,760.51,135.25,-960.45,334.96,1.27,2.32,-0.47,52.88
47975,757.09,761.21,763.59,760.20,760.52,140.62,-964.36,331.54,0.92,0.64,1.39,51.46
48010,757.07,761.36,763.62,760.13,760.55,143.55,-955.57,322.27,-0.42,1.63,1.55,51.97
48045,757.09,761.24,763.67,760.15,760.54,144.04,-952.64,324.22,0.27,1.00,-1.26,53.71
48080,757.01,761.30,763.65,760.25,760.55,138.18,-957.03,325.68,1.98,0.73,-0.60,51.52
48114,757.15,761.24,763.70,760.19,760.57,140.62,-942.38,324.71,2.52,2.69,2.34,53.94
48148,757.13,761.28,763.61,760.21,760.56,148.44,-955.08,317.38,-0.64,0.71,0.02,51.11
48182,757.13,761.32,763.58,760.18,760.55,140.62,-953.61,332.03,1.26,-0.07,-0.01,50.45
48216,757.08,761.25,763.66,760.18,760.54,136.23,-954.10,326.66,1.63,2.96,0.67,53.10
