currTime,s1,s2,s3,s4,s,AccX,AccY,AccZ,GyroX,GyroY,GyroZ,GRF
26,807.29,776.99,758.00,761.74,776.01,-36.62,-901.37,481.45,0.61,1.10,-0.61,-409.48
62,807.48,776.93,758.02,761.71,776.04,-35.16,-908.20,483.40,-1.23,1.98,-1.10,-408.53
98,807.74,776.91,758.01,761.65,776.08,-30.27,-904.30,468.75,1.14,0.18,-1.21,-408.81
134,807.82,776.88,757.88,761.51,776.02,-22.46,-898.93,482.42,0.22,1.92,-1.02,-409.82
170,807.82,776.82,757.98,761.51,776.03,-45.90,-893.55,468.26,-2.70,-0.30,1.15,-406.95
206,807.64,776.76,757.94,761.49,775.96,-28.32,-897.46,477.05,-0.90,0.66,-1.45,-406.57
246,807.46,776.80,757.88,761.60,775.93,-37.60,-899.41,470.21,-0.90,0.60,-2.31,-409.40
281,807.14,777.03,758.05,761.81,776.01,-28.81,-897.95,484.37,0.86,-0.01,-1.92,-408.92
317,806.68,777.27,758.04,762.06,776.01,-32.71,-900.88,482.91,0.67,-0.19,0.54,-413.36
353,806.30,777.35,758.06,762.08,775.95,-30.76,-908.20,485.84,0.62,-2.12,-0.50,-412.41
389,805.81,777.50,758.16,762.18,775.91,-31.74,-905.76,478.03,0.39,-0.41,-0.78,-410.83
424,805.42,777.52,758.12,762.27,775.83,-33.69,-899.90,487.30,-0.13,-1.79,-3.11,-412.05
463,805.42,777.47,758.12,762.32,775.83,-32.71,-907.71,479.00,-0.25,0.07,-0.72,-412.51
498,805.40,777.45,758.19,762.25,775.82,-29.79,-918.46,479.98,0.31,0.26,-2.16,-409.32
534,805.50,777.49,758.12,762.28,775.85,-31.25,-907.71,478.52,-1.37,-0.08,-1.94,-412.17
569,805.52,777.52,758.09,762.27,775.85,-39.55,-909.67,490.23,0.07,3.31,2.22,-413.21
605,805.57,777.46,758.09,762.24,775.84,-34.18,-895.02,468.26,0.45,-0.27,-0.89,-412.53
641,805.71,777.37,758.06,762.21,775.84,-24.90,-895.02,484.37,-1.42,1.64,-2.85,-412.47
679,805.98,777.36,758.10,762.20,775.91,-26.86,-901.86,475.59,-1.05,1.44,-0.95,-412.09
715,806.19,777.35,758.21,762.16,775.98,-41.99,-901.86,488.77,0.63,0.71,-0.72,-409.41
750,806.27,777.24,758.06,762.16,775.93,-31.25,-886.72,487.30,-1.50,-0.59,1.51,-412.56
786,806.30,777.23,758.04,762.11,775.92,-22.46,-907.71,483.40,-1.63,1.41,1.68,-412.54
821,806.44,777.31,758.05,762.13,775.98,-34.67,-907.71,473.14,-1.37,2.28,-2.34,-413.65
859,806.55,777.19,758.06,762.08,775.97,-38.09,-902.83,476.07,-0.16,-0.85,-0.71,-411.94
895,806.69,777.14,758.04,762.12,776.00,-23.44,-905.76,469.24,-0.92,-0.05,0.57,-412.99
931,806.81,777.08,758.06,762.05,776.00,-41.50,-911.62,480.96,-0.13,-1.46,1.11,-411.65
967,806.85,777.08,758.04,761.97,775.99,-37.60,-896.00,486.33,0.13,1.75,-1.60,-411.14
1003,806.94,777.01,758.00,761.98,775.98,-29.79,-913.57,478.03,-1.23,0.18,-1.04,-412.01
1038,807.06,776.97,758.05,761.90,775.99,-31.74,-900.39,481.45,1.16,1.19,-2.34,-409.67
1077,807.26,776.94,758.08,761.86,776.04,-30.27,-896.48,484.37,0.73,-1.41,0.73,-408.61
1113,807.45,776.94,758.01,761.89,776.07,-33.69,-899.90,484.37,-0.91,0.98,-1.75,-411.62
1148,807.50,776.79,758.09,761.90,776.07,-42.48,-901.86,480.47,0.56,-0.78,-0.25,-408.76
1184,807.66,776.84,758.04,761.83,776.09,-27.83,-919.43,475.10,-1.62,2.24,-0.47,-409.79
1220,807.80,776.83,758.03,761.88,776.13,-37.60,-900.88,486.82,0.86,1.42,-1.46,-411.18
1256,807.97,776.86,758.00,761.82,776.16,-33.20,-908.69,470.21,1.90,0.64,-0.46,-412.10
1294,808.19,776.92,758.01,761.80,776.23,-31.25,-912.11,478.03,0.34,-0.48,-0.30,-412.48
1330,808.31,776.86,758.01,761.79,776.24,-33.69,-902.83,483.40,-0.34,0.44,-1.42,-412.44
1366,808.38,776.84,757.97,761.79,776.25,-37.11,-906.25,478.52,-1.06,0.30,-1.31,-413.51
1401,808.49,776.89,757.92,761.78,776.27,-40.04,-898.44,488.28,-0.88,2.31,0.56,-415.32
1437,808.78,776.93,758.14,761.82,776.42,-37.11,-897.46,484.37,-0.03,-1.05,0.02,-411.83
1473,808.84,776.83,758.08,761.85,776.40,-28.81,-899.90,484.37,0.62,3.60,0.33,-412.96
1511,808.84,776.91,757.97,761.79,776.38,-42.48,-899.41,475.10,-1.10,-1.82,-0.60,-415.58
1547,809.00,776.96,758.00,761.90,776.47,-34.18,-838.87,518.07,-3.69,1.83,-1.19,-417.45
1583,809.02,776.92,757.98,761.89,776.45,-63.96,-904.79,409.18,2.24,-4.63,-0.20,-417.66
1618,809.07,776.97,758.06,761.82,776.48,176.76,-874.02,370.61,-4.56,-1.61,-1.38,-415.10
1654,809.02,776.85,758.03,761.76,776.42,-32.71,-935.06,491.70,-0.32,0.95,0.90,-413.68
1690,809.04,776.96,758.00,761.86,776.47,-36.62,-899.41,471.19,-0.08,1.21,-1.36,-417.06
1728,808.94,776.90,758.06,761.88,776.44,-27.34,-894.04,477.05,0.02,-0.03,0.84,-414.92
1764,808.98,776.89,758.01,761.90,776.45,-38.09,-897.46,480.47,1.21,-0.22,-0.95,-416.45
1799,809.00,776.90,758.02,761.91,776.46,-35.64,-896.00,468.26,-0.72,0.88,-0.41,-416.60
1835,808.95,776.88,758.09,761.85,776.44,-32.71,-920.90,462.40,-0.26,0.80,-0.40,-413.58
1871,808.90,776.81,758.07,761.81,776.40,-59.08,-919.92,477.05,-3.68,0.20,-1.37,-412.81
1907,808.90,776.81,758.09,761.82,776.40,-29.79,-898.93,479.49,0.05,1.60,0.82,-412.37
1946,808.97,776.78,758.05,761.75,776.39,-33.69,-903.32,485.35,1.66,0.46,-0.48,-412.29
1982,809.01,776.75,758.04,761.81,776.40,-19.53,-909.18,414.06,-5.61,1.94,-0.29,-413.58
2017,808.99,776.67,758.02,761.84,776.38,-24.41,-901.37,469.73,-3.34,2.74,-2.06,-413.72
2053,808.90,776.74,757.98,761.78,776.35,-24.90,-914.06,479.49,3.71,-3.36,-0.21,-413.91
2089,808.85,776.76,758.00,761.78,776.35,-33.69,-921.39,454.10,0.03,0.65,1.08,-413.53
2125,808.91,776.72,757.97,761.82,776.35,-61.52,-941.41,447.75,1.29,2.30,0.08,-414.73
2163,809.09,776.68,757.99,761.70,776.37,-35.64,-896.00,469.73,-0.33,-3.75,-0.37,-412.63
2198,809.05,776.59,757.99,761.75,776.34,54.69,-863.28,657.71,14.48,-1.89,1.06,-412.67
2234,809.01,776.71,758.03,761.83,776.39,-84.96,-933.11,388.18,-1.34,2.21,-0.86,-413.64
2269,808.67,776.74,758.01,761.88,776.33,-35.16,-940.92,492.19,-1.12,-0.47,-2.00,-413.88
2305,808.96,776.67,758.01,761.72,776.34,-28.81,-890.14,481.93,-0.76,0.24,-0.92,-411.94
2343,809.06,776.66,758.02,761.78,776.38,-96.19,-924.32,460.94,-4.05,0.45,0.46,-412.93
2379,809.14,776.63,758.04,761.70,776.38,-41.50,-913.09,457.03,-0.84,0.75,-1.06,-411.28
2414,808.97,776.55,757.96,761.69,776.29,-48.83,-907.71,489.75,-0.47,-2.31,1.00,-411.88
2450,809.12,776.58,757.99,761.72,776.35,-44.43,-938.48,496.58,6.05,-2.05,-2.63,-412.44
2485,809.16,776.57,757.96,761.66,776.34,-29.30,-892.09,487.79,0.65,1.47,-2.20,-412.25
2520,809.18,776.60,758.03,761.64,776.36,-28.81,-895.51,477.05,-1.20,1.14,1.05,-410.47
2558,809.13,776.55,758.01,761.69,776.35,-26.37,-914.55,476.56,0.01,-0.58,-0.34,-411.15
2594,809.05,776.46,758.04,761.75,776.33,-35.64,-905.27,485.35,-0.14,-0.60,-0.23,-410.32
2630,809.07,776.54,757.91,761.68,776.30,-39.06,-916.99,472.17,-0.73,-0.15,0.85,-413.36
2666,809.11,776.52,757.92,761.62,776.29,-37.11,-904.30,464.36,-0.79,1.58,-0.47,-412.16
2701,809.14,776.49,757.96,761.62,776.31,-18.07,-905.27,475.10,0.31,-0.28,0.55,-410.96
2737,809.16,776.50,757.97,761.57,776.30,-40.04,-907.71,464.36,-0.21,-0.09,0.91,-410.18
2776,809.17,776.56,757.89,761.62,776.31,-41.50,-895.51,482.91,-0.47,0.02,-1.53,-413.36
2811,809.25,776.46,758.01,761.59,776.32,-28.81,-910.64,473.63,-0.08,-1.11,0.76,-409.49
2848,809.27,776.41,757.93,761.61,776.31,-29.79,-906.25,485.35,-0.11,-0.44,-1.76,-411.44
2883,809.33,776.45,757.97,761.64,776.35,-30.76,-905.76,480.47,-0.56,0.53,0.79,-411.30
2919,809.39,776.39,757.99,761.66,776.36,-43.95,-902.34,480.47,0.47,0.89,-1.26,-410.91
2955,809.40,776.34,757.96,761.64,776.34,-44.43,-901.37,483.89,-2.00,0.84,-0.24,-410.97
2993,809.41,776.44,757.92,761.69,776.36,-36.62,-920.90,485.35,-1.07,-0.31,0.55,-413.45
3029,809.32,776.42,757.91,761.69,776.34,-36.13,-895.51,478.52,0.20,0.34,-1.07,-413.21
3064,809.32,776.51,757.92,761.70,776.36,-34.67,-903.32,485.35,0.31,-0.31,-0.36,-413.97
3100,809.26,776.47,757.95,761.62,776.33,-33.69,-911.13,487.30,-1.65,0.31,-1.14,-411.48
3135,809.18,776.39,757.95,761.69,776.30,-36.13,-904.30,467.77,0.10,1.34,0.15,-411.60
3171,809.26,776.40,758.03,761.66,776.34,-19.04,-897.46,481.93,-1.20,-0.69,-1.93,-409.51
3209,809.31,776.42,758.01,761.65,776.35,-47.36,-902.34,472.66,1.14,0.78,-2.40,-410.15
3245,809.42,776.33,758.05,761.55,776.34,-33.20,-897.95,478.03,-0.47,-0.15,-0.60,-407.29
3281,809.31,776.32,757.94,761.53,776.28,-35.64,-893.55,479.00,0.77,-1.77,-2.02,-409.50
3316,809.27,776.34,758.03,761.55,776.30,-43.95,-908.20,470.70,-0.56,1.61,-1.13,-407.49
3352,809.34,776.33,757.99,761.54,776.30,-35.64,-897.46,481.45,0.70,0.57,-1.71,-408.33
3387,809.35,776.38,757.98,761.54,776.31,-38.09,-908.20,477.54,-0.38,1.05,-0.60,-409.11
3425,809.46,776.35,757.88,761.56,776.31,-24.90,-908.69,481.93,1.97,-1.69,-0.43,-412.12
3461,809.37,776.36,757.92,761.52,776.29,-39.55,-903.81,481.93,-0.08,-0.95,1.76,-410.21
3496,809.39,776.35,757.89,761.54,776.29,-38.57,-912.60,480.96,-2.15,0.79,-4.03,-411.21
3532,809.58,776.36,757.95,761.49,776.35,-41.99,-909.18,474.61,1.43,-0.31,-0.25,-409.74
3568,809.52,776.34,757.96,761.57,776.35,-35.16,-905.76,484.37,-1.05,-1.55,-0.40,-410.29
3606,809.47,776.33,757.89,761.48,776.29,-33.69,-906.74,471.68,-1.40,0.36,-1.35,-410.61
3641,809.56,776.36,757.91,761.48,776.33,-48.34,-897.46,489.75,0.63,-0.43,3.27,-410.66
3677,809.79,776.31,757.91,761.40,776.35,-43.46,-911.13,477.54,0.66,-0.21,-1.31,-409.84
3713,810.31,776.26,757.87,761.31,776.44,-39.55,-909.67,477.05,-0.95,0.41,0.65,-410.89
3748,810.63,776.23,757.87,761.29,776.50,-31.25,-905.27,483.40,-0.55,2.30,0.68,-411.38
3784,810.76,776.17,757.81,761.19,776.48,-34.18,-903.81,498.54,-0.45,-0.89,-0.18,-411.38
3823,810.77,776.14,757.84,761.30,776.51,-40.53,-904.79,480.96,0.43,-2.50,2.19,-412.22
3858,810.93,776.22,757.92,761.34,776.60,-42.48,-885.74,480.47,-0.76,1.17,-2.74,-411.82
3894,811.35,776.25,757.88,761.26,776.68,-38.57,-914.55,484.37,0.92,-0.47,-0.78,-413.41
3929,812.57,776.38,757.90,761.31,777.04,-30.27,-905.76,481.45,0.35,0.28,-1.92,-418.86
3965,813.54,776.42,757.88,761.16,777.25,-40.04,-906.25,490.23,-0.47,1.81,1.65,-420.69
4000,814.43,776.50,757.83,761.08,777.46,-30.76,-900.88,475.59,-0.25,-0.71,-0.10,-424.50
4039,815.70,776.47,757.88,761.06,777.78,-37.60,-903.32,481.45,-0.20,1.10,-0.20,-427.12
4074,817.00,776.45,757.81,760.96,778.06,-33.69,-905.76,477.05,1.66,0.53,1.11,-431.59
4110,818.09,776.48,757.77,760.86,778.30,-39.55,-903.81,495.12,-0.33,-0.08,0.35,-435.20
4145,818.88,776.30,757.87,760.79,778.46,-39.06,-916.02,478.03,-1.41,1.37,-1.24,-432.87
4180,819.27,776.01,757.75,760.75,778.45,-19.04,-896.97,487.30,0.30,-0.56,-0.24,-434.35
4216,818.88,775.67,757.72,760.66,778.23,-40.53,-905.76,477.54,0.08,2.63,-0.08,-429.58
4254,818.11,775.36,757.64,760.67,777.94,-39.55,-904.30,482.42,1.24,-2.31,-0.17,-426.66
4289,817.44,775.14,757.76,760.65,777.75,-36.62,-888.18,480.47,-1.68,-2.18,-0.95,-419.44
4325,816.29,774.99,757.70,760.58,777.39,-36.13,-900.39,483.40,-0.34,0.37,-2.58,-414.51
4360,814.64,774.76,757.73,760.60,776.93,-29.79,-904.30,469.73,1.51,-0.27,1.78,-406.60
4396,813.33,774.69,757.77,760.73,776.63,-34.67,-899.90,479.00,-0.01,0.76,-2.03,-402.52
4431,811.55,774.48,757.66,760.58,776.07,-34.18,-915.53,476.07,0.44,1.48,-2.88,-395.30
4470,809.36,773.92,757.69,760.33,775.33,-43.46,-907.23,484.86,-2.82,0.37,-0.69,-378.96
4506,805.99,772.58,757.43,759.56,773.89,-32.23,-908.20,475.10,-4.15,0.95,-0.54,-351.83
4541,798.21,769.70,756.99,758.20,770.77,-34.18,-902.34,542.48,-12.34,-0.39,1.54,-292.68
4577,785.04,766.84,756.44,756.98,766.33,-42.48,-928.71,445.80,-34.96,4.50,1.27,-220.37
4613,769.12,764.20,756.08,756.13,761.38,76.17,-959.96,443.85,-72.02,31.60,-6.47,-141.11
4648,758.53,762.21,755.84,755.82,758.10,144.04,-877.44,382.81,-71.59,141.57,-42.66,-90.33
4687,757.02,761.58,755.80,755.85,757.56,-343.75,-1326.66,276.86,-12.22,210.53,-72.27,-81.42
4722,756.49,761.26,755.66,755.71,757.28,-570.31,-971.68,326.17,9.02,227.79,-44.00,-78.55
4759,756.10,761.04,755.67,755.85,757.16,-490.72,-811.52,252.93,4.19,198.02,-34.46,-77.03
4794,755.79,760.81,755.68,755.71,757.00,-427.25,-808.59,250.98,-10.81,165.96,-29.80,-71.87
4830,755.52,760.70,755.67,755.75,756.91,-290.04,-879.88,309.08,-26.33,143.58,-20.91,-71.10
4868,755.34,760.70,755.63,755.74,756.85,-140.62,-889.65,331.05,-19.98,112.56,-9.47,-71.07
4904,755.10,760.66,755.62,755.76,756.78,-23.93,-937.99,301.27,-8.31,94.82,-1.09,-70.74
4939,754.89,760.58,755.59,755.68,756.69,59.08,-841.80,289.55,-5.22,79.47,-4.63,-68.90
4975,754.74,760.45,755.56,755.68,756.61,72.75,-893.07,335.94,-5.66,66.35,-12.34,-67.97
5011,755.41,760.56,755.53,755.73,756.81,81.54,-1713.87,49.80,158.92,-5.40,-41.41,-72.79
5046,758.09,760.88,755.43,755.78,757.55,46.39,-1499.51,654.30,98.90,23.21,-63.51,-87.69
5085,777.24,762.30,755.71,756.69,762.98,-223.63,-1364.75,252.93,118.88,-70.56,-65.21,-171.11
5121,791.80,765.34,756.11,759.20,768.11,-132.32,-830.08,330.57,58.26,-19.27,-4.07,-272.46
5156,803.42,769.36,756.65,762.67,773.03,-84.47,-925.78,456.05,16.82,-11.11,-6.69,-382.35
5192,823.90,773.82,757.41,766.59,780.43,-45.90,-916.99,407.71,20.88,3.53,-8.56,-527.16
5228,842.24,777.20,758.10,768.95,786.62,-36.62,-891.11,475.10,7.07,6.46,-0.47,-634.64
5264,854.95,779.82,758.46,770.67,790.97,-64.94,-933.59,456.54,0.03,2.24,-0.67,-715.59
5302,859.23,781.67,758.69,771.47,792.76,-39.06,-930.66,446.29,-4.41,2.60,-2.40,-751.15
5338,856.75,782.27,758.78,771.65,792.36,-30.27,-935.55,456.05,-3.02,2.86,-0.77,-747.90
5373,853.44,782.02,758.76,771.38,791.40,-24.41,-904.30,483.40,0.81,3.98,0.08,-731.14
5409,849.10,782.28,758.82,771.46,790.41,-38.57,-917.97,472.66,0.29,4.59,1.11,-717.95
5445,844.86,783.42,759.00,771.92,789.80,-36.13,-922.36,468.75,4.92,4.89,-2.30,-714.86
5483,840.98,785.10,759.21,772.99,789.57,-49.80,-910.64,477.54,5.44,5.27,-4.02,-725.57
5518,838.25,786.97,759.51,774.21,789.73,-36.13,-916.99,463.38,3.96,3.18,-1.56,-741.61
5554,835.43,789.14,759.94,775.53,790.01,-24.41,-906.74,485.35,2.76,3.49,-3.21,-758.01
5589,831.38,790.99,760.17,776.53,789.77,-39.55,-917.97,473.14,1.87,0.76,-2.29,-768.05
5625,827.21,792.05,760.46,777.37,789.27,-33.20,-910.16,479.00,2.66,2.85,-2.54,-767.45
5660,823.48,793.35,760.86,778.60,789.07,-31.74,-906.25,466.31,3.42,3.20,-2.03,-773.14
5699,818.52,795.55,761.52,780.41,789.00,-25.88,-899.90,484.37,2.44,3.86,-6.41,-784.04
5734,813.22,798.23,762.32,782.88,789.16,-21.97,-907.71,479.49,0.37,3.33,-4.85,-803.72
5770,806.91,801.06,763.35,786.24,789.39,-33.69,-913.09,485.84,-0.58,3.78,-3.76,-828.46
5805,798.71,803.95,765.00,791.14,789.70,-27.83,-925.78,482.42,-5.09,0.01,-6.37,-854.60
5841,786.89,806.16,767.26,796.43,789.18,-38.09,-927.25,475.59,-14.61,-3.08,-9.18,-853.34
5876,772.51,806.93,769.88,799.13,787.11,-41.50,-970.70,434.57,-27.67,-0.19,-17.02,-784.49
5914,758.97,803.87,772.26,795.35,782.61,-78.61,-968.75,396.00,-61.37,7.40,-28.59,-598.61
5950,753.57,793.14,775.00,785.29,776.75,-330.57,-1254.39,661.62,-12.95,-58.50,-90.86,-277.62
5986,752.34,778.08,773.73,770.90,768.76,-174.32,-1329.59,604.00,-89.74,-58.54,-159.11,27.60
6021,751.35,769.72,766.67,764.00,762.94,-28.81,-2000.00,804.20,-105.78,-47.79,-250.14,23.62
6057,750.87,765.88,758.29,758.01,758.26,-215.82,-2000.00,1036.13,-93.39,-32.48,-250.14,-64.47
6093,751.34,764.60,756.11,756.72,757.19,-360.35,-773.93,29.79,-52.28,-30.25,-239.80,-91.20
6131,750.91,763.87,755.94,756.37,756.77,-221.19,-1255.37,547.36,5.52,97.11,-75.47,-82.95
6167,751.15,763.06,755.89,756.15,756.56,-347.66,-421.39,320.31,32.90,169.82,-33.43,-75.26
6203,751.13,762.42,755.78,756.01,756.33,-622.07,-123.54,275.88,-6.06,161.40,28.59,-70.76
6238,751.08,762.10,755.76,756.00,756.23,-703.61,-141.60,413.09,-34.31,137.85,105.17,-68.52
6274,751.03,761.96,755.79,755.90,756.17,-541.50,-250.49,543.46,-44.12,123.29,170.69,-64.78
6313,750.92,761.93,755.80,755.82,756.12,-344.73,-447.27,703.61,-38.95,147.63,199.90,-62.88
6348,750.78,761.90,755.74,755.84,756.07,-326.66,-778.81,740.72,-26.10,141.05,198.27,-63.92
6384,750.64,762.22,755.74,755.94,756.14,283.20,-982.91,903.81,-22.24,145.56,180.29,-67.51
6420,750.30,762.22,755.70,755.90,756.03,700.20,-1181.15,840.33,-29.38,132.61,82.08,-66.56
6456,750.21,761.96,755.73,755.82,755.93,1714.84,-1594.73,881.84,-96.02,75.06,9.39,-62.48
6491,750.11,761.94,755.65,755.84,755.88,1999.94,-1421.39,767.09,31.77,70.92,63.44,-64.20
6529,750.15,761.74,755.69,755.67,755.81,1360.35,-944.34,260.25,-12.25,58.67,0.29,-59.29
6565,770.89,762.23,755.78,755.83,761.19,-625.49,-1604.49,1768.07,67.91,-120.89,-90.05,-134.44
6601,802.78,764.74,755.89,756.91,770.08,-30.27,-1078.61,168.95,-8.12,23.23,-74.75,-277.15
6636,816.55,770.01,756.50,759.90,775.74,-119.63,-1102.05,249.02,28.65,11.34,-31.02,-395.44
6673,830.50,775.77,757.58,764.04,781.97,-135.25,-932.62,417.97,22.93,9.92,-16.15,-523.62
6709,830.36,779.87,759.10,768.69,784.50,-29.79,-936.52,481.45,14.23,1.18,-11.47,-586.62
6747,824.78,782.40,760.87,773.82,785.47,-26.86,-896.48,487.30,6.89,0.74,-4.07,-619.10
6783,818.90,783.95,762.26,777.41,785.63,-6.84,-884.77,533.20,0.55,0.54,-2.46,-629.60
6818,813.44,784.45,762.69,778.45,784.76,2.93,-893.55,504.88,-1.38,3.05,-3.89,-619.50
6854,810.11,784.55,762.59,778.48,783.93,-21.00,-889.16,507.81,0.61,6.60,-4.51,-611.74
6890,807.87,784.70,762.20,777.92,783.17,-28.81,-887.70,518.55,1.86,7.11,1.18,-606.78
6928,805.52,785.29,761.68,777.54,782.51,-14.65,-887.21,491.21,2.84,4.83,-2.28,-610.75
6964,803.32,785.75,761.44,777.38,781.97,-18.07,-874.51,516.11,3.69,0.76,-1.98,-610.57
7000,801.68,786.40,761.46,778.00,781.88,-14.65,-884.77,504.88,1.21,-0.50,0.57,-618.66
7035,801.38,787.61,761.50,779.09,782.39,-25.39,-875.98,510.25,5.22,0.98,-1.89,-642.28
7071,801.74,789.64,761.99,780.72,783.52,-28.32,-875.49,531.74,3.63,2.39,-3.21,-671.86
7107,801.01,792.30,762.65,783.64,784.90,-27.83,-888.67,516.11,1.91,4.92,-4.12,-717.21
7144,797.78,795.40,764.04,788.61,786.46,-17.58,-886.23,517.09,0.49,-0.01,-6.77,-769.52
7180,792.76,798.38,765.83,794.62,787.90,-16.60,-875.98,520.02,1.60,-0.03,-2.84,-819.84
7216,784.19,800.75,768.60,801.82,788.84,-22.95,-910.64,495.61,-16.88,-0.76,-6.34,-846.61
7251,772.07,801.55,771.80,808.35,788.44,-34.18,-946.29,550.78,-32.99,2.34,-14.84,-827.69
7286,761.64,799.88,774.70,812.83,787.26,-32.23,-958.98,480.47,-30.75,5.23,-23.74,-772.24
7322,754.34,795.02,777.40,812.02,784.69,-104.49,-1032.71,680.66,-44.35,-13.73,-24.43,-629.01
7360,752.16,785.22,779.47,802.45,779.82,-73.24,-1108.89,563.96,-5.44,-40.60,-58.28,-350.52
7396,751.55,775.54,778.58,787.47,773.29,8.79,-1231.45,528.81,-7.52,-51.13,-90.89,-72.53
7431,751.17,768.60,773.86,772.75,766.59,17.09,-1364.26,397.46,3.45,-51.73,-130.08,83.48
7467,750.76,764.75,768.94,766.22,762.67,18.07,-1574.71,509.77,20.26,-47.82,-197.53,89.43
7502,750.51,762.53,763.07,760.22,759.08,43.95,-1455.08,586.91,-6.66,-32.73,-248.29,50.10
7537,750.38,761.21,757.21,756.66,756.36,-215.82,-1660.16,606.45,-18.24,-11.11,-250.14,-32.50
7576,750.94,761.10,756.02,756.21,756.07,15.14,-786.13,3.42,-50.47,-11.28,-175.75,-56.53
7612,750.58,760.64,755.85,756.15,755.80,-688.48,-748.54,124.02,29.50,25.63,5.26,-54.90
7648,750.70,760.26,755.77,756.11,755.71,-515.62,-505.37,123.05,-22.98,18.32,79.85,-53.71
7683,750.71,759.96,755.74,755.99,755.60,-547.85,-523.44,215.33,-30.95,5.22,153.23,-50.32
7719,750.69,759.92,755.69,755.99,755.57,-351.07,-598.14,322.27,-47.60,21.21,201.24,-51.21
7757,750.66,760.02,755.78,755.92,755.60,-125.49,-808.59,564.94,-38.81,72.73,209.73,-48.61
7793,750.48,760.21,755.70,755.90,755.57,-45.41,-962.40,587.89,-16.50,113.64,208.69,-51.21
7829,750.51,760.47,755.80,755.89,755.67,202.64,-1361.33,590.82,-23.40,98.59,197.11,-51.01
7864,750.27,760.63,755.84,755.94,755.67,436.52,-1444.34,626.46,-47.98,116.23,166.56,-51.15
7900,750.23,760.73,755.74,755.85,755.64,731.45,-1358.89,710.45,-81.51,121.00,103.47,-52.92
7936,750.11,760.64,755.69,755.92,755.59,958.01,-1434.08,854.49,-76.81,115.37,97.94,-53.88
7974,750.13,760.41,755.65,755.82,755.50,1160.16,-1111.33,896.48,-58.61,145.22,92.26,-51.79
8010,750.04,760.19,755.52,755.84,755.40,1000.00,-980.47,684.08,6.83,134.93,68.18,-53.28
8045,750.11,759.96,755.63,755.79,755.37,840.82,-871.09,574.71,-11.87,69.27,-7.12,-48.10
8081,752.11,760.37,755.51,755.80,755.95,-156.25,-442.87,-375.49,-114.44,-221.32,-250.14,-61.42
8117,763.91,761.37,755.46,756.05,759.20,-249.51,-608.89,742.68,145.70,-84.89,-134.56,-114.89
8152,803.59,763.20,755.58,756.01,769.59,313.96,-1917.48,153.32,118.92,-57.37,-169.27,-261.87
8191,823.32,766.85,756.25,759.03,776.36,592.29,-791.50,988.77,79.29,-65.99,-32.02,-386.87
8226,825.11,770.80,757.27,762.89,779.01,176.76,-906.74,590.82,15.80,-8.72,-19.74,-456.04
8262,827.32,773.95,758.35,766.01,781.41,12.70,-898.93,534.18,25.08,-3.51,-7.22,-507.91
8297,828.11,775.74,759.19,768.78,782.95,-3.91,-906.74,492.19,14.46,-1.60,-1.18,-544.78
8333,828.03,776.74,759.92,770.54,783.81,-15.63,-895.02,485.35,9.07,-1.63,-0.49,-560.19
8371,825.47,777.90,760.38,772.54,784.07,-33.20,-910.64,458.98,2.13,2.06,-1.21,-578.70
8407,822.09,780.03,761.46,775.29,784.72,-49.32,-905.76,463.87,6.89,2.58,-3.24,-597.76
8443,817.15,782.80,762.44,778.51,785.23,-31.25,-905.27,460.94,5.88,-1.44,-3.92,-626.07
8478,811.99,785.86,763.37,781.97,785.80,-15.14,-895.51,482.91,5.94,1.89,-6.49,-660.58
8514,806.71,788.29,764.14,784.82,785.99,-17.58,-914.55,472.66,1.49,2.77,-5.13,-684.90
8550,801.30,790.20,764.90,787.30,785.92,-7.32,-911.62,476.56,3.49,1.96,-3.30,-699.07
8589,795.86,791.85,765.70,789.62,785.76,-19.53,-918.95,461.43,3.69,2.53,-5.18,-708.08
8624,792.39,792.68,766.31,791.64,785.76,-5.86,-916.50,472.66,3.63,2.19,-4.68,-717.25
8660,789.84,793.31,766.88,793.50,785.88,-9.77,-904.30,485.35,5.98,1.37,-4.47,-726.66
8696,787.55,793.57,767.41,795.30,785.96,-12.70,-907.71,483.89,8.14,6.70,-2.85,-734.14
8732,785.58,793.61,767.99,796.89,786.02,-11.23,-903.32,488.28,4.64,4.40,-3.65,-736.78
8767,782.82,793.38,768.70,798.61,785.88,-13.67,-918.95,478.52,5.41,3.01,-5.39,-732.91
8806,779.37,792.94,769.59,800.75,785.66,7.32,-905.27,503.91,2.82,3.73,-6.73,-726.92
8841,776.06,792.69,770.61,803.31,785.67,-21.97,-915.04,497.56,9.62,4.71,-9.73,-725.90
8876,772.47,792.29,771.87,806.35,785.74,-8.30,-882.32,502.93,8.20,7.38,-13.42,-723.59
8912,768.67,791.95,773.24,809.31,785.79,0.49,-891.11,503.42,1.63,4.98,-11.02,-717.29
8947,764.53,791.18,774.72,812.31,785.68,17.58,-949.22,480.96,1.86,3.16,-14.60,-704.09
8983,759.96,789.42,775.92,813.61,784.73,16.60,-898.93,519.04,0.27,2.15,-17.10,-663.58
9021,754.57,784.48,775.96,809.02,781.01,4.88,-928.22,575.68,-4.46,-10.09,-20.95,-536.96
9057,752.44,775.98,774.02,794.96,774.35,-51.76,-1065.43,605.96,-2.27,-28.95,-35.92,-302.84
9092,751.86,769.55,771.64,779.02,768.02,-164.55,-1329.10,621.58,6.34,-40.47,-85.73,-73.89
9128,751.44,764.39,767.17,765.61,762.15,33.69,-1372.56,506.84,-18.60,-31.83,-139.21,54.84
9163,751.13,761.94,761.78,760.43,758.82,128.91,-1769.04,551.76,-40.85,11.34,-182.69,17.52
9199,751.21,761.14,757.78,757.39,756.88,188.96,-1313.96,355.96,-50.08,47.79,-212.29,-31.31
9237,751.84,760.99,756.05,756.42,756.33,-499.02,-946.78,109.37,6.05,130.24,-159.66,-61.15
9273,751.60,760.68,755.83,756.34,756.11,-784.18,-483.40,-76.17,-15.35,250.13,-34.92,-62.05
9308,751.61,760.45,755.72,756.22,756.00,-755.37,-297.85,-37.60,-69.26,197.18,5.32,-61.32
9344,751.59,760.40,755.79,756.18,755.99,-676.76,-575.20,310.06,-108.08,105.77,76.97,-58.54
9380,751.52,760.60,755.72,756.11,755.99,-369.63,-845.70,597.66,-127.44,47.82,133.97,-60.65
9418,751.29,760.86,755.68,756.01,755.96,643.07,-1118.65,1319.82,-137.59,75.40,124.81,-61.35
9454,751.22,760.93,755.61,756.00,755.94,843.75,-1214.36,1192.38,-8.38,169.72,74.34,-63.32
9490,751.12,760.75,755.60,756.05,755.88,774.41,-940.43,759.28,-22.26,147.95,29.53,-62.50
9526,751.07,760.56,755.57,756.02,755.80,709.47,-807.13,875.00,-38.34,82.73,-26.83,-61.01
9562,752.41,761.84,755.76,757.90,756.98,-823.73,-2000.00,1427.73,250.13,-156.46,-72.66,-99.02
9598,760.24,767.87,756.92,761.86,761.72,271.48,-647.46,916.02,-42.19,31.07,31.31,-203.46
9636,770.07,774.18,758.02,766.69,767.24,-6.35,-823.24,521.00,48.65,5.44,-21.69,-331.56
9672,774.48,777.79,759.20,771.25,770.68,12.70,-924.80,490.23,22.01,2.93,-3.19,-413.40
9707,783.55,782.33,760.64,776.51,775.76,-1.95,-871.58,525.88,32.40,1.17,-3.66,-522.37
9743,794.46,786.94,761.73,780.60,780.93,-48.83,-920.90,484.86,19.38,-0.99,-6.60,-630.05
9779,798.97,790.40,762.86,784.29,784.13,-36.62,-903.32,503.91,5.27,-2.88,-2.89,-699.21
9814,796.87,792.39,764.09,787.10,785.11,-11.72,-892.09,506.35,-1.30,-3.82,-5.29,-718.82
9853,792.96,792.66,764.79,788.49,784.73,-4.39,-888.18,530.27,-4.43,-3.83,-1.95,-710.44
9889,787.68,792.45,765.35,788.91,783.60,-31.25,-887.21,529.79,-11.80,-0.85,-3.53,-682.96
9924,784.64,792.08,765.37,788.64,782.68,-10.74,-875.49,515.62,0.07,2.78,-2.12,-665.03
9960,783.82,792.12,765.18,787.99,782.28,-33.20,-875.98,520.02,0.47,2.74,0.66,-657.75
9996,784.21,792.63,765.10,787.68,782.40,-5.86,-878.91,513.67,7.16,3.34,0.31,-660.48
10034,785.77,793.52,764.85,787.97,783.03,-20.02,-907.23,501.46,7.26,3.80,0.29,-683.53
10070,786.70,794.45,764.88,788.38,783.60,-36.62,-878.91,521.48,1.92,2.11,-2.04,-699.45
10106,786.54,795.06,764.99,788.79,783.84,-39.06,-875.98,501.95,-0.03,3.82,-1.63,-707.22
10141,786.00,795.33,765.15,789.36,783.96,-30.27,-891.60,516.60,2.96,-0.62,-2.26,-711.75
10177,785.12,795.72,765.53,791.29,784.42,-42.48,-896.97,504.39,-1.41,-0.31,-5.10,-730.88
10213,782.23,796.22,766.39,793.91,784.69,-37.11,-898.93,521.00,-5.81,-1.05,-7.34,-742.05
10251,778.35,796.55,767.27,796.33,784.62,10.25,-887.70,522.95,-8.95,0.79,-4.80,-745.17
10287,774.98,796.96,768.55,799.88,785.09,-30.27,-923.83,490.23,-3.66,1.52,-10.12,-757.08
10323,771.06,796.99,770.03,803.08,785.29,-10.74,-874.51,499.51,-1.08,1.31,-10.89,-754.18
10358,767.70,796.78,771.11,806.02,785.40,7.32,-896.00,502.93,-1.40,1.38,-12.24,-757.26
10394,765.07,796.11,772.44,809.18,785.70,-14.65,-921.87,505.86,5.59,1.82,-14.19,-756.50
10430,762.22,794.95,773.47,811.59,785.56,-8.30,-911.62,522.95,-3.53,-1.22,-11.54,-746.99
10469,758.68,792.92,774.91,813.32,784.96,-12.21,-896.00,521.97,-13.20,2.74,-14.37,-708.21
10504,755.22,789.89,775.88,813.14,783.53,-6.84,-910.16,548.83,-19.63,-4.40,-15.66,-645.21
10540,752.70,785.17,776.49,809.52,780.97,-7.32,-1003.91,583.98,-16.34,-18.34,-17.75,-530.33
10576,751.75,777.99,775.81,799.18,776.18,-41.99,-1070.31,561.04,-3.28,-32.35,-39.52,-334.25
10611,751.37,770.12,772.49,781.42,768.85,-100.10,-1375.49,583.01,3.43,-31.36,-76.21,-90.94
10647,751.06,764.30,766.36,765.34,761.76,-147.95,-1762.21,621.58,10.60,-48.70,-148.08,40.54
10685,750.79,761.69,757.70,758.14,757.08,-234.37,-1792.97,843.75,1.79,-51.99,-219.38,-47.20
10721,751.39,761.16,755.89,756.93,756.34,-1060.55,203.12,-925.78,83.12,-150.24,-119.09,-72.59
10756,751.26,760.63,755.86,756.69,756.11,-983.40,-587.89,163.57,-116.62,-93.41,74.82,-64.86
10792,751.43,760.62,755.77,756.65,756.12,-287.60,-434.57,569.34,-69.79,-1.27,56.21,-67.15
10857,751.27,760.40,755.69,756.63,756.00,-608.40,-87.40,694.82,-0.02,98.44,100.05,-66.52
10895,751.18,760.40,755.73,756.49,755.95,-377.44,-398.44,705.08,-15.07,-6.40,163.99,-63.27
10930,751.02,760.40,755.67,756.31,755.85,51.27,-630.37,797.36,-23.28,-66.07,193.63,-61.38
10965,750.75,760.47,755.70,756.37,755.82,515.14,-1072.27,902.34,16.29,-115.33,151.17,-61.09
11001,750.64,760.30,755.62,756.22,755.70,972.17,-1570.31,608.40,50.82,-108.58,134.89,-59.34
11036,750.52,760.18,755.62,756.23,755.64,1188.48,-1660.16,-27.83,111.57,-135.84,138.78,-57.90
11072,750.60,760.07,755.60,756.22,755.62,937.01,-1391.60,-491.21,42.95,-142.63,125.73,-57.66
11110,750.65,759.85,755.52,756.20,755.56,676.27,-1002.93,-277.83,-42.53,-105.51,60.41,-57.77
11145,750.72,760.18,755.45,756.25,755.65,233.40,-984.86,-81.54,-61.24,-22.79,16.16,-63.28
11181,757.41,761.81,755.65,756.83,757.92,-532.71,100.10,-110.35,-14.54,-82.78,-24.61,-102.68
11216,783.34,765.38,755.78,758.27,765.69,546.87,-1313.96,302.73,144.24,-17.40,-5.66,-238.32
11251,789.41,769.25,756.20,759.58,768.61,122.07,-936.52,374.02,27.77,1.90,-20.16,-299.07
11289,810.41,775.99,756.76,761.42,776.14,-49.32,-890.62,541.99,34.47,6.48,-4.48,-438.36
11325,823.11,781.08,757.10,762.17,780.87,-106.93,-918.95,632.81,2.18,9.11,-4.79,-525.20
11360,822.50,785.36,757.54,762.50,781.97,-60.55,-915.53,565.43,-23.37,6.63,-9.48,-551.50
11396,818.97,789.26,757.99,763.30,782.38,-63.96,-864.26,506.35,-15.50,9.19,-7.65,-571.16
11431,816.00,792.09,758.28,764.27,782.66,-116.21,-846.68,508.30,-11.56,1.94,-8.55,-590.70
11466,812.37,793.39,758.66,765.61,782.51,-42.97,-893.55,481.93,-7.66,-2.60,-4.23,-599.01
11504,812.31,794.86,759.18,767.05,783.35,-18.55,-920.90,502.44,2.36,-3.87,1.50,-618.79
11540,808.16,793.23,758.71,765.82,781.48,-14.65,-845.21,572.27,-22.05,-6.06,-2.16,-585.24
11575,806.67,792.24,758.53,765.65,780.77,-21.48,-882.81,493.65,-2.87,1.19,4.07,-574.02
11611,808.84,790.87,758.24,764.69,780.66,-27.34,-929.20,498.54,-15.15,-2.67,1.35,-563.46
11646,805.94,789.17,757.97,764.49,779.39,-49.80,-902.83,433.59,-17.37,-7.50,3.18,-543.89
11681,809.08,788.66,757.93,764.44,780.03,-68.85,-846.68,553.71,-9.97,-3.12,2.47,-550.63
11719,811.15,787.57,757.54,763.14,779.85,-4.39,-873.54,485.35,-13.27,-5.75,2.55,-539.70
11755,812.03,786.41,757.17,762.18,779.45,-27.83,-926.76,467.29,-16.11,-3.48,5.66,-528.54
11791,814.35,784.49,757.00,761.16,779.25,-56.64,-921.87,496.58,-15.44,0.92,4.81,-510.17
11826,815.13,780.43,756.56,759.17,777.82,15.63,-986.33,449.71,-18.17,6.56,5.41,-461.86
11862,818.29,778.11,756.40,758.55,777.84,-64.45,-871.09,438.96,-17.62,7.54,1.09,-449.18
11899,818.79,775.97,756.31,757.98,777.26,-44.43,-983.40,389.65,-21.73,0.77,7.27,-427.54
11935,817.96,772.45,756.11,757.57,776.02,-55.18,-917.48,443.36,-20.53,-2.70,9.50,-395.37
11970,814.52,769.83,755.93,757.23,774.38,-49.80,-924.32,485.84,-15.79,-1.16,5.18,-361.91
12006,804.07,767.08,755.79,757.00,770.98,-37.11,-916.02,397.46,-3.45,4.00,3.98,-304.21
12041,792.59,765.14,755.77,756.84,767.59,-63.48,-915.04,410.64,-9.90,-14.98,5.29,-247.26
12077,782.78,764.46,755.75,756.65,764.91,-41.50,-933.59,413.57,-1.26,2.73,-9.14,-206.00
12115,774.87,763.71,755.69,756.43,762.68,22.95,-929.20,458.98,-12.81,11.61,2.15,-171.05
12150,770.64,763.12,755.63,756.21,761.40,-109.86,-963.87,348.14,-16.27,18.39,16.06,-150.24
12185,768.44,762.66,755.65,756.17,760.73,-187.99,-949.22,336.43,-7.27,7.40,-6.36,-137.59
12220,766.54,762.43,755.57,756.14,760.17,-41.50,-949.22,375.98,-8.70,-1.12,-6.75,-130.96
12255,764.89,762.05,755.56,756.06,759.64,-55.18,-948.73,392.09,-12.94,8.56,5.35,-121.35
12291,762.93,761.78,755.56,756.00,759.07,-93.75,-947.27,348.63,-10.95,3.82,4.02,-111.48
12329,760.67,761.51,755.50,755.94,758.41,-65.92,-970.21,372.56,-22.89,4.02,8.04,-102.15
12364,757.38,761.15,755.52,755.77,757.45,-25.88,-958.98,412.11,-39.08,10.79,22.27,-84.97
12399,755.76,760.76,755.52,755.71,756.94,-100.10,-928.22,390.62,-44.82,5.49,26.41,-75.36
12434,754.77,760.58,755.51,755.60,756.62,-79.59,-1015.62,261.23,-39.02,-0.40,14.24,-69.28
12470,754.56,760.57,755.46,755.66,756.56,-51.76,-881.35,271.48,8.69,-7.98,-15.79,-70.52
12507,755.50,760.65,755.49,755.76,756.85,-303.71,-1071.29,-12.70,64.50,-15.54,-9.96,-75.05
12542,758.77,761.42,755.46,755.75,757.85,-357.42,-1027.83,761.72,145.26,-36.89,-26.77,-93.10
12578,761.86,761.42,755.56,755.84,758.67,82.03,-894.53,683.59,-5.31,-0.98,-26.54,-102.63
12613,760.53,761.61,755.61,755.86,758.40,-6.35,-1087.89,218.26,-11.60,-10.61,-0.98,-98.53
12649,760.61,761.91,755.59,755.95,758.51,-80.08,-954.59,358.89,6.59,-5.75,-4.61,-103.11
12684,760.42,761.71,755.64,755.89,758.42,-85.94,-952.15,369.14,-11.15,6.02,-1.57,-98.72
12723,757.40,761.05,755.44,755.79,757.42,-95.21,-912.60,382.32,-55.27,10.58,0.20,-86.68
12758,754.98,760.38,755.46,755.59,756.60,-235.35,-834.47,654.79,-77.13,39.31,39.72,-69.52
12794,753.62,760.21,755.51,755.69,756.26,-679.69,-2000.00,260.74,-18.50,-4.69,72.25,-63.45
12830,753.73,760.24,755.49,755.67,756.28,-117.19,-912.11,102.05,-10.00,8.18,50.31,-64.43
12865,753.58,760.27,755.50,755.62,756.24,-312.50,-1293.46,221.68,-19.58,28.34,49.41,-63.08
12900,753.62,760.24,755.46,755.64,756.24,-220.21,-1035.64,241.70,-37.27,23.76,42.13,-64.55
12938,753.65,760.20,755.45,755.56,756.21,-232.91,-991.21,297.36,-38.62,7.85,34.11,-63.10
12974,753.61,760.24,755.40,755.57,756.20,-226.07,-908.69,281.74,-30.88,3.34,28.75,-64.85
13009,753.63,760.19,755.39,755.63,756.21,-262.21,-875.49,209.96,-17.63,4.47,36.94,-65.69
13045,753.61,760.22,755.41,755.53,756.19,-299.32,-777.83,161.62,-17.18,2.96,33.12,-63.70
13081,753.56,760.22,755.44,755.53,756.19,-306.15,-755.37,159.67,-11.15,-11.47,40.58,-62.95
13118,753.61,760.28,755.29,755.60,756.19,-289.55,-771.97,85.94,-11.20,-31.01,40.00,-68.35
13154,753.57,760.20,755.42,755.56,756.19,-324.71,-700.20,27.83,-19.88,-38.64,34.98,-63.81
13189,753.47,760.31,755.47,755.63,756.22,-288.09,-716.31,11.23,-22.68,-52.49,31.94,-64.14
13225,753.49,760.33,755.41,755.51,756.18,-286.62,-777.34,40.53,-38.60,-48.42,23.83,-64.14
13260,753.50,760.30,755.42,755.56,756.19,-255.37,-856.93,89.36,-27.58,-40.56,18.48,-64.46
13296,753.38,760.31,755.40,755.57,756.17,-224.61,-855.47,124.51,-30.18,-27.27,8.32,-64.77
13334,753.31,760.25,755.39,755.54,756.12,-290.04,-961.91,175.78,-22.31,-18.82,2.36,-63.58
13369,753.31,760.29,755.30,755.53,756.10,-297.36,-902.83,165.04,-14.02,-15.73,-3.39,-66.06
13405,753.29,760.38,755.45,755.65,756.19,-341.31,-962.40,172.36,-3.56,-16.50,-8.89,-64.80
13441,753.24,760.26,755.53,755.52,756.14,-313.96,-949.22,140.62,-0.89,-15.36,-9.78,-59.77
13476,753.16,760.22,755.47,755.62,756.12,-346.19,-966.80,148.44,-4.64,-3.50,-17.31,-61.93
13512,753.10,760.23,755.39,755.58,756.07,-367.68,-973.14,132.81,3.44,1.45,-22.47,-63.25
13550,752.98,760.12,755.43,755.60,756.03,-385.25,-986.33,97.17,-3.30,-6.88,-38.18,-61.46
13585,753.05,760.06,755.45,755.65,756.05,-373.54,-1019.53,109.37,-12.47,-3.07,-15.24,-61.27
13621,752.99,760.08,755.45,755.60,756.03,-366.70,-928.71,113.28,6.91,-2.28,-12.72,-60.74
13656,752.97,759.95,755.48,755.58,755.99,-419.43,-970.21,98.14,4.82,10.58,-12.24,-58.47
13693,752.93,760.03,755.42,755.63,756.00,-432.13,-985.84,68.85,4.02,1.57,-6.56,-61.26
13730,752.96,760.02,755.46,755.56,756.00,-452.15,-947.75,43.95,1.38,-4.05,2.18,-59.33
13766,752.95,760.12,755.47,755.58,756.03,-427.25,-962.89,52.73,-0.03,-3.56,4.52,-59.97
13801,752.88,760.09,755.38,755.60,755.99,-392.58,-903.32,68.85,-0.36,6.27,3.84,-62.05
13837,752.88,759.99,755.45,755.61,755.98,-402.83,-955.57,102.54,2.67,7.69,12.70,-59.62
13872,752.86,760.07,755.44,755.60,755.99,-359.86,-939.45,116.70,0.07,2.39,14.15,-60.43
13907,752.92,760.08,755.37,755.50,755.97,-299.80,-961.91,142.09,-1.05,-0.31,8.76,-60.91
13946,752.86,760.05,755.38,755.59,755.97,-278.81,-929.69,144.04,-0.01,2.87,6.85,-61.64
13981,752.85,760.03,755.39,755.52,755.94,-294.43,-941.41,150.88,4.30,7.28,7.27,-60.02
14016,752.83,760.06,755.39,755.52,755.95,-286.62,-903.32,144.04,4.83,-0.45,1.82,-60.12
14052,752.85,759.97,755.44,755.57,755.96,-330.08,-926.76,153.32,2.47,-5.79,-2.19,-59.09
14087,752.88,760.07,755.40,755.57,755.98,-281.25,-898.93,165.04,6.89,-4.76,0.77,-60.90
14122,752.89,759.98,755.43,755.61,755.98,-292.97,-896.48,176.27,6.97,-6.69,-9.53,-60.12
14160,752.91,760.00,755.45,755.58,755.98,-328.12,-987.30,190.43,10.83,-0.02,-7.53,-59.60
14196,752.82,760.06,755.42,755.63,755.98,-356.45,-979.98,163.09,11.27,-8.75,-9.05,-60.98
14231,752.80,760.01,755.40,755.61,755.95,-378.91,-1017.09,147.46,6.68,-5.28,-8.18,-60.86
14267,752.75,759.95,755.48,755.59,755.94,-380.37,-986.82,139.65,7.76,0.73,-5.59,-57.81
14303,752.77,759.93,755.43,755.56,755.92,-401.37,-933.59,122.56,7.29,7.08,-9.55,-58.57
14338,752.83,759.97,755.48,755.56,755.96,-445.31,-897.46,137.70,4.20,6.43,-5.94,-57.91
14376,752.80,759.96,755.46,755.63,755.96,-422.85,-911.62,116.70,3.49,0.78,1.40,-59.27
14412,752.82,759.98,755.40,755.56,755.94,-385.74,-902.83,142.58,0.73,-3.39,5.59,-59.95
14447,752.81,759.91,755.44,755.57,755.93,-379.39,-961.43,148.44,2.63,-3.62,6.07,-58.34
14483,752.80,759.90,755.45,755.55,755.93,-351.07,-937.50,144.53,-0.27,-3.91,4.63,-57.97
14519,752.79,759.90,755.49,755.60,755.94,-345.21,-986.33,166.99,3.42,-4.80,7.44,-57.52
14557,752.78,759.91,755.45,755.65,755.95,-310.55,-993.65,166.99,0.03,-5.44,3.37,-59.28
14592,752.80,759.84,755.44,755.59,755.92,-314.94,-987.79,175.78,3.34,-5.02,3.56,-58.07
14629,752.82,759.91,755.45,755.60,755.95,-293.46,-993.65,179.69,-1.29,-3.09,-1.14,-58.53
14664,752.82,759.88,755.52,755.56,755.95,-287.60,-950.68,160.64,0.50,-0.78,-3.37,-55.99
14700,752.70,759.90,755.47,755.55,755.90,-336.91,-933.59,173.83,-2.08,0.02,-7.07,-56.94
14735,752.87,759.94,755.33,755.55,755.92,-333.01,-907.71,174.32,-2.44,1.69,-8.41,-61.30
14774,752.80,759.94,755.38,755.56,755.92,-331.05,-896.00,167.48,-2.74,-3.78,-4.27,-59.95
14809,752.87,759.94,755.38,755.65,755.96,-323.24,-885.25,185.55,-1.85,-2.54,-3.33,-61.59
14845,753.18,759.88,755.45,755.61,756.03,-893.55,-1471.19,912.60,-23.59,4.72,-14.71,-59.90
14880,754.02,760.07,755.32,755.68,756.27,-214.36,-856.45,310.55,37.74,-11.15,-19.96,-68.42
14916,754.46,760.24,755.40,755.70,756.45,-312.50,-943.85,219.73,27.58,-12.63,-3.80,-69.75
14951,754.79,760.27,755.42,755.74,756.56,-315.43,-904.30,292.48,9.74,-19.15,-2.67,-71.00
14990,755.01,760.38,755.42,755.68,756.63,-297.85,-918.46,297.36,13.73,-7.73,-3.53,-71.94
15025,755.56,760.46,755.37,755.70,756.77,-319.82,-903.32,294.43,15.82,-1.64,-11.48,-75.89
15061,756.28,760.42,755.44,755.74,756.97,-305.18,-936.04,254.88,9.86,-3.47,-9.57,-76.90
15096,756.87,760.49,755.40,755.78,757.14,-289.55,-975.59,266.60,7.95,-3.82,-10.07,-81.04
15132,757.11,760.57,755.42,755.76,757.22,-295.90,-925.29,298.34,5.87,-6.95,-6.05,-81.77
15168,757.40,760.57,755.35,755.88,757.30,-289.06,-920.41,291.02,4.27,-3.23,-8.15,-86.35
15210,757.91,760.65,755.40,755.87,757.46,-272.95,-933.59,289.06,1.14,-0.85,-14.17,-87.37
15246,758.45,760.83,755.41,755.84,757.63,-276.86,-938.48,278.32,2.47,0.18,-9.11,-89.93
15281,758.96,760.76,755.42,755.90,757.76,-301.27,-928.22,260.74,4.94,-5.82,-14.59,-91.67
15317,759.77,760.93,755.42,755.94,758.01,-269.53,-956.54,287.11,6.63,-8.63,-15.85,-96.35
15352,760.83,760.99,755.47,755.90,758.30,-253.42,-923.34,314.45,5.93,-7.82,-16.16,-98.88
15392,761.61,761.00,755.45,756.02,758.52,-219.73,-929.20,327.15,1.63,-8.60,-16.48,-103.89
15428,762.28,761.16,755.47,755.99,758.72,-216.80,-977.54,303.22,2.67,-5.77,-16.29,-106.42
15464,762.58,761.09,755.57,756.00,758.81,-211.43,-961.43,306.15,1.26,-3.95,-12.67,-104.47
15500,763.06,761.08,755.48,755.97,758.90,-197.27,-950.20,324.71,2.47,-3.25,-7.96,-107.73
15537,763.29,761.08,755.54,755.98,758.97,-212.40,-953.61,292.97,-0.83,0.51,-7.05,-107.46
15573,763.41,761.05,755.44,755.99,758.97,-187.50,-966.80,306.15,-0.58,-2.53,-5.64,-110.26
15612,763.45,761.07,755.41,755.94,758.97,-203.12,-940.43,320.31,1.02,-1.54,-6.51,-110.59
15648,763.46,761.00,755.47,755.88,758.95,-208.01,-941.89,291.50,-0.51,-1.01,-5.85,-107.47
15684,763.35,760.87,755.45,755.97,758.91,-225.59,-917.97,297.36,1.40,-1.58,-13.92,-107.89
15719,763.06,760.66,755.49,755.89,758.78,-211.91,-900.88,300.29,2.82,-9.33,-30.63,-103.02
15755,763.72,760.72,755.50,755.87,758.95,-84.96,-1033.69,368.65,-2.64,-6.56,-25.63,-105.23
15791,763.56,760.69,755.48,755.84,758.89,-134.28,-1013.67,298.83,-1.15,3.05,-5.44,-104.68
15830,762.88,760.52,755.45,755.79,758.66,-151.37,-925.29,329.10,3.36,-1.56,-6.69,-100.86
15866,762.60,760.38,755.52,755.82,758.58,-177.73,-922.36,299.80,-0.48,-0.47,-17.56,-97.40
15902,762.11,760.24,755.49,755.72,758.39,-170.41,-929.20,292.48,7.77,-10.52,-32.50,-93.87
15938,761.67,760.22,755.54,755.77,758.30,-79.59,-1035.64,313.48,21.83,-15.43,-42.16,-91.70
15974,761.40,760.52,755.52,755.89,758.33,-57.13,-1000.98,373.05,26.93,-13.63,-29.00,-95.55
16013,761.04,760.40,755.56,755.90,758.22,-82.03,-931.15,453.61,1.34,1.31,0.80,-92.57
16049,760.60,760.44,755.60,755.89,758.13,-79.59,-977.54,305.66,-1.77,1.76,-0.34,-90.15
16086,760.78,760.58,755.61,755.97,758.23,-60.55,-958.50,354.49,1.46,-0.28,-3.11,-92.95
16122,760.83,760.66,755.55,755.99,758.26,-74.71,-954.10,347.17,-2.66,1.36,-0.03,-95.50
16158,760.81,760.82,755.69,756.09,758.35,-61.52,-963.87,346.68,-0.99,-0.14,0.21,-94.61
16194,760.53,761.06,755.72,756.35,758.42,-69.82,-956.05,345.21,1.51,0.47,-0.76,-98.65
16233,760.15,761.31,755.72,756.46,758.41,-63.48,-949.71,358.89,0.44,-0.20,-3.37,-101.03
16269,759.81,761.48,755.72,756.58,758.40,-75.20,-950.68,349.12,-2.02,0.60,-2.92,-102.96
16305,759.29,761.84,755.80,756.68,758.40,-71.29,-960.94,348.63,-0.76,0.47,-1.16,-103.67
16342,758.97,761.99,755.80,756.74,758.37,-72.27,-951.66,347.17,-1.43,0.63,-0.81,-104.52
16378,758.89,761.96,755.82,756.58,758.31,-69.82,-956.54,345.70,-1.50,-1.11,-1.20,-101.02
16414,758.95,761.85,755.78,756.57,758.29,-67.38,-953.12,342.77,-0.21,1.86,-0.66,-101.22
16453,758.90,761.70,755.77,756.54,758.23,-68.85,-951.66,335.94,-2.09,-1.63,-0.69,-99.66
16489,758.85,761.58,755.79,756.44,758.17,-57.13,-944.82,355.47,-1.21,1.74,-0.76,-96.69
16526,758.84,761.50,755.73,756.43,758.13,-74.22,-957.03,347.17,-0.76,1.03,-0.50,-97.38
16562,758.69,761.51,755.83,756.51,758.14,-57.62,-952.64,357.91,-0.64,0.92,-2.97,-95.57
16598,758.44,761.56,755.78,756.61,758.10,-63.96,-960.94,334.47,-3.37,0.76,-1.48,-97.80
16634,758.18,761.56,755.70,756.53,757.99,-65.92,-952.15,339.36,-1.34,1.87,-0.89,-97.82
16673,757.98,761.43,755.73,756.46,757.90,-62.01,-960.94,356.93,-0.77,-1.19,0.96,-94.23
16709,757.88,761.35,755.63,756.44,757.83,-65.92,-955.57,352.05,-3.74,-1.52,-0.20,-95.62
16745,757.80,761.21,755.72,756.36,757.77,-62.01,-949.22,348.63,-1.94,-0.32,-0.94,-90.75
16781,757.79,761.03,755.70,756.33,757.71,-54.20,-955.08,343.75,-1.95,0.11,2.23,-89.07
16817,757.99,760.83,755.69,756.21,757.68,-67.38,-952.15,353.03,-0.73,0.44,2.95,-86.66
16856,758.06,760.74,755.71,756.18,757.67,-64.45,-948.73,343.26,-0.18,0.30,-0.33,-85.53
16892,758.34,760.69,755.70,756.16,757.72,-66.41,-949.22,349.12,0.44,-2.11,-1.24,-85.82
16928,758.56,760.64,755.65,756.22,757.77,-68.36,-958.98,332.52,2.21,-1.53,-2.05,-88.48
16964,758.71,760.71,755.75,756.22,757.85,-63.48,-957.03,362.79,3.56,-2.11,-1.38,-86.98
17000,758.59,760.63,755.67,756.21,757.77,-75.68,-957.52,346.68,-0.05,-0.99,-1.77,-87.87
17036,758.46,760.60,755.69,756.18,757.73,-64.94,-958.50,350.59,-1.56,1.97,0.21,-86.24
17075,758.27,760.50,755.68,756.11,757.64,-68.85,-943.85,343.26,-0.59,0.04,-1.60,-83.84
17111,758.08,760.34,755.67,756.06,757.54,-62.50,-949.22,339.84,-4.23,0.82,0.58,-81.55
17147,758.08,760.30,755.62,756.01,757.50,-67.87,-955.08,350.10,-1.85,0.17,-1.98,-81.60
17183,758.13,760.19,755.57,755.98,757.46,-70.80,-952.64,355.96,-3.27,1.33,2.00,-81.70
17219,758.10,760.10,755.59,755.97,757.44,-77.64,-962.89,327.15,-1.94,1.14,0.69,-80.42
17255,758.23,760.16,755.67,756.00,757.52,-64.45,-959.96,334.47,-0.14,1.46,-0.81,-79.81
17293,758.24,760.20,755.65,756.02,757.53,-56.64,-937.99,357.91,0.20,-0.91,-0.18,-80.88
17329,758.35,760.24,755.58,756.03,757.55,-79.59,-961.91,336.43,0.59,-0.81,-0.85,-83.30
17365,758.60,760.23,755.67,756.09,757.65,-71.78,-954.59,342.29,1.85,-3.27,-1.76,-82.80
17401,758.69,760.22,755.67,756.01,757.65,-68.36,-958.50,353.03,1.65,-0.55,1.50,-81.76
17437,758.69,760.25,755.66,756.11,757.68,-66.89,-952.64,344.73,0.58,1.08,-1.11,-83.75
17474,758.85,760.32,755.66,756.10,757.73,-68.36,-961.91,344.24,-1.92,1.39,-0.96,-84.83
17512,758.86,760.40,755.64,756.10,757.75,-85.45,-949.71,349.61,-2.71,1.42,0.81,-85.78
17548,758.93,760.41,755.66,756.13,757.78,-75.20,-963.87,355.47,2.46,-0.02,-0.95,-86.10
17584,758.86,760.38,755.70,756.08,757.76,-63.48,-953.61,354.49,0.07,1.09,0.55,-83.93
17621,758.97,760.48,755.68,756.11,757.81,-79.59,-959.96,345.21,-0.47,-1.63,0.33,-86.02
17657,759.10,760.44,755.69,756.10,757.83,-62.99,-959.47,346.68,-1.86,0.05,2.65,-85.63
17693,759.00,760.45,755.62,756.15,757.81,-77.64,-961.91,341.80,-0.33,-1.10,0.40,-88.05
17731,759.22,760.49,755.65,756.13,757.87,-70.80,-964.36,340.82,-2.02,-2.84,1.15,-88.22
17767,759.28,760.49,755.67,756.12,757.89,-65.92,-955.08,351.07,2.01,-0.36,-0.89,-87.70
17804,759.34,760.50,755.71,756.15,757.92,-63.48,-957.52,346.68,0.43,3.52,-1.31,-87.41
17840,759.37,760.54,755.66,756.15,757.93,-77.64,-961.91,342.77,-0.11,3.03,-0.58,-89.10
17876,759.41,760.46,755.67,756.18,757.93,-76.17,-957.52,354.00,2.01,-0.73,-0.66,-88.72
17912,759.57,760.57,755.69,756.20,758.01,-62.01,-948.24,352.54,1.11,-2.28,0.04,-89.98
17951,759.55,760.52,755.69,756.14,757.98,-63.96,-948.24,341.80,1.50,0.92,0.81,-88.73
17987,759.57,760.61,755.75,756.12,758.01,-63.48,-962.89,337.89,0.53,-1.24,-0.60,-87.54
18023,759.41,760.53,755.66,756.10,757.93,-66.41,-952.15,352.54,-4.24,0.46,-2.23,-88.44
18059,759.29,760.52,755.71,756.07,757.90,-67.38,-949.22,353.52,-2.26,1.34,-2.52,-86.08
18095,759.10,760.49,755.67,756.05,757.83,-63.48,-954.10,358.89,-2.56,0.97,-2.07,-85.89
18134,759.13,760.36,755.69,756.07,757.81,-68.36,-964.36,337.89,-1.09,1.74,-0.18,-84.86
18170,759.21,760.52,755.65,756.09,757.87,-66.89,-953.12,334.47,0.18,2.44,0.31,-87.68
18206,759.25,760.39,755.69,756.11,757.86,-72.75,-962.40,359.37,0.54,-2.86,-0.98,-86.06
18242,759.44,760.59,755.75,756.10,757.97,-69.82,-961.91,339.84,1.77,-0.18,-1.31,-86.71
18278,759.61,760.58,755.68,756.20,758.02,-68.85,-953.61,348.63,1.73,-3.70,-1.31,-90.48
18315,759.82,760.64,755.67,756.22,758.09,-69.34,-962.89,349.12,0.27,-0.02,0.40,-92.09
18353,759.71,760.65,755.72,756.19,758.07,-59.57,-953.61,358.89,-1.29,-2.06,0.27,-90.24
18389,759.63,760.61,755.69,756.19,758.03,-49.32,-945.80,365.72,-2.23,1.79,-1.48,-90.23
18426,759.58,760.67,755.67,756.15,758.02,-63.96,-957.03,355.96,-2.56,1.76,-1.02,-90.53
18462,759.41,760.60,755.66,756.10,757.94,-69.82,-966.80,343.26,-2.44,2.76,0.08,-88.88
18498,759.33,760.57,755.71,756.12,757.93,-73.24,-949.71,347.17,-1.92,2.26,0.89,-87.50
18535,759.26,760.48,755.76,756.12,757.91,-61.04,-964.84,334.96,0.21,1.16,-2.75,-85.33
18573,759.09,760.46,755.73,756.17,757.86,-76.17,-962.89,330.57,0.03,0.53,-2.34,-85.96
18609,759.03,760.47,755.75,756.15,757.85,-61.04,-954.10,352.54,0.16,2.81,-1.79,-85.15
18646,758.98,760.43,755.73,756.08,757.81,-64.45,-957.52,348.63,-0.69,0.95,-0.64,-84.24
18682,758.97,760.41,755.69,756.12,757.80,-76.66,-962.40,347.66,-1.08,-2.46,-0.22,-85.26
18718,758.90,760.40,755.69,756.06,757.76,-62.99,-955.57,329.59,-1.30,0.76,-1.50,-84.20
18754,758.79,760.40,755.56,756.08,757.71,-71.78,-960.45,344.24,0.05,0.28,-2.38,-87.29
18792,758.65,760.31,755.67,756.05,757.67,-76.66,-953.12,345.70,-2.66,-0.80,1.28,-83.03
18828,758.57,760.32,755.65,756.10,757.66,-61.52,-956.05,327.64,-1.24,-0.62,0.50,-84.16
18864,758.45,760.21,755.67,756.05,757.60,-77.64,-963.38,325.68,-2.51,0.57,-2.40,-81.70
18900,758.46,760.27,755.65,756.02,757.60,-58.59,-957.03,347.17,-0.57,0.25,0.01,-82.04
18936,758.29,760.19,755.68,756.06,757.55,-77.15,-960.45,344.73,-0.98,-0.53,-0.41,-80.81
18972,758.21,760.16,755.63,756.05,757.51,-73.24,-963.87,338.38,-1.76,0.25,-1.32,-81.24
19011,758.15,760.20,755.65,756.04,757.51,-59.08,-951.17,329.59,0.05,1.44,-2.95,-80.87
19047,758.08,760.19,755.65,756.11,757.51,-74.22,-964.84,330.57,-0.68,2.35,-0.53,-81.55
19083,758.11,760.17,755.67,756.11,757.51,-73.73,-962.89,337.89,1.57,0.68,-0.37,-80.87
19119,758.24,760.25,755.68,756.11,757.57,-65.92,-962.89,346.19,3.46,-0.10,-1.01,-81.76
19155,758.26,760.39,755.66,756.18,757.62,-78.61,-958.98,340.82,0.75,-1.98,-2.63,-84.65
19191,758.42,760.35,755.68,756.18,757.66,-69.82,-953.61,343.26,0.98,-1.76,0.63,-84.37
19229,758.59,760.53,755.70,756.16,757.75,-77.15,-946.29,348.63,2.50,-1.12,-3.12,-85.56
19265,758.70,760.60,755.66,756.26,757.80,-56.64,-936.52,323.73,1.43,0.78,-1.20,-88.73
19302,758.99,760.72,755.77,756.30,757.95,-65.43,-969.24,341.80,1.91,-0.22,1.13,-88.72
19338,759.15,760.77,755.71,756.38,758.00,-59.08,-953.61,353.03,0.46,-0.26,-1.17,-92.30
19374,759.21,760.74,755.74,756.29,757.99,-75.20,-948.24,348.14,1.92,-0.42,-0.23,-90.05
19411,759.30,760.78,755.74,756.31,758.03,-76.66,-967.77,340.82,-1.01,-0.18,0.56,-91.12
19449,759.39,760.76,755.66,756.28,758.02,-65.92,-957.03,341.80,-0.53,1.46,0.00,-92.73
19486,759.46,760.83,755.81,756.31,758.10,-82.03,-953.61,355.47,-1.40,0.44,-0.79,-90.45
19522,759.48,760.82,755.73,756.29,758.08,-65.92,-966.80,348.63,-0.19,-0.56,-0.79,-92.03
19558,759.48,760.88,755.73,756.32,758.10,-72.75,-948.73,348.14,1.09,0.66,-1.58,-92.94
19594,759.50,760.91,755.72,756.39,758.13,-67.38,-964.36,348.14,-0.24,1.37,-3.14,-94.48
19633,759.48,760.84,755.78,756.37,758.12,-61.52,-961.91,349.12,0.41,-1.55,-0.75,-92.05
19669,759.53,760.84,755.63,756.35,758.09,-68.85,-960.45,349.61,-0.58,0.55,-0.05,-95.85
19705,759.60,760.89,755.79,756.37,758.16,-67.87,-948.24,347.66,0.45,1.17,0.45,-92.61
19742,759.57,760.93,755.78,756.40,758.17,-79.59,-956.05,338.38,-0.92,2.47,-0.13,-93.50
19778,759.59,760.99,755.83,756.35,758.19,-71.78,-964.84,345.21,-0.27,0.59,-1.86,-92.17
19814,759.62,760.95,755.73,756.37,758.17,-67.38,-962.89,345.70,-2.08,3.06,1.15,-94.64
19852,759.61,760.91,755.74,756.37,758.16,-68.36,-958.01,348.63,2.57,0.06,-0.09,-93.96
19889,759.69,761.04,755.79,756.42,758.24,-77.64,-951.17,351.07,-1.14,-0.27,0.42,-94.80
19925,759.66,760.94,755.74,756.45,758.19,-63.96,-954.10,356.93,0.18,-0.73,1.59,-95.63
19961,759.72,760.94,755.86,756.44,758.24,-67.87,-968.75,353.03,-0.15,-0.67,-1.85,-92.72
19997,759.70,760.96,755.78,756.39,758.21,-67.38,-956.54,351.07,1.52,-0.13,0.87,-94.09
20033,759.78,760.96,755.82,756.44,758.25,-66.41,-950.20,357.91,1.89,-0.72,1.83,-94.05
20072,759.93,761.10,755.78,756.41,758.31,-62.50,-955.08,343.75,-0.35,-0.16,-0.39,-96.24
20108,759.94,761.07,755.72,756.50,758.31,-69.82,-960.94,337.89,0.50,0.15,0.17,-98.88
20145,759.92,761.24,755.71,756.60,758.37,-77.15,-957.03,361.33,0.41,0.35,-1.08,-102.01
20181,759.81,761.49,755.85,756.68,758.46,-75.68,-957.52,351.07,1.52,-0.83,-1.78,-101.24
20217,759.80,761.58,755.86,756.68,758.48,-62.01,-953.12,356.93,-0.47,-2.16,-0.53,-101.68
20254,759.86,761.62,755.95,756.73,758.54,-63.96,-962.40,351.07,1.66,-0.72,0.06,-100.60
20292,759.89,761.82,755.91,756.82,758.61,-76.66,-951.17,350.59,0.88,0.18,-1.17,-104.82
20328,759.78,761.91,755.92,756.92,758.63,-51.27,-960.45,355.47,0.59,-0.73,-1.74,-106.24
20365,759.76,761.93,755.92,756.92,758.63,-83.01,-961.43,358.89,0.18,0.70,-2.40,-106.31
20402,759.81,762.03,755.88,756.88,758.65,-61.52,-955.08,364.26,0.63,0.27,-0.86,-107.71
20438,759.86,761.88,755.96,756.85,758.64,-65.43,-957.52,363.28,1.20,2.44,-0.30,-104.36
20474,760.12,761.77,755.93,756.84,758.66,-66.89,-965.33,358.89,1.34,-1.54,0.56,-104.89
20513,760.35,761.71,755.88,756.79,758.68,-64.94,-946.29,365.72,-1.60,-0.47,-0.19,-105.62
20549,760.44,761.68,755.87,756.70,758.67,-69.34,-945.31,357.42,-1.69,-3.04,-0.73,-104.87
20585,760.53,761.65,755.94,756.72,758.71,-57.62,-946.78,362.30,-0.63,-1.97,-2.35,-103.50
20621,760.57,761.59,755.89,756.68,758.68,-70.31,-958.01,362.79,1.11,1.29,0.50,-103.62
20657,760.65,761.63,755.86,756.71,758.72,-60.55,-949.71,357.91,-1.02,1.36,-1.50,-105.59
20695,760.72,761.63,755.95,756.69,758.75,-78.61,-942.87,349.61,-0.92,1.11,-0.73,-103.09
20731,760.68,761.68,755.94,756.71,758.75,-64.94,-964.84,353.03,-0.76,0.92,-1.05,-104.07
20767,760.62,761.79,755.92,756.82,758.79,-68.36,-948.24,369.63,1.75,-1.43,-0.56,-106.87
20803,760.21,762.09,755.97,757.01,758.82,-58.11,-949.22,351.07,0.89,-1.18,-0.68,-109.27
20839,759.77,762.36,756.00,757.11,758.81,-68.85,-947.75,354.98,-0.95,-0.71,-2.56,-110.72
20875,759.53,762.46,755.95,757.13,758.77,-70.80,-946.78,353.03,-0.34,-1.78,-1.15,-112.29
20913,759.37,762.68,756.01,757.30,758.84,-61.52,-957.03,355.96,-0.71,-0.33,-0.89,-114.58
20949,759.43,762.60,756.06,757.19,758.82,-77.15,-943.85,374.02,-0.29,1.46,-1.56,-110.97
20985,759.49,762.51,756.03,757.13,758.79,-70.31,-957.52,358.40,-0.68,1.97,-0.04,-110.64
21021,759.82,762.33,756.01,756.97,758.78,-67.87,-948.24,346.68,0.42,-0.27,0.40,-108.27
21057,760.14,762.03,755.90,756.85,758.73,-55.18,-967.29,353.03,-1.30,3.45,1.13,-108.00
21093,760.45,761.91,755.93,756.73,758.76,-64.94,-954.10,347.66,-0.24,1.42,-1.21,-105.73
21132,760.65,761.72,755.90,756.70,758.74,-65.43,-962.89,362.79,-1.50,0.47,0.65,-105.07
21168,760.81,761.70,755.89,756.67,758.77,-68.85,-954.59,362.30,-0.71,0.73,-2.11,-105.22
21204,760.85,761.62,755.90,756.66,758.76,-70.31,-955.08,350.10,0.22,-0.47,-2.37,-104.39
21240,760.93,761.64,755.87,756.64,758.77,-64.94,-954.10,366.70,0.73,2.33,1.41,-105.31
21276,760.92,761.58,755.89,756.73,758.78,-63.48,-951.17,351.07,-0.39,-1.47,-3.34,-105.40
21312,760.94,761.49,755.92,756.67,758.75,-58.59,-963.87,350.10,-1.03,-2.31,-1.20,-103.10
21351,760.87,761.36,755.89,756.62,758.69,-63.48,-960.45,358.40,0.72,0.09,1.98,-101.97
21387,760.82,761.43,755.87,756.64,758.69,-67.38,-963.87,355.96,-1.49,0.19,-0.47,-103.01
21423,760.80,761.43,755.85,756.62,758.68,-48.34,-956.05,361.82,-1.08,1.15,-2.08,-103.31
21460,760.88,761.49,755.89,756.69,758.74,-63.96,-961.43,363.77,0.34,-1.16,-0.08,-104.03
21496,760.80,761.41,755.88,756.63,758.68,-82.03,-941.41,359.37,-0.10,0.83,1.05,-102.53
21534,760.85,761.51,755.84,756.58,758.69,-66.89,-942.87,357.42,0.69,-0.89,-0.83,-103.90
21570,760.85,761.45,755.82,756.60,758.68,-73.24,-969.24,359.86,0.43,1.24,-0.44,-103.90
21606,760.87,761.43,755.85,756.61,758.69,-66.41,-953.12,346.68,-2.40,1.07,-0.95,-103.22
21642,760.84,761.46,755.85,756.61,758.69,-72.27,-970.21,366.70,-0.27,0.56,1.95,-103.39
21678,760.87,761.49,755.90,756.64,758.73,-72.27,-959.47,363.28,2.31,2.40,-1.60,-102.91
21714,760.83,761.50,755.87,756.62,758.70,-72.27,-949.22,357.42,-0.75,0.85,-1.38,-103.60
21752,760.84,761.51,755.91,756.60,758.71,-62.01,-952.15,365.23,-0.51,1.31,-2.68,-102.36
21788,760.87,761.48,755.95,756.57,758.72,-54.69,-962.89,352.05,-0.68,-0.97,-0.18,-100.67
21824,760.87,761.51,755.87,756.60,758.71,-66.89,-949.71,363.77,0.15,0.92,0.35,-103.29
21860,760.83,761.47,755.88,756.63,758.70,-74.71,-959.47,374.51,-1.13,-1.75,-1.31,-103.06
21896,760.86,761.43,755.85,756.66,758.70,-74.22,-945.31,352.05,-0.47,-2.14,-3.37,-104.17
21932,760.83,761.48,755.83,756.62,758.69,-66.41,-958.98,350.59,-2.09,1.81,1.66,-104.14
21971,760.91,761.50,755.75,756.60,758.69,-63.48,-960.45,355.96,0.92,2.15,1.65,-106.28
22007,760.88,761.50,755.88,756.63,758.72,-66.89,-958.98,359.37,0.24,-0.72,-2.80,-103.49
22043,760.83,761.44,755.92,756.56,758.69,-71.78,-958.50,373.05,0.06,3.26,0.34,-100.68
22079,760.91,761.53,755.80,756.58,758.70,-65.92,-954.59,354.49,-0.64,1.44,-0.73,-105.04
22115,760.89,761.46,755.93,756.59,758.72,-64.45,-962.40,349.12,-0.08,1.93,-2.77,-101.53
22151,760.87,761.49,755.86,756.64,758.71,-66.41,-953.12,361.33,0.11,-0.08,-0.03,-104.05
22189,760.83,761.55,755.93,756.66,758.74,-69.82,-955.08,346.19,-1.31,0.31,0.41,-102.98
22225,760.91,761.57,755.88,756.62,758.75,-67.87,-950.20,358.40,-0.75,-1.09,0.86,-103.89
22261,760.89,761.57,755.92,756.66,758.76,-71.29,-960.45,363.28,0.71,-1.24,-0.23,-103.68
22297,760.89,761.52,755.88,756.59,758.72,-66.89,-958.01,353.52,-1.47,-1.49,0.69,-103.17
22333,760.91,761.58,755.91,756.65,758.76,-75.68,-947.75,349.12,-0.31,-0.07,-1.77,-103.77
22369,760.89,761.53,755.83,756.68,758.73,-59.08,-951.66,360.84,-0.02,3.62,-2.18,-105.65
22407,760.92,761.48,755.84,756.67,758.73,-62.99,-958.50,351.07,1.07,2.01,0.19,-105.01
22443,760.88,761.55,755.90,756.64,758.74,-70.80,-943.85,359.86,-0.84,1.36,-2.53,-103.49
22479,760.86,761.49,755.88,756.63,758.72,-63.48,-953.12,359.37,-0.87,0.57,-2.64,-103.61
22515,760.90,761.57,755.91,756.64,758.75,-67.87,-958.50,360.84,-0.11,2.42,-1.02,-103.59
22551,760.85,761.58,755.89,756.73,758.76,-64.94,-960.45,351.07,-1.05,0.99,2.21,-105.32
22589,760.92,761.55,755.91,756.68,758.76,-72.27,-958.98,365.72,-0.49,0.77,-0.16,-104.08
22625,760.93,761.60,755.89,756.71,758.78,-63.96,-961.43,349.12,-0.77,0.02,-1.25,-105.49
22661,760.85,761.56,755.97,756.63,758.75,-67.87,-952.64,350.10,1.57,3.29,-1.75,-101.70
22697,760.92,761.62,755.90,756.69,758.78,-80.08,-962.40,360.35,1.98,1.42,1.85,-104.93
22733,760.93,761.50,755.93,756.59,758.74,-68.85,-949.71,359.37,-0.53,1.57,-1.21,-101.91
22769,760.92,761.56,755.89,756.64,758.75,-57.13,-945.80,347.17,-1.18,1.88,0.94,-103.95
22808,760.92,761.59,755.89,756.64,758.76,-62.50,-947.75,354.49,-2.32,3.24,0.21,-104.24
22844,760.93,761.58,755.94,756.72,758.79,-71.29,-952.64,368.16,-2.24,0.76,-1.37,-104.13
22880,760.91,761.57,755.89,756.58,758.73,-60.55,-967.29,370.12,-0.11,0.04,-0.53,-103.29
22916,760.89,761.58,755.88,756.63,758.74,-62.01,-962.89,354.00,-1.35,3.58,0.21,-104.28
22952,760.90,761.61,755.88,756.64,758.76,-71.29,-961.43,360.35,0.23,0.53,-3.33,-104.67
22988,760.91,761.58,755.86,756.66,758.75,-74.71,-947.27,351.07,2.31,1.37,0.39,-105.12
23027,760.98,761.63,755.84,756.67,758.78,-71.29,-952.15,349.61,0.03,-0.98,-0.18,-106.43
23063,760.95,761.59,755.93,756.68,758.79,-70.31,-942.38,365.72,0.27,-1.53,-0.48,-103.99
23099,760.88,761.56,755.87,756.65,758.74,-72.27,-956.54,359.37,-1.00,1.21,-2.41,-104.56
23135,760.89,761.58,755.98,756.75,758.80,-61.04,-956.05,354.49,-0.25,1.73,-1.47,-103.57
23171,760.98,761.51,755.92,756.65,758.76,-63.96,-956.05,352.54,-2.73,1.43,-1.42,-103.25
23208,760.98,761.57,755.83,756.71,758.77,-64.45,-960.45,358.89,-0.62,1.22,-1.72,-106.76
23247,761.02,761.60,755.87,756.71,758.80,-63.48,-974.12,360.35,-0.21,0.43,-1.44,-106.24
23283,760.90,761.65,755.86,756.75,758.79,-72.27,-959.96,351.56,-1.31,0.82,-2.56,-107.09
23319,760.97,761.54,755.94,756.72,758.79,-56.64,-953.12,349.12,-0.18,-0.02,-0.28,-104.00
23356,760.95,761.56,756.01,756.75,758.82,-69.34,-951.17,353.52,-2.94,-1.34,0.25,-102.71
23392,760.92,761.58,755.96,756.69,758.79,-70.80,-946.29,359.86,-1.73,1.05,-0.03,-103.30
23430,760.96,761.64,755.93,756.73,758.82,-70.31,-950.68,364.26,1.91,0.22,1.83,-105.08
23466,760.95,761.61,755.90,756.73,758.80,-65.43,-954.59,362.79,-0.02,-0.31,0.21,-105.60
23502,761.01,761.61,755.95,756.66,758.81,-66.41,-952.64,356.93,0.27,1.09,-0.44,-103.47
23538,760.96,761.67,755.89,756.73,758.81,-65.43,-955.08,360.84,-0.21,0.32,-0.91,-106.37
23575,760.99,761.59,755.91,756.68,758.79,-67.87,-960.94,350.10,1.46,-2.12,-0.93,-104.53
23611,760.97,761.59,755.96,756.72,758.81,-69.34,-956.05,359.37,0.48,0.90,-0.07,-104.03
23649,760.94,761.61,755.92,756.75,758.80,-63.96,-959.47,355.96,0.17,-0.39,0.15,-105.55
23686,760.94,761.61,755.93,756.72,758.80,-62.01,-944.82,355.96,0.69,0.69,2.73,-104.83
23722,760.92,761.57,755.95,756.70,758.78,-64.94,-952.64,359.86,-1.73,0.62,-0.81,-103.39
23758,761.04,761.70,755.94,756.72,758.85,-60.55,-953.12,355.96,-1.59,2.56,-0.50,-105.58
23794,761.06,761.67,756.01,756.79,758.88,-63.48,-960.45,351.56,-0.45,0.12,-1.49,-104.78
23830,761.01,761.68,755.90,756.73,758.83,-71.78,-954.10,359.86,-0.22,-0.78,0.57,-106.45
23869,761.02,761.66,755.92,756.76,758.84,-63.96,-958.01,345.70,-0.60,0.04,-0.66,-106.26
23905,761.02,761.70,755.93,756.75,758.85,-50.29,-959.47,362.79,0.29,-1.31,-1.35,-106.21
23941,760.94,761.66,755.92,756.77,758.82,-66.41,-958.98,361.82,1.50,1.69,-0.87,-105.99
23977,760.92,761.69,755.93,756.79,758.83,-63.96,-954.10,366.21,-0.86,2.89,-1.72,-106.25
24013,760.96,761.68,755.90,756.66,758.80,-65.92,-959.96,345.70,-3.08,0.99,0.47,-105.13
24049,761.00,761.65,755.95,756.75,758.84,-65.92,-950.20,348.14,1.37,-0.37,1.27,-105.16
24087,761.03,761.66,756.00,756.75,758.86,-62.50,-957.52,354.00,-1.17,-0.05,-2.58,-104.12
24123,761.05,761.65,755.92,756.64,758.82,-67.38,-954.59,351.56,-2.81,-0.61,1.85,-104.50
24159,761.00,761.66,755.97,756.81,758.86,-66.89,-954.10,343.75,0.06,-2.15,-1.82,-105.68
24195,760.99,761.66,755.99,756.76,758.85,-62.99,-949.71,359.86,-0.71,0.27,1.21,-104.39
24232,760.99,761.75,755.95,756.81,758.88,-67.38,-958.50,370.61,-1.08,-1.87,-0.03,-106.78
24268,760.97,761.70,756.04,756.76,758.87,-67.87,-956.54,359.86,-0.56,-0.92,0.63,-103.32
24306,760.99,761.67,755.94,756.82,758.86,-66.89,-962.40,352.05,-0.78,0.05,0.08,-106.68
24342,761.04,761.65,755.97,756.68,758.84,-59.57,-962.89,349.61,-1.33,-0.21,-0.65,-103.65
24378,761.05,761.62,755.90,756.82,758.85,-62.01,-963.38,359.37,0.54,1.27,-0.78,-107.32
24415,760.97,761.70,756.01,756.74,758.85,-67.87,-957.52,343.75,0.48,1.40,-1.77,-103.90
24451,761.07,761.76,755.94,756.85,758.90,-71.29,-956.05,354.00,0.50,-1.58,-0.25,-108.05
24490,761.01,761.71,756.04,756.84,758.90,-61.04,-967.29,350.59,-1.61,1.36,0.21,-104.73
24526,761.01,761.62,755.98,756.76,758.84,-59.57,-952.64,369.14,-0.78,2.48,0.92,-104.39
24562,761.05,761.77,756.00,756.81,758.91,-59.57,-962.40,350.59,0.79,1.06,-3.55,-105.82
24599,761.05,761.65,756.01,756.79,758.87,-60.06,-962.89,350.10,-1.21,-0.99,-0.51,-104.35
24635,761.07,761.76,755.93,756.75,758.88,-62.01,-953.61,350.10,-0.49,0.21,0.29,-106.79
24671,761.00,761.69,755.99,756.80,758.87,-73.24,-955.08,352.54,-0.29,-1.26,-0.16,-105.33
24709,761.00,761.77,755.92,756.73,758.86,-57.62,-944.34,345.70,-0.61,0.04,-2.19,-106.64
24746,761.06,761.81,756.02,756.78,758.92,-78.61,-949.71,356.93,1.79,-1.10,1.45,-105.48
24782,761.02,761.80,755.99,756.80,758.90,-47.85,-956.05,358.89,0.92,0.73,-0.30,-106.09
24818,761.03,761.69,756.02,756.80,758.88,-77.64,-956.54,353.52,-0.45,-1.43,-0.77,-104.54
24854,760.95,761.74,756.05,756.71,758.86,-74.71,-952.64,349.61,2.27,1.10,2.04,-102.79
24890,761.03,761.65,756.00,756.75,758.86,-63.96,-955.08,350.59,0.04,-2.53,-1.27,-103.92
24929,761.03,761.70,755.95,756.75,758.86,-71.29,-955.57,354.00,0.50,1.19,1.24,-105.61
24965,761.04,761.70,755.96,756.75,758.86,-70.31,-955.57,363.28,0.31,-0.83,-1.37,-105.50
25002,761.00,761.74,756.01,756.76,758.88,-57.13,-946.29,353.52,0.28,-1.11,-1.43,-104.55
25038,761.00,761.65,755.99,756.80,758.86,-66.89,-954.10,339.36,-1.56,1.57,2.33,-104.83
25074,761.07,761.73,755.98,756.76,758.89,-57.13,-961.43,351.07,-0.47,0.16,-1.23,-105.38
25110,761.03,761.66,756.00,756.72,758.85,-71.78,-962.40,357.91,-1.09,0.08,-3.47,-103.71
25149,761.07,761.72,756.04,756.78,758.90,-66.41,-946.78,356.45,-0.21,1.85,-0.12,-104.22
25186,761.04,761.70,755.97,756.70,758.85,-80.08,-947.27,356.45,-0.92,1.18,-1.76,-104.62
25222,761.12,761.73,756.02,756.79,758.92,-65.92,-948.24,357.42,-0.06,0.89,0.93,-104.97
25258,761.04,761.74,755.98,756.77,758.88,-69.34,-946.78,356.93,-1.82,0.39,-1.09,-105.49
25294,761.08,761.75,756.03,756.81,758.92,-72.27,-960.45,363.77,-1.29,-0.44,1.72,-105.20
25333,761.11,761.77,755.93,756.75,758.89,-63.96,-948.73,352.54,-0.72,-1.44,-1.72,-106.91
25369,761.16,761.76,756.01,756.73,758.91,-66.41,-970.70,358.40,-1.09,0.09,-0.63,-104.66
25405,761.06,761.74,756.00,756.71,758.87,-56.15,-942.38,340.33,-1.09,1.27,-0.87,-104.35
25442,761.05,761.76,755.98,756.80,758.90,-73.73,-956.54,363.77,0.70,-1.67,0.63,-106.18
25478,761.05,761.78,755.99,756.73,758.89,-57.13,-945.80,357.91,-0.82,-0.44,0.30,-105.07
25514,761.05,761.73,756.02,756.84,758.91,-60.55,-973.14,351.07,0.08,0.40,-3.58,-105.55
25552,761.10,761.80,755.97,756.79,758.92,-66.89,-952.15,337.89,-1.12,-2.88,2.24,-106.86
25588,761.08,761.84,756.04,756.79,758.94,-65.92,-952.15,360.84,-0.25,0.66,0.29,-105.43
25624,761.06,761.77,756.04,756.79,758.92,-64.45,-957.52,354.49,-1.32,-2.29,0.14,-104.68
25660,761.12,761.78,755.97,756.77,758.91,-74.71,-957.03,360.35,0.64,-0.58,0.82,-106.42
25696,761.09,761.80,755.98,756.75,758.91,-73.73,-954.59,353.52,-0.02,-1.37,1.16,-106.05
25732,761.04,761.86,756.00,756.82,758.93,-77.15,-955.57,354.49,-0.91,0.93,-1.11,-106.71
25771,761.17,761.82,756.04,756.73,758.94,-63.48,-965.82,350.59,-1.02,1.64,-1.96,-104.59
25806,761.18,761.89,755.94,756.77,758.95,-64.94,-948.24,351.56,-0.60,2.27,-0.59,-108.34
25842,761.12,761.83,756.03,756.83,758.95,-62.99,-966.31,349.61,-0.29,-1.37,-1.73,-106.14
25878,761.17,761.88,755.96,756.78,758.95,-59.08,-965.33,360.84,0.90,2.96,-0.69,-107.82
25914,761.19,761.91,756.04,756.86,759.00,-64.45,-947.75,352.54,-1.03,0.95,-3.66,-107.26
25950,761.17,761.84,756.12,756.83,758.99,-67.87,-955.57,344.24,-1.00,-1.63,0.10,-104.24
25988,761.16,761.81,756.05,756.90,758.98,-54.69,-964.36,361.33,0.62,-1.09,-0.34,-106.79
26024,761.19,761.84,756.14,756.85,759.00,-72.27,-955.57,358.89,0.24,0.46,-0.18,-103.98
26060,761.16,761.90,756.06,756.90,759.00,-65.92,-960.94,351.07,-1.74,0.27,2.24,-107.05
26096,761.19,761.85,756.04,756.88,758.99,-60.55,-943.85,352.05,0.05,-0.08,-2.75,-107.04
26132,761.09,761.78,756.03,756.85,758.94,-59.57,-957.52,355.96,-1.48,1.92,0.33,-105.91
26169,761.12,761.83,756.02,756.90,758.96,-83.50,-956.54,362.30,-1.19,-1.66,-0.89,-107.46
26208,761.13,761.85,756.06,756.91,758.99,-62.01,-958.01,362.79,-0.90,-0.41,-0.73,-106.75
26244,761.16,761.86,756.06,756.87,758.99,-62.01,-959.47,353.03,-1.43,1.99,-0.20,-106.30
26280,761.14,761.88,756.06,756.93,759.00,-67.38,-961.91,358.40,-0.30,-0.94,-1.89,-107.24
26316,761.14,761.81,755.96,756.88,758.95,-64.94,-953.61,355.47,0.80,-2.19,-0.85,-108.67
26352,761.14,761.88,755.96,756.88,758.97,-67.87,-954.59,357.42,0.15,0.64,1.33,-109.05
26390,761.12,761.83,756.05,756.86,758.97,-72.75,-962.40,351.07,-0.52,0.68,-0.24,-106.18
26427,761.14,761.91,756.06,756.84,758.99,-60.06,-949.22,363.77,0.29,-0.88,0.02,-106.32
26463,761.10,761.85,755.99,756.88,758.96,-70.80,-957.52,349.12,-1.43,-1.85,-0.56,-107.98
26499,761.15,761.86,755.95,756.84,758.95,-66.89,-957.52,361.33,-2.33,0.27,0.69,-108.73
26535,761.12,761.90,756.00,756.87,758.97,-67.87,-968.26,356.93,-1.96,-1.95,0.53,-107.99
26571,761.06,761.88,756.01,756.90,758.96,-53.22,-953.12,356.93,1.76,0.65,-1.01,-107.82
26609,761.10,761.84,756.04,756.89,758.97,-66.41,-959.47,355.47,0.28,1.23,-1.02,-106.98
26645,761.16,761.87,756.06,756.87,758.99,-70.80,-961.43,351.56,-0.53,0.14,-0.18,-106.40
26682,761.07,761.92,756.11,756.84,758.98,-63.48,-956.54,342.77,-0.39,1.02,2.21,-105.00
26718,761.18,761.98,756.04,756.85,759.01,-67.87,-953.61,367.68,-0.53,-0.55,0.25,-107.70
26754,761.20,761.92,756.03,756.87,759.01,-66.41,-959.96,354.49,0.99,2.21,0.69,-107.81
26790,761.24,761.94,756.01,756.91,759.02,-55.66,-962.89,353.03,-2.47,-0.18,0.50,-109.25
26828,761.15,761.87,756.10,756.90,759.01,-82.03,-946.78,365.23,-0.54,-1.98,-1.71,-106.04
26864,761.15,761.90,756.02,756.93,759.00,-53.71,-945.31,364.26,0.02,-0.12,0.18,-108.71
26901,761.22,761.95,756.08,756.96,759.05,-66.89,-963.38,357.91,-0.85,3.42,-0.64,-108.03
26937,761.12,761.95,756.05,756.89,759.01,-69.82,-967.29,360.35,-1.43,0.02,-0.60,-107.51
26973,761.12,761.92,756.06,756.90,759.00,-64.45,-957.03,365.72,-0.98,3.03,-1.21,-107.08
27009,761.21,761.95,756.10,756.93,759.05,-62.01,-953.12,350.59,-1.64,0.32,1.56,-107.25
27048,761.19,761.94,756.10,756.87,759.03,-66.89,-958.50,356.93,-0.56,0.48,1.84,-106.14
27084,761.16,761.88,756.11,756.92,759.02,-61.52,-961.91,355.47,0.85,0.52,-1.19,-105.92
27121,761.16,762.01,756.03,756.89,759.02,-74.22,-954.59,348.14,-0.70,-1.45,-0.80,-108.52
27157,761.18,761.94,756.02,756.88,759.00,-51.76,-960.45,363.77,-1.23,0.12,0.41,-108.42
27193,761.16,761.94,756.07,756.88,759.01,-78.61,-953.61,351.56,-0.97,-0.47,-1.16,-106.87
27231,761.11,761.93,756.09,756.90,759.01,-67.38,-954.59,355.47,0.79,3.04,-3.37,-106.44
27267,761.12,762.05,756.11,757.01,759.07,-64.45,-953.61,350.59,-0.85,0.34,-0.79,-108.68
27303,761.05,762.08,756.21,756.94,759.07,-53.71,-952.15,345.21,-0.37,1.32,0.11,-105.05
27339,761.05,761.99,756.14,756.92,759.03,-71.78,-955.57,344.73,2.11,0.72,-1.22,-105.85
27375,761.10,762.08,756.11,756.97,759.07,-71.78,-941.89,350.59,-0.04,2.30,2.29,-108.14
27411,761.15,762.08,756.11,756.88,759.06,-69.34,-958.98,358.89,-0.29,1.11,-3.49,-107.12
27449,761.11,762.02,756.08,756.95,759.04,-66.89,-958.01,353.52,0.44,-0.25,-0.73,-108.27
27485,761.14,762.00,756.09,756.88,759.03,-68.36,-971.19,352.54,-0.76,1.19,-0.01,-106.84
27521,761.14,761.98,756.10,756.91,759.03,-54.69,-958.01,354.49,-0.42,0.97,-1.91,-106.78
27557,761.18,761.98,756.07,756.97,759.05,-74.22,-957.52,361.33,1.30,-2.34,0.49,-108.52
27593,761.16,762.04,756.04,756.93,759.04,-60.55,-958.50,348.14,-1.69,3.97,-2.25,-109.17
27629,761.19,761.96,756.10,757.01,759.07,-78.12,-954.59,358.40,0.34,-0.78,-0.76,-108.27
27679,761.22,761.96,756.07,756.94,759.05,-66.89,-946.78,352.05,0.31,2.47,-1.07,-108.20
27715,761.21,761.97,756.08,756.93,759.05,-61.04,-962.89,354.00,0.92,-0.18,-0.29,-107.78
27751,761.21,761.97,756.08,756.99,759.06,-59.08,-951.66,350.59,-1.18,-0.02,-1.62,-108.78
27787,761.17,762.02,756.09,756.94,759.05,-63.96,-957.52,351.56,-0.40,-0.31,-1.50,-107.97
27823,761.20,762.01,756.03,756.95,759.05,-72.27,-958.98,358.40,0.20,-0.55,-0.05,-109.58
27859,761.19,761.98,756.09,756.99,759.06,-53.22,-952.15,354.49,0.49,-0.74,-0.30,-108.56
27900,761.21,761.98,756.07,757.00,759.07,-74.71,-953.12,344.73,0.58,-0.53,-0.14,-109.21
27936,761.20,761.99,756.09,756.99,759.07,-73.73,-961.43,351.07,-0.52,-0.31,-0.59,-108.52
27973,761.21,761.98,756.06,756.95,759.05,-56.15,-950.68,354.49,-0.51,0.20,-1.56,-108.77
28009,761.21,761.99,756.12,756.98,759.08,-73.73,-953.61,340.33,-0.79,-0.13,-0.89,-107.72
28045,761.24,762.04,756.07,756.92,759.07,-58.11,-945.31,360.84,-1.63,1.53,-1.61,-108.60
28085,761.21,762.03,756.07,756.99,759.07,-59.57,-955.08,359.86,-0.27,-1.24,-0.68,-109.53
28122,761.23,762.02,756.14,757.05,759.11,-69.34,-959.96,350.10,0.53,1.47,-0.34,-108.49
28159,761.16,761.99,756.14,756.95,759.06,-62.01,-958.98,353.52,-0.47,-0.83,-0.67,-106.63
28195,761.15,762.05,756.09,756.94,759.06,-69.82,-961.91,355.96,0.40,1.47,-1.72,-108.26
28232,761.17,762.07,756.11,757.03,759.09,-65.43,-957.03,353.03,-0.89,0.47,-2.18,-109.26
28269,761.18,762.06,756.11,756.99,759.09,-65.43,-949.71,351.56,-0.50,0.16,-2.59,-108.60
28308,761.18,761.99,756.05,757.05,759.07,-61.04,-954.10,356.93,0.86,1.46,0.05,-110.49
28345,761.18,762.02,756.09,756.97,759.06,-56.64,-950.68,365.72,-2.11,0.92,-0.54,-108.62
28381,761.19,762.08,756.11,757.06,759.11,-72.27,-958.98,343.26,-0.44,2.00,-2.26,-110.00
28418,761.14,762.05,756.11,756.98,759.07,-76.17,-946.78,353.52,-0.59,-0.05,-0.12,-108.37
28454,761.18,762.07,756.17,756.94,759.09,-63.96,-955.08,353.52,0.95,1.85,-2.45,-106.34
28491,761.18,762.04,756.11,757.01,759.09,-62.01,-958.01,361.33,0.48,1.17,-0.60,-108.69
28531,761.20,762.10,756.12,756.97,759.10,-62.50,-956.54,355.96,-0.98,0.42,0.84,-108.57
28567,761.18,762.09,756.18,756.96,759.10,-65.92,-954.10,353.52,0.47,0.93,-0.58,-106.62
28604,761.18,762.05,756.10,756.99,759.08,-66.89,-947.27,353.03,-0.69,0.08,0.20,-108.75
28641,761.15,762.07,756.13,756.99,759.08,-66.41,-963.87,352.05,-1.50,2.11,-0.72,-108.10
28677,761.19,762.06,756.13,757.00,759.09,-52.25,-962.40,344.73,-1.19,-0.17,0.20,-108.12
28714,761.18,762.09,756.07,756.97,759.08,-63.48,-950.20,359.37,0.61,0.55,-0.50,-109.58
28754,761.17,762.13,756.10,757.00,759.10,-53.71,-953.12,349.61,0.82,-0.47,-2.55,-109.43
28790,761.26,762.09,756.13,756.96,759.11,-78.61,-956.05,360.84,1.33,-0.73,-0.44,-108.19
28827,761.17,762.13,756.19,757.06,759.14,-66.41,-962.89,353.52,-0.11,1.39,0.00,-108.13
28864,761.21,762.07,756.17,757.05,759.13,-69.82,-951.66,364.26,-0.15,2.35,-1.91,-108.15
28900,761.23,762.04,756.16,757.02,759.11,-60.55,-952.64,359.86,0.18,1.38,-1.06,-107.72
28940,761.20,762.09,756.13,757.05,759.12,-76.17,-955.08,347.66,0.93,0.76,-1.06,-109.29
28976,761.16,762.11,756.13,757.08,759.12,-54.20,-957.03,344.73,-2.32,-2.20,0.36,-109.83
29013,761.22,762.10,756.15,757.06,759.13,-67.38,-953.12,354.98,-1.34,-2.08,-1.51,-109.02
29050,761.21,762.10,756.19,757.03,759.13,-69.82,-948.73,360.35,-1.36,-0.01,2.42,-107.56
29087,761.24,762.14,756.12,757.08,759.14,-60.06,-955.08,352.54,-0.13,-0.76,0.50,-110.66
29124,761.25,762.14,756.16,757.02,759.14,-69.34,-953.61,356.45,0.85,1.25,-0.82,-108.68
29163,761.19,762.07,756.16,757.05,759.12,-54.69,-961.91,351.56,-0.24,-0.42,1.05,-108.34
29200,761.27,762.07,756.20,757.03,759.14,-62.50,-969.73,364.26,-0.50,1.86,-0.53,-107.34
29237,761.25,762.03,756.16,757.06,759.13,-66.89,-952.15,352.54,-0.33,1.76,-1.11,-108.51
29274,761.24,762.11,756.20,757.00,759.14,-81.54,-949.71,349.12,-0.66,0.83,0.04,-107.19
29310,761.20,762.11,756.09,757.12,759.13,-67.38,-954.59,353.52,0.66,-1.98,-2.28,-111.51
29347,761.18,762.04,756.12,757.09,759.11,-60.06,-956.54,350.59,-0.19,1.67,-1.95,-109.74
29386,761.20,762.11,756.20,757.09,759.15,-59.08,-963.87,357.91,0.56,0.89,-0.59,-108.29
29423,761.25,762.06,756.15,757.07,759.13,-62.01,-962.40,358.89,0.01,0.14,0.60,-109.16
29459,761.24,762.16,756.14,757.01,759.14,-64.45,-954.59,359.86,1.24,1.27,0.66,-109.20
29496,761.22,762.08,756.24,757.11,759.16,-67.38,-957.52,345.70,-1.33,-1.22,0.45,-107.40
29533,761.21,762.07,756.10,757.07,759.11,-70.31,-958.98,355.96,-0.28,0.12,-1.55,-110.21
29569,761.28,762.18,756.18,757.09,759.18,-59.08,-954.10,352.05,-0.31,-2.47,-1.77,-109.67
29609,761.21,762.11,756.12,757.12,759.14,-65.92,-958.50,355.96,-0.25,0.11,-1.58,-110.90
29645,761.25,762.13,756.13,757.03,759.14,-61.52,-946.29,345.70,-0.69,1.69,0.00,-109.41
29682,761.33,762.22,756.17,757.08,759.20,-66.41,-954.59,349.61,-1.79,-0.04,-0.81,-110.26
29718,761.20,762.12,756.19,757.08,759.15,-57.13,-955.57,356.45,0.70,-0.88,0.34,-108.60
29754,761.31,762.12,756.16,757.13,759.18,-65.43,-961.43,351.56,0.57,2.11,0.32,-110.41
29791,761.28,762.15,756.18,757.10,759.18,-75.68,-964.36,365.72,-2.28,0.13,0.73,-109.53
29830,761.28,762.12,756.13,757.10,759.16,-70.80,-957.03,350.59,-2.05,0.28,-2.18,-110.60
29867,761.24,762.22,756.13,757.12,759.18,-72.27,-956.54,354.49,-1.85,-0.36,-0.82,-111.57
29903,761.25,762.12,756.20,757.08,759.16,-69.82,-950.68,355.47,-0.91,1.76,-0.05,-108.39
29940,761.28,762.17,756.22,757.08,759.19,-73.73,-947.27,368.65,0.05,1.81,-1.18,-108.51
29977,761.32,762.09,756.23,757.12,759.19,-62.01,-942.38,356.93,-1.02,-2.34,0.90,-108.23
30017,761.20,762.13,756.10,757.07,759.13,-75.68,-951.66,359.86,-0.66,2.31,1.10,-110.64
30054,761.30,762.12,756.19,757.06,759.17,-58.59,-948.24,358.89,-0.07,3.31,-1.11,-108.56
30090,761.26,762.13,756.19,757.08,759.16,-62.01,-964.36,354.49,-2.26,-1.80,-0.10,-108.78
30127,761.32,762.14,756.15,757.12,759.18,-58.59,-947.27,364.75,1.18,-1.25,-0.65,-110.68
30164,761.29,762.20,756.11,757.08,759.17,-71.29,-964.36,350.59,-1.16,1.51,-1.67,-111.48
30200,761.25,762.13,756.18,757.05,759.15,-71.78,-971.68,357.91,-0.51,-1.77,0.02,-108.48
30240,761.23,762.17,756.11,757.05,759.14,-77.64,-969.24,357.91,-0.99,0.02,-4.44,-110.62
30277,761.33,762.17,756.18,757.04,759.18,-71.78,-961.91,351.07,1.40,1.12,0.31,-109.10
30313,761.30,762.15,756.16,757.07,759.17,-63.48,-954.59,353.03,0.77,-0.78,-0.89,-109.66
30350,761.26,762.07,756.16,757.10,759.15,-68.85,-947.27,357.42,-0.27,-0.39,-0.11,-109.29
30387,761.34,762.13,756.23,757.09,759.20,-69.34,-949.22,356.45,-0.08,-0.62,1.42,-108.13
30423,761.30,762.15,756.14,757.14,759.18,-67.87,-955.08,337.89,0.24,2.72,0.76,-111.05
30463,761.27,762.13,756.18,757.05,759.16,-71.29,-959.96,354.98,0.73,3.73,-0.24,-108.63
30499,761.34,762.19,756.24,757.11,759.22,-71.78,-955.08,341.31,1.34,1.05,0.21,-108.88
30536,761.31,762.14,756.23,757.06,759.18,-75.68,-958.50,337.89,0.34,2.92,1.26,-107.70
30572,761.29,762.12,756.18,757.06,759.16,-60.55,-950.68,342.77,-2.33,-0.61,-2.05,-108.70
30609,761.25,762.19,756.06,757.08,759.15,-74.71,-959.47,355.96,-0.66,0.68,-0.98,-112.44
30645,761.24,762.14,756.25,757.10,759.18,-59.08,-950.20,358.40,-0.35,-0.95,-0.58,-107.58
30685,761.33,762.14,756.16,757.08,759.18,-69.82,-955.08,354.00,-0.86,-0.22,-2.22,-109.79
30721,761.24,762.25,756.17,757.15,759.20,-61.04,-960.94,350.59,0.18,-0.86,-1.78,-111.32
30758,761.27,762.20,756.17,757.12,759.19,-61.04,-964.36,345.21,0.56,-1.91,-1.85,-110.39
30794,761.32,762.14,756.13,757.10,759.17,-66.41,-941.89,348.14,1.38,1.57,0.04,-110.81
30831,761.29,762.15,756.17,757.11,759.18,-61.52,-960.94,350.59,-1.44,0.43,0.44,-110.05
30870,761.33,762.17,756.23,757.18,759.23,-63.48,-959.47,359.86,-3.32,0.17,-2.05,-109.76
30907,761.29,762.14,756.18,757.12,759.18,-75.20,-942.38,356.45,-0.06,-0.63,0.18,-109.75
30943,761.30,762.14,756.18,757.16,759.20,-60.06,-951.66,344.73,0.48,-2.96,-1.68,-110.35
30980,761.31,762.14,756.17,757.12,759.19,-66.41,-963.38,353.03,-0.09,-1.86,-0.85,-110.06
31017,761.28,762.16,756.14,757.10,759.17,-73.73,-956.54,350.10,1.02,2.38,0.67,-110.72
31054,761.33,762.12,756.17,757.12,759.19,-66.41,-953.61,350.10,0.83,0.18,-0.02,-109.98
31093,761.36,762.29,756.24,757.16,759.26,-75.20,-954.10,362.79,0.45,-0.60,-1.73,-110.16
31129,761.36,762.27,756.18,757.12,759.23,-80.08,-953.61,342.77,-0.81,-1.32,0.45,-111.08
31165,761.31,762.14,756.20,757.18,759.21,-72.27,-962.89,345.70,0.11,0.97,-1.60,-110.14
31202,761.31,762.15,756.26,757.10,759.21,-66.89,-970.70,364.75,-0.15,1.89,0.70,-107.79
31238,761.29,762.25,756.16,757.17,759.22,-66.89,-947.75,355.96,0.93,2.77,0.61,-112.00
31274,761.27,762.22,756.20,757.15,759.21,-52.73,-953.61,357.91,-0.38,2.02,-1.00,-110.34
31314,761.25,762.20,756.24,757.10,759.20,-57.13,-967.77,354.49,0.44,-1.26,-0.75,-108.53
31350,761.31,762.26,756.25,757.14,759.24,-65.92,-951.17,355.96,-0.92,1.45,1.38,-109.51
31386,761.28,762.28,756.16,757.15,759.22,-63.48,-961.91,348.14,0.66,0.07,1.10,-111.76
31423,761.34,762.25,756.13,757.17,759.22,-74.71,-959.47,357.91,-0.34,0.61,0.64,-112.96
31459,761.35,762.24,756.25,757.20,759.26,-63.96,-957.52,369.14,-0.63,0.81,-0.74,-110.24
31495,761.28,762.21,756.20,757.23,759.23,-62.01,-956.54,350.59,-1.43,-0.29,-0.21,-111.52
31534,761.26,762.27,756.22,757.20,759.23,-74.22,-949.22,357.42,-0.15,1.59,-1.17,-110.97
31571,761.37,762.18,756.22,757.21,759.25,-72.75,-956.05,358.40,-0.15,1.74,-0.82,-110.59
31608,761.31,762.21,756.13,757.13,759.19,-67.87,-953.12,361.82,-0.64,0.29,-1.61,-111.91
31644,761.28,762.20,756.23,757.20,759.23,-66.41,-953.61,357.42,-0.61,-0.59,-0.38,-110.17
31681,761.35,762.16,756.19,757.14,759.21,-66.89,-952.64,359.86,2.19,-1.38,-0.80,-110.34
31717,761.36,762.28,756.26,757.23,759.28,-58.59,-972.17,354.49,-2.05,-1.31,-1.30,-110.88
31757,761.39,762.28,756.21,757.17,759.26,-65.43,-953.12,357.42,0.09,-0.05,-0.67,-111.37
31793,761.34,762.34,756.16,757.13,759.24,-72.27,-958.98,352.05,1.65,0.64,-0.01,-112.31
31830,761.31,762.29,756.21,757.20,759.25,-73.24,-944.82,349.12,1.11,0.33,-4.65,-111.53
31866,761.36,762.31,756.24,757.15,759.26,-65.43,-955.08,352.54,-0.31,-1.18,-2.88,-110.36
31903,761.37,762.30,756.26,757.17,759.28,-67.38,-961.43,357.91,-1.99,0.34,0.31,-110.23
31942,761.35,762.30,756.27,757.19,759.28,-68.36,-953.12,358.40,-0.20,2.30,-0.17,-110.06
31979,761.22,762.25,756.20,757.20,759.22,-70.31,-953.12,353.03,0.55,1.02,-0.05,-111.13
32016,761.34,762.35,756.21,757.25,759.29,-70.80,-950.20,359.37,-2.76,1.40,1.23,-112.89
32053,761.34,762.32,756.18,757.16,759.25,-74.71,-949.22,357.91,0.03,0.92,-1.86,-112.10
32089,761.31,762.34,756.22,757.24,759.28,-56.15,-952.15,351.07,-0.08,-0.50,-1.32,-112.23
32126,761.35,762.32,756.23,757.21,759.28,-65.92,-953.61,351.56,-0.85,-0.85,-0.56,-111.54
32165,761.36,762.33,756.17,757.21,759.27,-64.94,-954.10,357.91,1.73,-1.24,-1.04,-113.10
32202,761.33,762.26,756.20,757.18,759.24,-69.82,-965.33,352.54,0.73,2.05,-0.12,-111.30
32238,761.33,762.25,756.22,757.23,759.26,-67.87,-950.68,354.49,-0.08,-1.89,1.02,-111.34
32275,761.33,762.30,756.30,757.14,759.27,-64.45,-950.68,347.17,-0.93,-1.67,-2.26,-108.39
32311,761.35,762.27,756.28,757.17,759.27,-67.87,-958.50,357.42,-1.71,-0.72,-1.30,-109.35
32348,761.31,762.32,756.30,757.15,759.27,-65.92,-951.66,356.45,0.01,-1.06,0.24,-108.83
32387,761.34,762.33,756.17,757.24,759.27,-62.50,-955.57,356.45,-1.08,0.34,-0.48,-113.44
32424,761.32,762.29,756.20,757.21,759.25,-78.12,-960.94,355.96,0.26,-0.81,-2.24,-111.80
32460,761.32,762.27,756.16,757.25,759.25,-76.66,-955.57,357.91,1.78,-0.30,-0.93,-113.41
32497,761.32,762.28,756.21,757.26,759.27,-65.43,-958.98,342.29,-3.29,-0.27,-0.67,-112.46
32534,761.36,762.24,756.23,757.22,759.26,-62.01,-965.33,347.66,-1.17,2.05,-0.40,-111.13
32570,761.39,762.33,756.27,757.21,759.30,-74.71,-956.54,358.40,-0.31,-1.07,1.82,-110.77
32610,761.40,762.34,756.26,757.23,759.31,-67.87,-959.47,354.98,1.32,0.33,-0.82,-111.28
32647,761.39,762.21,756.36,757.16,759.28,-67.38,-965.33,344.73,0.24,-0.23,0.77,-106.79
32683,761.34,762.31,756.29,757.17,759.28,-70.80,-952.64,345.21,1.23,-1.44,-1.36,-109.40
32720,761.32,762.28,756.28,757.25,759.28,-62.01,-955.08,354.49,-0.74,-0.07,-2.02,-110.46
32757,761.32,762.24,756.27,757.18,759.25,-62.99,-950.20,357.42,1.16,1.55,-2.81,-109.45
32796,761.35,762.25,756.22,757.27,759.27,-67.38,-953.61,364.26,0.76,-0.36,-2.05,-112.21
32832,761.37,762.28,756.28,757.27,759.30,-67.38,-949.71,348.63,-0.61,0.20,-2.34,-110.89
32869,761.42,762.24,756.27,757.25,759.30,-67.87,-962.40,370.61,-0.02,-2.05,-0.73,-110.66
32905,761.38,762.30,756.28,757.31,759.31,-74.71,-955.57,346.68,-0.40,2.92,1.11,-111.76
32942,761.38,762.26,756.28,757.31,759.31,-75.68,-951.66,355.96,-0.61,1.81,-0.55,-111.37
32979,761.37,762.26,756.21,757.22,759.26,-65.43,-951.66,352.54,-0.53,-0.94,0.14,-111.86
33019,761.36,762.25,756.29,757.28,759.29,-74.71,-959.96,359.86,-0.66,-0.74,0.11,-110.46
33055,761.34,762.36,756.15,757.23,759.27,-64.94,-956.05,367.19,-0.96,1.84,0.24,-114.13
33091,761.38,762.31,756.17,757.24,759.28,-62.50,-965.33,361.33,0.89,3.66,1.75,-113.68
33128,761.36,762.29,756.29,757.30,759.31,-66.89,-967.77,354.00,-0.77,1.88,-2.14,-111.03
33164,761.36,762.37,756.31,757.29,759.33,-59.08,-961.91,352.54,-1.00,0.66,2.89,-111.13
33201,761.40,762.24,756.29,757.25,759.29,-61.52,-963.87,363.28,-0.38,1.31,-0.52,-109.98
33240,761.38,762.35,756.26,757.31,759.32,-66.89,-954.10,359.86,-0.44,2.32,-0.18,-112.65
33277,761.41,762.33,756.26,757.22,759.30,-56.15,-954.59,361.82,0.11,1.44,-1.66,-111.31
33313,761.39,762.30,756.22,757.22,759.28,-76.17,-942.38,349.12,-0.88,1.00,-2.17,-111.90
33350,761.35,762.27,756.28,757.24,759.28,-68.36,-965.33,356.93,0.48,-2.21,-3.29,-110.46
33387,761.41,762.25,756.28,757.26,759.30,-61.52,-960.45,362.30,-0.31,-1.91,0.01,-110.65
33423,761.41,762.38,756.29,757.33,759.35,-70.31,-960.94,352.54,-0.15,-0.72,-1.14,-112.36
33463,761.38,762.38,756.28,757.23,759.32,-66.89,-955.08,347.66,-1.11,2.23,-0.11,-111.17
33500,761.43,762.40,756.26,757.23,759.33,-77.64,-950.68,344.73,0.55,-2.46,0.90,-112.12
33536,761.47,762.29,756.25,757.23,759.31,-63.96,-949.71,343.75,-0.40,2.21,-0.99,-111.50
33573,761.38,762.32,756.32,757.24,759.31,-69.82,-968.26,358.40,-0.34,-0.75,2.81,-109.86
33610,761.33,762.42,756.31,757.24,759.32,-52.73,-957.03,369.63,0.22,2.69,-0.40,-110.68
33649,761.36,762.34,756.28,757.22,759.30,-63.96,-954.10,350.59,0.43,2.58,1.09,-110.65
33686,761.41,762.34,756.23,757.25,759.31,-74.22,-948.24,355.47,-0.89,0.83,-1.59,-112.36
33723,761.35,762.38,756.32,757.17,759.31,-64.94,-957.03,344.73,-2.37,2.33,0.01,-109.28
33759,761.40,762.42,756.28,757.31,759.35,-77.15,-958.01,361.82,0.37,1.66,-2.17,-112.90
33796,761.43,762.41,756.27,757.32,759.36,-51.76,-952.15,361.33,0.72,2.35,0.46,-113.08
33833,761.48,762.34,756.31,757.32,759.36,-57.62,-958.98,333.98,-0.26,-2.85,-1.88,-111.73
33872,761.41,762.33,756.27,757.22,759.31,-68.85,-951.17,354.98,0.27,-0.09,-0.60,-110.90
33909,761.39,762.36,756.24,757.28,759.32,-63.48,-955.57,360.35,-0.27,1.28,-1.56,-112.76
33946,761.37,762.27,756.27,757.30,759.30,-61.52,-952.15,354.49,0.06,0.79,0.56,-111.52
33983,761.34,762.33,756.29,757.36,759.33,-69.82,-944.82,353.03,0.45,-0.48,-0.84,-112.43
34019,761.37,762.39,756.16,757.33,759.31,-62.99,-947.27,356.45,0.24,-0.67,-0.35,-115.75
34056,761.41,762.28,756.25,757.32,759.31,-60.06,-951.66,355.47,-0.60,1.75,-3.63,-112.49
34095,761.33,762.28,756.29,757.26,759.29,-64.45,-947.75,345.70,-0.82,2.15,-2.34,-110.43
34132,761.34,762.40,756.25,757.31,759.33,-71.29,-952.15,349.12,1.77,-0.49,-1.08,-113.07
34169,761.35,762.39,756.24,757.25,759.31,-57.13,-964.36,358.40,0.61,0.98,-0.38,-112.49
34206,761.36,762.37,756.26,757.34,759.33,-68.36,-958.98,362.30,0.79,-2.83,-1.59,-113.22
34242,761.38,762.43,756.28,757.31,759.35,-64.94,-961.91,337.89,-0.62,0.09,0.47,-112.60
34279,761.37,762.45,756.30,757.29,759.35,-63.96,-956.54,351.56,-0.47,0.47,-1.22,-112.05
34318,761.40,762.36,756.32,757.31,759.35,-59.57,-955.08,353.52,-0.98,-1.72,0.60,-111.35
34355,761.41,762.43,756.36,757.32,759.38,-68.36,-966.31,345.70,1.80,0.27,-0.39,-110.99
34392,761.40,762.45,756.29,757.32,759.36,-57.13,-958.01,350.59,-1.85,0.82,-4.10,-112.99
34429,761.36,762.39,756.32,757.44,759.38,-62.01,-958.98,355.96,-0.64,0.56,-0.98,-113.15
34465,761.36,762.41,756.32,757.35,759.36,-71.78,-959.47,349.61,0.37,-0.06,0.27,-112.07
34502,761.43,762.39,756.29,757.32,759.36,-67.38,-966.80,352.05,2.24,1.07,-1.11,-112.46
34541,761.36,762.45,756.25,757.27,759.33,-56.64,-948.24,356.45,-1.43,0.66,0.40,-113.01
34577,761.36,762.42,756.29,757.34,759.35,-77.64,-949.71,352.54,0.95,-1.26,-0.16,-112.74
34613,761.42,762.40,756.26,757.28,759.34,-74.71,-952.15,360.35,-1.57,-1.43,-2.20,-112.65
34650,761.35,762.49,756.28,757.30,759.36,-62.99,-949.22,355.47,-2.10,0.03,0.58,-112.94
34686,761.37,762.41,756.31,757.34,759.36,-62.01,-964.36,355.96,0.87,1.37,-0.03,-112.25
34726,761.31,762.39,756.34,757.36,759.35,-69.82,-963.87,355.96,-1.10,1.44,-1.09,-111.36
34762,761.35,762.44,756.32,757.42,759.38,-62.99,-955.08,353.03,-0.77,-0.01,1.40,-113.49
34798,761.42,762.48,756.30,757.38,759.39,-69.34,-956.05,343.75,-1.00,0.52,-2.50,-113.89
34834,761.44,762.42,756.36,757.34,759.39,-67.38,-959.96,346.19,-0.97,-0.78,-3.36,-111.24
34871,761.43,762.48,756.29,757.34,759.38,-64.94,-970.70,357.42,-0.11,2.73,0.94,-113.55
34907,761.39,762.50,756.31,757.39,759.40,-66.41,-950.20,345.70,-0.26,0.68,1.05,-113.64
34946,761.40,762.49,756.33,757.42,759.41,-64.94,-951.17,336.43,-2.37,-1.57,-1.70,-113.66
34983,761.45,762.54,756.34,757.30,759.41,-68.85,-952.64,353.03,-1.21,0.94,-0.57,-112.22
35019,761.35,762.52,756.31,757.36,759.38,-82.52,-956.05,335.45,0.29,-0.34,-1.67,-113.20
35056,761.35,762.47,756.26,757.46,759.38,-53.71,-951.17,343.75,-0.30,0.18,-1.11,-115.71
35092,761.44,762.48,756.34,757.37,759.41,-75.20,-958.98,353.52,1.13,0.76,1.08,-112.75
35129,761.37,762.56,756.23,757.44,759.40,-60.06,-953.12,347.66,-1.01,0.95,0.80,-116.86
35168,761.45,762.51,756.31,757.32,759.40,-72.75,-957.52,346.19,-1.13,-1.98,-2.49,-113.08
35205,761.40,762.51,756.29,757.36,759.39,-57.62,-949.71,352.05,-0.45,0.74,0.21,-114.05
35241,761.39,762.54,756.30,757.33,759.39,-70.80,-948.73,353.03,-0.11,-1.97,-0.85,-113.37
35278,761.43,762.53,756.23,757.34,759.38,-74.22,-955.57,348.14,-2.18,0.24,-1.87,-115.56
35315,761.48,762.60,756.25,757.45,759.45,-59.57,-957.52,348.63,-1.55,-3.40,-1.16,-117.31
35351,761.41,762.54,756.32,757.41,759.42,-70.31,-957.52,352.54,0.24,1.22,-1.59,-114.15
35390,761.49,762.58,756.30,757.38,759.44,-75.20,-957.52,364.75,-1.05,0.88,0.76,-115.01
35427,761.45,762.48,756.32,757.43,759.42,-68.85,-957.03,350.10,-0.47,-0.79,0.92,-114.19
35463,761.43,762.56,756.35,757.42,759.44,-62.01,-953.61,356.93,-0.69,0.66,0.02,-113.75
35500,761.40,762.44,756.33,757.41,759.39,-52.73,-950.20,344.24,-0.84,2.73,1.11,-113.23
35537,761.46,762.48,756.31,757.40,759.41,-77.64,-965.33,346.68,-0.79,1.92,-0.31,-114.04
35576,761.44,762.58,756.28,757.45,759.44,-62.99,-959.96,358.89,-0.40,1.21,-2.10,-116.20
35612,761.49,762.57,756.34,757.44,759.46,-62.50,-954.10,354.49,0.02,0.74,-0.31,-114.74
35649,761.49,762.60,756.32,757.47,759.47,-64.45,-958.98,354.98,-0.77,0.05,-0.88,-115.95
35685,761.43,762.64,756.32,757.39,759.45,-79.10,-958.01,356.45,0.10,-0.51,-1.30,-114.77
35722,761.41,762.61,756.37,757.55,759.48,-64.45,-955.08,352.05,0.07,-0.34,-0.78,-115.68
35759,761.43,762.59,756.32,757.41,759.44,-62.50,-959.47,341.80,0.02,-0.88,0.70,-114.58
35798,761.43,762.59,756.37,757.43,759.46,-57.13,-952.64,356.45,-0.73,-0.60,0.15,-113.75
35834,761.48,762.64,756.29,757.44,759.46,-62.50,-968.26,353.03,-0.31,-0.18,1.37,-116.38
35871,761.48,762.59,756.37,757.48,759.48,-62.99,-955.57,347.66,0.67,1.03,-0.05,-114.62
35908,761.41,762.64,756.36,757.45,759.46,-54.20,-955.57,336.43,-0.33,2.09,0.97,-114.56
35945,761.51,762.63,756.30,757.45,759.47,-65.92,-965.33,346.19,-0.80,2.42,0.41,-116.54
35981,761.45,762.63,756.32,757.49,759.47,-67.87,-955.08,355.47,1.31,-2.95,-2.14,-116.30
36021,761.44,762.62,756.38,757.40,759.46,-79.10,-961.91,352.54,0.08,2.03,-0.56,-113.24
36057,761.49,762.66,756.38,757.43,759.49,-72.75,-956.05,344.24,-1.50,0.82,0.10,-114.20
36094,761.47,762.54,756.39,757.46,759.47,-66.89,-946.78,357.91,-1.46,-0.05,0.29,-113.37
36130,761.47,762.64,756.28,757.48,759.47,-78.12,-949.22,352.05,-0.65,0.51,-1.15,-117.30
36167,761.50,762.62,756.32,757.39,759.46,-56.64,-958.50,359.86,-2.22,-1.66,0.28,-114.80
36204,761.50,762.62,756.39,757.40,759.48,-54.20,-959.96,363.28,-1.83,-2.13,-1.55,-113.23
36243,761.49,762.61,756.36,757.50,759.49,-62.50,-951.66,363.28,-0.49,2.82,-0.67,-115.50
36279,761.39,762.60,756.34,757.45,759.44,-60.55,-960.94,354.49,-0.53,-0.99,0.33,-114.75
36316,761.41,762.69,756.40,757.48,759.49,-62.99,-953.12,354.00,-2.17,0.34,-0.40,-114.34
36352,761.47,762.72,756.43,757.46,759.52,-54.69,-958.98,339.36,-0.12,0.69,-1.42,-113.90
36389,761.50,762.67,756.30,757.50,759.49,-71.29,-956.05,344.73,-0.15,0.02,-0.45,-117.56
36425,761.43,762.71,756.36,757.48,759.50,-78.12,-959.96,345.21,1.34,2.18,-0.80,-115.80
36464,761.49,762.65,756.36,757.48,759.50,-71.78,-956.54,347.66,-0.07,-1.68,-3.81,-115.37
36501,761.44,762.62,756.40,757.47,759.48,-61.04,-959.47,358.89,-0.63,2.15,-0.26,-113.79
36537,761.51,762.69,756.39,757.49,759.52,-58.11,-951.66,356.93,0.66,1.11,0.34,-115.30
36574,761.46,762.61,756.36,757.52,759.49,-69.82,-964.36,347.66,-0.65,-2.36,-0.58,-115.47
36610,761.46,762.63,756.32,757.51,759.48,-75.68,-958.98,353.03,-0.56,-1.53,-1.81,-116.50
36649,761.48,762.63,756.43,757.52,759.52,-71.78,-949.22,352.54,-1.21,1.34,-1.33,-114.05
36686,761.49,762.66,756.31,757.53,759.50,-60.55,-951.66,344.24,0.76,1.48,0.54,-117.52
36722,761.48,762.71,756.36,757.49,759.51,-69.34,-968.26,353.03,-1.17,1.08,0.37,-115.89
36759,761.42,762.71,756.39,757.45,759.49,-66.41,-958.01,352.05,-1.02,2.72,-0.99,-114.30
36796,761.46,762.68,756.37,757.48,759.50,-68.85,-945.80,370.61,-1.95,-0.11,-0.24,-115.38
36832,761.43,762.75,756.35,757.50,759.51,-65.43,-959.47,348.63,-0.08,0.92,-0.13,-116.67
36873,761.44,762.72,756.31,757.50,759.49,-68.85,-953.61,350.59,-1.48,1.33,0.56,-117.41
36909,761.44,762.60,756.40,757.49,759.48,-60.55,-962.40,349.12,-3.78,1.37,-2.52,-113.96
36946,761.50,762.73,756.36,757.60,759.55,-54.69,-955.57,357.42,0.05,-0.14,-0.34,-117.76
36982,761.51,762.76,756.35,757.64,759.56,-75.68,-958.98,354.49,-0.75,0.44,2.05,-118.99
37019,761.49,762.77,756.35,757.60,759.55,-58.59,-952.64,357.42,-1.56,0.64,0.28,-118.39
37056,761.46,762.77,756.40,757.45,759.52,-57.13,-964.36,350.10,-0.12,-1.10,-0.72,-114.92
37095,761.49,762.70,756.40,757.52,759.53,-74.22,-960.45,351.56,-1.30,0.24,-0.89,-115.29
37132,761.46,762.79,756.42,757.53,759.55,-72.27,-951.66,354.98,-1.82,-0.37,-0.79,-115.63
37169,761.49,762.71,756.33,757.60,759.53,-60.55,-950.68,355.96,-1.29,-1.21,-1.17,-118.39
37205,761.49,762.71,756.32,757.56,759.52,-59.57,-964.36,354.00,-1.73,1.26,1.07,-117.95
37242,761.53,762.71,756.41,757.51,759.54,-67.87,-957.03,352.54,-0.73,-0.71,0.95,-115.20
37279,761.53,762.76,756.37,757.61,759.57,-69.82,-947.27,352.54,-0.10,-2.32,-0.31,-118.07
37318,761.48,762.77,756.40,757.56,759.55,-64.94,-956.05,345.70,-0.13,-0.79,-1.55,-116.42
37355,761.45,762.75,756.45,757.56,759.55,-62.99,-960.45,344.24,-0.15,-0.30,-2.33,-114.91
37392,761.49,762.82,756.40,757.53,759.56,-71.78,-952.15,354.00,-0.41,-1.02,-1.66,-116.56
37428,761.46,762.82,756.36,757.55,759.55,-70.80,-966.80,351.56,-1.34,-0.65,-1.43,-117.72
37465,761.52,762.81,756.34,757.52,759.55,-77.15,-956.54,351.07,-0.63,-0.03,-0.76,-117.89
37504,761.45,762.79,756.40,757.67,759.58,-72.27,-952.15,346.19,-0.36,0.35,-1.73,-118.29
37541,761.48,762.75,756.42,757.63,759.57,-72.75,-955.57,349.12,2.21,-0.06,-1.86,-116.85
37578,761.45,762.77,756.39,757.55,759.54,-62.01,-944.82,340.82,-0.37,-0.04,-2.18,-116.52
37614,761.45,762.71,756.34,757.64,759.53,-65.92,-964.36,345.21,-0.53,0.37,0.26,-118.72
37651,761.43,762.74,756.35,757.53,759.52,-76.66,-953.61,348.14,-0.85,0.73,-2.60,-116.97
37688,761.48,762.75,756.40,757.57,759.55,-62.50,-958.98,357.91,-1.23,0.65,-0.46,-116.55
37727,761.47,762.75,756.39,757.62,759.56,-67.38,-959.96,348.63,-1.10,0.81,-0.34,-117.53
37764,761.54,762.78,756.43,757.50,759.56,-62.01,-948.73,348.14,0.60,-0.15,-1.72,-115.10
37801,761.49,762.80,756.44,757.58,759.58,-64.94,-954.10,346.68,-0.02,1.28,-2.31,-115.89
37837,761.49,762.81,756.42,757.56,759.57,-66.41,-955.57,334.96,-0.85,0.92,0.27,-116.42
37875,761.49,762.70,756.40,757.60,759.55,-62.50,-942.87,345.21,-0.34,0.50,-1.79,-116.52
37911,761.50,762.81,756.39,757.59,759.57,-78.61,-958.01,352.05,0.82,-1.95,0.64,-117.43
37950,761.55,762.77,756.40,757.58,759.57,-63.48,-953.61,357.42,-1.02,-1.02,-0.34,-117.03
37987,761.51,762.77,756.42,757.61,759.58,-51.27,-958.98,350.10,-0.98,2.31,-1.69,-116.77
38023,761.56,762.83,756.34,757.62,759.59,-63.48,-955.57,346.68,-0.66,2.10,-1.62,-119.74
38060,761.51,762.81,756.43,757.65,759.60,-63.48,-952.64,349.12,-1.22,-3.95,1.47,-117.58
38096,761.46,762.78,756.42,757.62,759.57,-70.31,-957.52,364.75,-1.69,0.05,-0.61,-116.94
38132,761.53,762.75,756.43,757.66,759.59,-64.45,-957.52,349.61,-0.08,-1.01,-0.69,-117.26
38172,761.49,762.82,756.42,757.59,759.58,-59.57,-961.91,363.77,-0.30,-0.67,1.21,-117.04
38208,761.42,762.80,756.41,757.60,759.56,-61.04,-955.57,352.54,0.30,0.16,-0.76,-116.79
38245,761.50,762.82,756.47,757.62,759.60,-72.27,-961.91,349.12,0.40,0.36,-1.43,-116.17
38281,761.46,762.80,756.43,757.62,759.58,-67.87,-965.82,349.12,-1.07,-1.32,-3.52,-116.91
38318,761.44,762.88,756.38,757.60,759.58,-64.45,-967.29,356.45,-2.41,0.17,0.18,-118.37
38357,761.49,762.85,756.47,757.60,759.60,-62.50,-957.52,349.61,-0.28,1.56,2.85,-115.92
38394,761.43,762.88,756.46,757.59,759.59,-72.75,-954.59,366.21,-0.91,1.59,1.93,-116.23
38430,761.50,762.81,756.46,757.60,759.59,-62.01,-954.10,356.93,0.44,1.89,0.69,-116.06
38467,761.45,762.81,756.47,757.63,759.59,-69.82,-956.05,344.24,0.07,-3.11,0.67,-116.02
38533,761.44,762.85,756.43,757.63,759.59,-66.89,-952.15,354.98,-3.44,-2.03,-0.52,-117.17
38569,761.50,762.81,756.38,757.63,759.58,-69.34,-953.12,351.07,-1.44,0.11,1.06,-118.25
38608,761.48,762.81,756.47,757.68,759.61,-58.11,-959.47,351.56,0.25,0.94,-2.57,-117.02
38645,761.51,762.81,756.42,757.65,759.60,-57.13,-954.10,353.03,1.85,1.14,0.53,-117.68
38681,761.51,762.84,756.45,757.61,759.60,-62.01,-942.38,338.87,-1.65,1.45,-0.41,-116.65
38717,761.47,762.82,756.46,757.64,759.60,-67.87,-953.61,350.10,1.26,0.18,2.23,-116.63
38754,761.50,762.83,756.44,757.68,759.61,-59.08,-954.59,339.36,0.36,-1.04,-1.32,-117.90
38790,761.50,762.84,756.45,757.64,759.61,-62.01,-952.64,354.00,0.25,1.82,-2.25,-117.14
38829,761.49,762.89,756.44,757.68,759.63,-63.96,-957.03,331.54,-0.82,1.07,-2.62,-118.33
38865,761.44,762.85,756.45,757.70,759.61,-72.27,-958.01,352.54,0.19,-2.65,0.29,-117.85
38902,761.53,762.84,756.46,757.64,759.62,-71.29,-947.75,358.40,-0.14,-0.06,0.97,-116.87
38938,761.50,762.82,756.43,757.70,759.61,-69.82,-948.24,352.54,1.15,0.41,-1.52,-118.24
38975,761.47,762.80,756.37,757.68,759.58,-66.41,-947.27,354.49,0.00,0.39,0.80,-119.33
39011,761.43,762.84,756.46,757.69,759.61,-66.41,-949.22,354.98,-1.24,0.45,-1.08,-117.40
39050,761.50,762.88,756.43,757.71,759.63,-73.73,-951.17,337.40,-1.35,3.78,2.66,-118.78
39086,761.53,762.80,756.48,757.68,759.62,-57.62,-962.89,358.89,-0.71,0.48,-0.68,-116.64
39123,761.46,762.86,756.45,757.67,759.61,-73.73,-950.20,355.47,0.53,0.24,-2.44,-117.54
39159,761.52,762.80,756.36,757.72,759.60,-64.45,-948.73,359.37,-0.11,0.40,1.12,-120.42
39195,761.46,762.82,756.49,757.72,759.62,-73.24,-956.05,346.68,-1.29,0.66,-0.47,-116.97
39234,761.56,762.92,756.46,757.77,759.68,-52.73,-962.40,343.75,0.05,-0.29,-0.64,-119.59
39271,761.49,762.87,756.48,757.60,759.61,-73.73,-945.80,360.35,1.10,0.79,-0.76,-116.02
39307,761.54,762.86,756.49,757.70,759.65,-62.99,-958.98,352.05,-0.47,0.62,-1.27,-117.33
39344,761.52,762.88,756.46,757.69,759.64,-66.89,-948.73,361.33,-0.93,-2.79,-1.50,-118.03
39380,761.54,762.87,756.44,757.70,759.64,-73.24,-962.89,350.59,-1.49,2.15,-1.05,-118.50
39416,761.50,762.89,756.39,757.65,759.61,-61.52,-963.38,349.12,1.49,0.08,-0.15,-119.25
39455,761.52,762.88,756.44,757.67,759.63,-63.48,-962.40,342.29,0.36,1.43,0.31,-118.20
39492,761.45,762.89,756.45,757.75,759.64,-63.48,-956.54,340.33,1.30,1.89,-1.21,-118.96
39529,761.49,762.85,756.53,757.71,759.65,-63.48,-964.36,345.70,-0.78,0.63,0.43,-116.07
39565,761.49,762.86,756.43,757.67,759.61,-65.43,-960.94,350.10,0.73,-0.87,0.34,-118.01
39602,761.55,762.83,756.52,757.69,759.64,-64.45,-957.03,353.52,-1.82,2.98,-0.63,-116.17
39638,761.53,762.86,756.42,757.71,759.63,-76.17,-962.89,354.00,1.63,-2.48,0.85,-119.00
39677,761.50,762.80,756.44,757.63,759.59,-67.38,-955.57,358.40,-0.86,1.20,-1.50,-116.79
39713,761.45,762.93,756.45,757.62,759.61,-59.57,-954.10,352.54,-0.36,-1.98,-0.63,-117.35
39749,761.53,762.86,756.47,757.68,759.64,-63.96,-958.50,348.63,-1.79,0.08,-0.33,-117.31
39786,761.48,762.85,756.47,757.73,759.63,-56.64,-957.03,354.98,-0.13,1.31,0.34,-117.89
39822,761.55,762.89,756.51,757.74,759.67,-75.20,-952.15,357.91,-1.26,0.07,0.55,-117.66
39858,761.57,762.93,756.44,757.69,759.66,-57.13,-954.10,351.56,-0.75,-0.77,-0.21,-118.92
39897,761.59,762.92,756.53,757.70,759.68,-76.66,-950.20,356.45,0.76,2.44,0.03,-116.91
39934,761.54,762.90,756.47,757.68,759.65,-64.45,-961.43,349.61,0.15,-1.89,-0.11,-117.87
39970,761.57,762.91,756.40,757.76,759.66,-66.89,-957.03,357.91,-1.80,-0.57,-0.96,-120.79
40006,761.50,762.85,756.37,757.74,759.61,-62.01,-950.68,350.59,0.80,1.53,-0.61,-120.48
40042,761.53,762.88,756.44,757.63,759.62,-63.48,-952.64,342.29,0.98,0.24,0.31,-117.73
40078,761.54,762.89,756.45,757.67,759.64,-63.96,-957.03,348.63,-1.40,-2.48,1.95,-117.99
40117,761.50,762.84,756.38,757.70,759.61,-60.55,-958.50,357.91,-1.16,3.02,-1.76,-119.67
40153,761.51,762.93,756.46,757.73,759.66,-68.36,-946.29,355.47,0.90,-0.42,0.10,-118.87
40190,761.49,762.90,756.44,757.78,759.65,-63.96,-975.10,349.61,-2.82,-0.37,-0.95,-120.02
40226,761.53,762.90,756.46,757.74,759.66,-58.11,-970.70,362.30,0.21,0.60,-0.52,-118.95
40263,761.51,762.92,756.49,757.77,759.67,-67.38,-941.89,342.29,-1.29,0.40,0.66,-118.60
40302,761.55,762.91,756.42,757.63,759.63,-67.38,-963.87,352.05,-1.64,2.01,-0.54,-118.46
40338,761.52,762.92,756.45,757.81,759.68,-63.96,-960.45,346.19,-1.75,0.49,-2.82,-120.47
40375,761.47,762.95,756.40,757.78,759.65,-61.04,-951.66,350.59,1.01,1.84,-0.15,-121.33
40411,761.53,762.88,756.52,757.75,759.67,-55.66,-954.59,352.54,-0.34,-0.33,-0.43,-117.37
40448,761.51,762.85,756.49,757.72,759.64,-68.85,-960.94,352.54,1.02,0.95,-0.67,-117.42
40485,761.47,762.90,756.54,757.70,759.65,-76.17,-954.59,347.17,-0.62,3.48,-0.08,-116.11
40524,761.53,762.90,756.53,757.77,759.68,-75.20,-959.47,341.80,-0.35,0.37,-0.21,-117.73
40560,761.51,762.95,756.51,757.70,759.67,-70.31,-958.50,346.68,-1.30,0.24,0.50,-117.39
40597,761.54,762.94,756.44,757.76,759.67,-63.96,-965.82,343.75,-0.08,-0.92,0.14,-119.93
40633,761.45,762.94,756.50,757.75,759.66,-60.55,-950.20,352.54,1.24,-1.09,1.32,-118.07
40670,761.53,762.94,756.51,757.73,759.68,-61.52,-956.05,335.94,-1.11,-0.51,0.31,-117.83
40706,761.56,762.92,756.42,757.81,759.68,-71.29,-948.73,350.59,-0.51,-0.76,0.18,-121.22
40745,761.51,762.99,756.49,757.72,759.68,-61.04,-960.45,356.45,-2.08,-1.77,-1.40,-118.60
40782,761.48,762.93,756.49,757.71,759.65,-65.43,-967.29,350.59,-0.05,0.18,-0.65,-117.73
40818,761.57,762.94,756.47,757.73,759.68,-61.04,-951.17,344.24,-0.18,-2.18,-1.55,-119.08
40854,761.50,762.89,756.42,757.81,759.66,-68.85,-955.08,373.54,0.87,0.81,-0.79,-120.58
40891,761.56,762.96,756.52,757.71,759.69,-73.24,-955.57,346.68,0.50,0.64,-1.16,-117.63
40927,761.54,762.96,756.44,757.71,759.66,-68.36,-963.87,351.07,1.05,-0.58,0.79,-119.62
40966,761.53,763.01,756.47,757.74,759.69,-59.08,-946.29,358.89,-1.76,2.63,-1.10,-119.66
41003,761.53,762.96,756.50,757.81,759.70,-76.66,-946.29,352.05,-1.96,2.49,0.02,-119.22
41040,761.53,762.93,756.48,757.77,759.68,-65.92,-951.17,354.49,-1.53,1.57,-0.04,-119.11
41076,761.55,762.95,756.50,757.71,759.68,-73.73,-957.52,351.56,1.30,-0.20,-3.52,-117.93
41112,761.54,762.96,756.53,757.74,759.69,-56.64,-949.22,351.07,0.06,1.71,0.85,-117.63
41152,761.59,762.95,756.54,757.69,759.69,-62.01,-961.43,348.14,1.30,-1.57,-0.53,-116.81
41188,761.56,762.98,756.50,757.79,759.71,-63.48,-965.82,349.12,-0.55,0.81,-1.28,-119.36
41225,761.52,762.94,756.48,757.76,759.68,-69.34,-950.68,345.70,-1.87,0.65,-1.37,-118.95
41261,761.54,763.01,756.55,757.84,759.73,-63.96,-960.94,344.73,0.23,2.82,0.45,-119.06
41298,761.53,762.94,756.54,757.74,759.69,-56.15,-937.99,341.31,-1.06,0.48,0.14,-117.35
41334,761.54,762.99,756.47,757.78,759.69,-71.78,-948.73,353.52,-0.18,-0.41,-1.31,-119.87
41373,761.55,763.00,756.49,757.73,759.69,-67.87,-956.05,348.14,0.37,0.37,-1.72,-118.95
41410,761.43,763.08,756.48,757.79,759.69,-62.50,-966.31,356.45,0.11,-1.78,0.89,-120.12
41446,761.58,762.97,756.58,757.75,759.72,-58.59,-963.87,339.36,-2.27,-0.08,-2.67,-116.83
41483,761.50,762.98,756.49,757.72,759.67,-69.82,-952.15,350.10,-1.96,-0.27,-0.01,-118.38
41519,761.54,763.00,756.47,757.77,759.70,-68.36,-960.45,345.70,-1.77,-1.08,-0.98,-119.99
41555,761.56,763.04,756.46,757.73,759.70,-70.80,-962.40,357.91,-1.16,0.07,1.77,-119.88
41594,761.55,763.05,756.47,757.73,759.70,-76.66,-959.47,348.14,0.03,-0.02,-1.30,-119.80
41631,761.55,763.01,756.52,757.75,759.71,-69.82,-954.59,328.12,0.27,-0.05,1.16,-118.42
41667,761.50,763.05,756.53,757.75,759.71,-60.06,-964.84,354.49,0.34,-0.44,0.65,-118.40
41703,761.61,763.04,756.52,757.76,759.73,-63.96,-952.15,345.21,0.34,1.02,-2.19,-119.11
41739,761.50,763.01,756.51,757.76,759.69,-71.78,-957.03,351.07,0.51,0.11,1.69,-118.60
41776,761.50,763.04,756.37,757.79,759.68,-62.50,-950.68,356.93,-0.21,1.95,0.27,-122.90
41815,761.54,763.02,756.53,757.74,759.71,-52.25,-950.20,355.96,0.72,-3.87,-0.53,-118.25
41851,761.52,763.00,756.51,757.85,759.72,-80.57,-952.64,362.30,-1.20,2.08,-2.34,-119.92
41887,761.57,763.10,756.51,757.69,759.72,-69.34,-952.15,350.59,-0.48,-0.23,1.02,-118.60
41924,761.50,762.99,756.50,757.75,759.68,-62.50,-951.17,358.89,-1.15,1.66,-1.40,-118.51
41960,761.55,762.96,756.48,757.81,759.70,-81.54,-952.64,355.96,0.10,0.29,-1.50,-120.05
41997,761.57,762.94,756.49,757.73,759.68,-75.20,-957.52,350.10,-1.61,1.08,-0.47,-118.42
42036,761.56,763.01,756.48,757.79,759.71,-59.57,-965.82,355.47,-0.35,-2.18,1.63,-120.05
42073,761.58,762.96,756.46,757.78,759.69,-65.43,-971.19,343.26,0.53,-1.05,2.53,-120.17
42109,761.58,762.99,756.54,757.75,759.72,-69.34,-949.71,348.14,-0.70,0.63,-0.18,-117.83
42146,761.62,762.90,756.48,757.82,759.71,-62.50,-959.96,354.00,1.45,-0.55,-1.28,-119.91
42183,761.60,763.07,756.54,757.87,759.77,-58.59,-956.54,351.07,0.98,0.83,0.66,-120.46
42222,761.56,762.95,756.49,757.75,759.69,-67.38,-956.05,345.21,-0.47,1.18,-0.10,-118.70
42258,761.55,762.97,756.55,757.78,759.71,-70.31,-959.47,346.68,0.27,0.27,-0.60,-117.90
42295,761.66,762.86,756.55,757.76,759.71,-63.96,-972.17,344.73,0.80,1.47,0.21,-116.92
42331,761.53,762.91,756.53,757.78,759.69,-61.04,-965.33,341.31,0.28,1.24,1.70,-117.82
42368,761.57,762.92,756.54,757.79,759.70,-61.52,-964.36,341.31,0.58,1.42,-0.43,-117.79
42404,761.59,763.01,756.48,757.77,759.71,-71.29,-957.52,346.68,-0.47,0.06,0.47,-119.71
42444,761.63,763.00,756.54,757.77,759.74,-68.85,-945.31,343.75,0.60,2.00,0.49,-118.60
42481,761.58,762.91,756.52,757.76,759.69,-56.15,-963.87,355.96,0.12,-2.27,-1.22,-117.86
42517,761.54,762.82,756.49,757.84,759.67,-66.89,-957.52,361.33,0.81,2.51,-1.08,-118.96
42554,761.58,762.85,756.47,757.84,759.69,-74.22,-966.80,336.43,1.56,0.18,0.66,-119.83
42590,761.60,762.95,756.50,757.77,759.70,-71.29,-956.54,361.82,-0.47,-0.38,-0.55,-118.83
42627,761.55,762.94,756.55,757.82,759.72,-65.43,-960.45,348.63,0.24,-1.67,-0.24,-118.35
42666,761.60,763.00,756.54,757.84,759.75,-62.50,-957.03,347.17,-0.03,1.35,-1.35,-119.39
42703,761.68,762.94,756.51,757.80,759.73,-72.27,-959.96,349.61,0.82,-1.08,1.31,-119.48
42739,761.62,762.99,756.57,757.78,759.74,-76.17,-951.66,338.87,-1.11,-0.37,0.02,-117.72
42776,761.53,763.09,756.50,757.80,759.73,-79.59,-957.52,350.10,0.30,0.26,-0.49,-120.24
42812,761.57,762.96,756.57,757.81,759.73,-70.31,-970.21,350.59,0.05,1.84,-1.37,-117.72
42849,761.67,762.98,756.58,757.79,759.76,-68.85,-952.64,337.89,-0.58,-1.98,2.95,-117.75
42888,761.58,762.92,756.60,757.69,759.70,-62.01,-958.01,350.10,-1.11,2.35,1.14,-114.97
42925,761.58,763.00,756.55,757.75,759.72,-73.24,-961.43,336.91,-2.24,2.26,-0.27,-117.67
42961,761.59,763.06,756.54,757.76,759.74,-72.75,-963.87,346.68,-0.63,-1.73,-1.39,-118.54
42998,761.70,762.97,756.58,757.67,759.73,-54.69,-965.82,349.12,0.45,-0.63,-1.17,-116.07
43034,761.64,762.96,756.56,757.81,759.74,-61.04,-970.21,354.00,0.15,-0.20,-0.81,-118.32
43071,761.61,762.98,756.56,757.79,759.74,-71.78,-964.36,350.59,-0.13,-0.31,0.01,-117.86
43110,761.58,762.93,756.55,757.86,759.73,-77.15,-958.01,350.10,0.53,2.03,-0.34,-118.83
43146,761.65,762.98,756.55,757.85,759.76,-61.52,-960.94,351.07,0.05,1.47,-1.16,-119.34
43183,761.58,762.97,756.49,757.79,759.71,-65.92,-971.19,354.00,-1.01,0.84,-0.81,-119.55
43219,761.67,762.98,756.53,757.86,759.76,-63.48,-964.84,338.87,-1.67,2.01,-1.44,-119.99
43256,761.67,763.01,756.54,757.86,759.77,-63.48,-954.10,348.63,-0.88,1.31,-2.02,-120.21
43295,761.68,762.99,756.51,757.81,759.75,-79.10,-966.31,327.64,-0.30,0.14,-3.37,-119.86
43334,761.64,763.03,756.60,757.81,759.77,-69.82,-954.10,349.12,0.48,1.15,-1.15,-117.71
43370,761.66,763.10,756.58,757.79,759.78,-75.68,-960.45,342.29,0.25,0.93,0.37,-118.47
43407,761.59,763.09,756.56,757.81,759.76,-76.17,-953.12,356.93,-0.09,1.05,-1.19,-119.28
43443,761.67,763.08,756.57,757.77,759.77,-64.94,-965.33,353.52,1.39,-1.81,-0.99,-118.53
43479,761.66,763.00,756.51,757.81,759.74,-58.11,-958.98,347.66,-0.27,1.57,0.50,-119.99
43518,761.60,763.01,756.65,757.84,759.78,-65.43,-955.57,344.73,-1.41,0.67,-2.74,-116.87
43554,761.64,763.00,756.57,757.79,759.75,-76.66,-949.71,349.61,-0.04,0.93,-0.66,-118.11
43591,761.59,763.05,756.56,757.81,759.75,-77.15,-957.52,355.47,0.29,-1.69,-2.44,-118.72
43627,761.66,763.04,756.55,757.82,759.77,-62.50,-959.47,349.61,0.43,0.29,-1.17,-119.31
43664,761.59,763.03,756.63,757.79,759.76,-62.50,-955.57,356.93,0.46,-1.86,-0.67,-116.65
43701,761.61,763.07,756.58,757.82,759.77,-62.50,-946.78,351.07,-0.93,0.37,-0.13,-118.84
43740,761.62,763.02,756.56,757.86,759.76,-77.64,-956.54,349.12,0.48,0.20,-1.34,-119.39
43776,761.58,763.05,756.57,757.79,759.75,-64.45,-961.43,351.07,1.68,-1.23,-0.10,-118.16
43813,761.65,763.06,756.56,757.86,759.78,-61.04,-951.17,339.36,-0.60,-0.95,0.07,-119.73
43849,761.65,763.08,756.57,757.79,759.77,-61.04,-942.87,363.77,-3.37,-2.27,-0.88,-118.64
43886,761.68,763.12,756.55,757.84,759.79,-69.82,-963.87,340.82,-0.91,2.25,1.77,-120.33
43923,761.62,763.10,756.59,757.84,759.79,-71.29,-960.94,351.56,-0.66,0.18,-1.78,-119.02
43962,761.69,763.07,756.63,757.80,759.80,-64.94,-962.89,350.10,-0.50,-0.35,-1.40,-117.55
43998,761.66,763.06,756.60,757.79,759.78,-67.38,-949.71,347.66,-1.31,0.82,-1.98,-118.04
44035,761.57,763.05,756.51,757.89,759.75,-64.94,-955.08,342.29,-0.21,-0.18,-0.73,-121.22
44071,761.64,763.09,756.55,757.77,759.76,-56.64,-960.94,350.59,0.83,2.22,0.15,-118.94
44108,761.60,763.07,756.55,757.88,759.77,-53.22,-961.91,355.47,0.38,0.08,-2.62,-120.21
44147,761.67,763.05,756.55,757.85,759.78,-74.71,-958.01,340.33,-0.23,-1.94,-1.82,-120.01
44184,761.62,763.06,756.57,757.83,759.77,-78.61,-967.29,352.54,-0.75,-0.18,-0.44,-118.98
44220,761.70,763.06,756.51,757.93,759.80,-65.92,-945.80,349.12,-0.67,0.24,-0.84,-122.36
44257,761.65,763.06,756.58,757.84,759.78,-64.45,-963.38,352.05,-0.27,0.15,-2.95,-118.98
44294,761.63,763.09,756.58,757.84,759.79,-68.36,-960.45,346.68,0.12,1.54,1.75,-119.23
44330,761.59,763.03,756.55,757.78,759.74,-60.55,-958.01,357.42,-0.21,-1.38,-1.93,-118.47
44370,761.66,763.06,756.50,757.83,759.76,-65.43,-956.54,347.17,-1.13,1.28,-0.92,-120.91
44407,761.64,763.06,756.53,757.83,759.77,-71.78,-955.57,344.24,-0.37,0.62,-1.30,-120.28
44443,761.64,763.03,756.56,757.84,759.77,-77.15,-963.87,341.80,0.98,1.80,-2.62,-119.25
44480,761.62,762.98,756.56,757.86,759.76,-68.85,-955.57,347.17,0.89,-0.60,0.94,-119.19
44516,761.66,763.06,756.61,757.85,759.80,-62.99,-960.45,355.96,-1.53,-0.40,-0.95,-118.51
44553,761.70,763.06,756.62,757.88,759.82,-65.43,-958.50,354.49,1.16,0.66,0.79,-118.98
44592,761.63,763.00,756.58,757.81,759.75,-51.27,-962.40,345.21,-0.32,-0.40,-0.21,-118.06
44628,761.69,763.12,756.60,757.85,759.82,-56.15,-961.91,343.75,-0.51,0.37,-2.40,-119.15
44665,761.64,762.97,756.58,757.82,759.75,-77.15,-958.98,347.66,-0.66,2.40,-1.92,-118.06
44701,761.64,763.05,756.59,757.81,759.77,-70.31,-959.96,351.56,-3.35,1.09,0.84,-118.33
44738,761.70,763.09,756.56,757.85,759.80,-68.36,-959.96,347.17,-0.93,-0.82,-1.65,-120.07
44775,761.67,763.12,756.61,757.83,759.81,-64.94,-952.64,346.68,-1.86,1.20,1.08,-118.56
44814,761.74,763.16,756.57,757.83,759.83,-66.41,-967.77,352.05,-0.91,2.87,-1.94,-120.21
44850,761.65,763.10,756.53,757.89,759.79,-76.17,-941.41,355.96,-0.24,-2.16,-2.34,-121.38
44886,761.72,763.09,756.62,757.94,759.84,-64.45,-962.89,353.52,0.17,0.04,0.23,-120.06
44922,761.71,762.98,756.58,757.83,759.78,-68.36,-953.61,338.38,-0.67,1.63,0.31,-118.35
44958,761.68,763.03,756.57,757.84,759.78,-52.25,-958.01,332.03,-0.23,-1.15,-0.59,-119.23
44998,761.67,763.00,756.63,757.86,759.79,-70.31,-955.57,352.05,-1.28,-0.82,-0.02,-117.79
45034,761.67,763.07,756.62,757.81,759.79,-70.31,-953.61,347.17,-0.57,0.32,-0.04,-117.65
45070,761.69,763.04,756.62,757.79,759.79,-78.12,-958.50,353.52,0.47,-0.03,-0.40,-117.27
45106,761.72,763.02,756.58,757.84,759.79,-74.22,-961.43,344.73,-1.74,-1.28,0.08,-118.85
45143,761.65,763.03,756.63,757.84,759.79,-83.50,-958.50,347.17,1.02,0.35,-0.34,-117.57
45179,761.67,763.05,756.72,757.89,759.83,-64.45,-959.47,346.19,0.82,2.11,-0.93,-116.39
45218,761.66,763.01,756.61,757.86,759.79,-59.57,-950.68,348.63,0.56,1.47,-1.56,-118.27
45254,761.69,763.04,756.66,757.85,759.81,-55.66,-964.36,354.00,-1.10,1.26,-0.08,-117.21
45291,761.76,763.01,756.68,757.94,759.85,-66.41,-958.98,338.38,-0.82,1.29,-1.81,-118.06
45328,761.72,763.02,756.65,757.85,759.81,-73.73,-942.38,347.66,-0.28,-1.36,1.32,-117.37
45364,761.64,762.99,756.60,757.91,759.79,-67.38,-948.24,356.93,-1.89,-0.36,-0.95,-119.02
45401,761.74,763.04,756.70,757.91,759.85,-73.24,-962.40,354.00,0.07,0.40,-0.36,-117.20
45440,761.75,762.97,756.65,757.86,759.81,-69.34,-956.05,343.75,-2.07,-1.27,-0.46,-117.19
45477,761.69,763.07,756.57,757.90,759.81,-61.52,-962.40,341.80,0.00,-1.31,-1.63,-120.44
45513,761.72,763.03,756.65,757.88,759.82,-80.08,-959.47,347.66,-1.89,0.91,-0.79,-117.83
45550,761.69,763.03,756.64,757.87,759.80,-69.82,-960.94,356.93,1.36,0.94,-1.33,-117.85
45586,761.71,763.01,756.68,757.81,759.80,-67.38,-954.10,336.43,-1.29,0.18,-1.89,-115.92
45623,761.71,763.07,756.65,757.89,759.83,-75.20,-961.91,359.37,0.21,2.20,2.42,-118.23
45662,761.72,763.02,756.63,757.86,759.81,-73.24,-972.66,356.45,-0.84,0.54,0.42,-117.94
45698,761.68,763.06,756.61,757.88,759.81,-77.64,-947.75,349.61,0.70,-0.14,-3.07,-118.93
45735,761.72,763.04,756.64,757.88,759.82,-61.04,-957.03,337.89,0.98,0.92,0.03,-118.30
45772,761.66,763.05,756.63,757.89,759.81,-67.87,-952.15,347.17,0.12,-2.32,-1.95,-118.68
45808,761.72,763.13,756.65,757.87,759.84,-63.48,-957.03,347.17,1.20,0.79,-0.98,-118.55
45845,761.71,763.12,756.65,757.89,759.84,-73.73,-944.82,343.75,-1.95,0.85,-2.06,-118.76
45884,761.75,763.07,756.60,757.86,759.82,-65.92,-961.43,349.12,-1.82,0.37,1.42,-119.25
45920,761.70,763.08,756.58,757.93,759.82,-65.43,-956.05,353.03,-0.83,-0.63,-0.06,-120.64
45957,761.77,763.04,756.64,757.92,759.84,-71.78,-955.08,358.89,0.71,-1.02,1.62,-119.08
45993,761.75,763.12,756.60,757.84,759.83,-64.94,-960.45,356.45,-0.34,-0.98,1.75,-119.47
46030,761.78,763.07,756.66,757.84,759.84,-69.34,-953.12,350.10,-1.27,0.82,1.74,-117.48
46069,761.81,763.08,756.67,757.86,759.85,-71.78,-947.27,351.07,-0.53,-3.18,0.63,-117.78
46105,761.73,763.04,756.61,757.88,759.81,-72.27,-957.52,335.45,-0.63,0.28,0.66,-119.06
46142,761.71,763.09,756.69,757.86,759.84,-58.59,-966.80,344.24,-1.51,0.48,-0.34,-117.21
46179,761.74,763.08,756.65,757.87,759.84,-78.12,-951.17,341.80,-0.58,-0.13,-0.85,-118.08
46215,761.75,763.07,756.58,757.87,759.82,-69.82,-978.52,349.12,0.38,1.58,-2.37,-119.99
46252,761.75,763.05,756.61,757.87,759.82,-67.38,-956.54,346.68,0.23,0.16,-1.30,-119.10
46292,761.75,763.05,756.70,757.90,759.85,-66.41,-956.54,340.82,0.90,0.34,-1.81,-117.19
46328,761.68,763.11,756.63,757.89,759.83,-63.96,-962.40,359.86,-0.18,-0.92,-0.60,-119.14
46365,761.78,763.08,756.65,757.89,759.85,-60.55,-956.54,338.87,-0.13,1.95,-0.94,-118.67
46401,761.75,763.09,756.67,757.90,759.85,-71.78,-948.73,340.33,0.15,-1.06,0.49,-118.40
46438,761.80,763.09,756.70,757.88,759.87,-77.64,-958.98,346.68,-0.28,-1.12,-1.09,-117.39
46474,761.68,763.16,756.63,757.88,759.84,-76.17,-958.98,350.59,-0.30,0.60,-2.45,-119.27
46513,761.73,763.12,756.64,757.90,759.85,-76.66,-948.73,355.96,-1.14,2.36,-0.26,-119.15
46550,761.68,763.12,756.66,757.83,759.82,-59.57,-975.10,351.07,0.78,-0.27,-1.33,-117.37
46586,761.72,763.15,756.64,757.93,759.86,-70.31,-968.26,339.36,0.02,1.13,-1.40,-119.79
46622,761.67,763.12,756.68,757.87,759.83,-70.80,-955.08,343.26,-2.29,0.65,-2.47,-117.44
46659,761.72,763.10,756.67,757.90,759.85,-55.66,-948.24,353.03,0.32,0.98,-0.67,-118.30
46695,761.70,763.07,756.64,757.82,759.81,-66.41,-933.59,340.82,1.08,-0.01,-0.37,-117.39
46735,761.68,763.15,756.66,757.94,759.86,-56.64,-961.91,346.68,-1.09,0.66,-1.79,-119.47
46771,761.72,763.10,756.70,757.89,759.85,-70.31,-950.20,350.59,-0.54,-0.05,-2.43,-117.56
46807,761.75,763.10,756.66,757.88,759.85,-63.48,-945.31,348.63,-1.94,4.04,-1.11,-118.36
46843,761.71,763.11,756.66,757.89,759.84,-75.20,-950.20,356.93,0.82,-0.91,-0.97,-118.49
46880,761.80,763.11,756.63,757.95,759.87,-62.01,-960.45,353.52,-1.31,1.99,-1.13,-120.23
46919,761.75,763.19,756.66,757.91,759.88,-67.87,-971.19,346.68,-2.55,-1.26,-1.77,-119.58
46955,761.76,763.13,756.67,757.89,759.87,-69.34,-948.24,355.96,-0.60,-0.21,-1.56,-118.49
46992,761.70,763.15,756.64,757.90,759.85,-65.92,-959.96,366.70,-0.61,0.72,-2.60,-119.32
47028,761.74,763.21,756.66,757.94,759.89,-73.24,-951.17,341.80,-1.35,1.71,-0.34,-120.10
47065,761.74,763.11,756.68,757.93,759.87,-59.57,-950.20,353.03,0.92,-0.96,0.71,-118.59
47101,761.72,763.14,756.67,757.90,759.86,-54.20,-957.52,347.17,-0.98,0.63,0.37,-118.49
47141,761.69,763.16,756.64,757.91,759.85,-63.96,-955.08,354.98,-0.70,0.41,-1.79,-119.55
47177,761.71,763.18,756.66,757.85,759.85,-58.59,-955.08,350.59,-0.99,2.99,-1.41,-118.29
47214,761.78,763.16,756.68,757.99,759.90,-71.29,-955.57,342.29,-0.32,-0.57,-0.75,-119.85
47250,761.78,763.16,756.65,757.84,759.86,-62.01,-948.73,356.93,-0.89,0.98,-2.43,-118.43
47288,761.72,763.14,756.74,757.88,759.87,-69.82,-954.10,345.21,-1.16,-0.05,0.40,-116.47
47324,761.72,763.17,756.65,757.89,759.86,-66.89,-964.36,349.12,-0.16,-0.43,-1.59,-119.22
47363,761.79,763.17,756.71,757.87,759.89,-62.99,-959.47,338.87,1.51,-0.92,-1.28,-117.72
47400,761.75,763.19,756.69,757.95,759.89,-73.24,-956.54,348.63,-1.56,-1.59,-1.56,-119.36
47436,761.76,763.18,756.70,757.95,759.90,-62.99,-950.68,352.54,-1.40,-3.24,-2.32,-119.08
47473,761.82,763.26,756.65,757.95,759.92,-68.85,-970.21,336.91,-0.35,-3.56,-1.98,-121.11
47509,761.81,763.18,756.60,757.90,759.87,-77.64,-956.05,357.91,-1.50,1.02,2.08,-121.01
47546,761.76,763.18,756.63,757.95,759.88,-79.59,-952.64,344.73,0.35,0.51,-0.70,-120.77
47585,761.83,763.23,756.70,757.94,759.93,-69.34,-960.94,349.61,-0.51,2.37,2.22,-119.46
47622,761.77,763.20,756.62,757.97,759.89,-77.64,-956.05,354.98,-0.28,-2.35,-1.91,-121.69
47658,761.74,763.25,756.69,757.91,759.90,-62.99,-951.66,351.07,-1.51,-0.92,-0.01,-119.09
47695,761.81,763.33,756.66,757.94,759.93,-65.92,-955.57,370.12,-1.71,-1.24,0.61,-121.08
47731,761.81,763.20,756.60,758.02,759.91,-77.64,-971.68,338.38,-1.38,-0.70,-1.87,-122.86
47770,761.77,763.16,756.73,757.94,759.90,-62.99,-965.82,348.14,-0.31,-1.44,-0.27,-118.07
47807,761.82,763.14,756.63,757.95,759.89,-67.38,-953.61,360.35,-0.80,1.41,0.16,-120.79
47843,761.83,763.14,756.69,757.87,759.88,-67.87,-954.59,348.63,0.13,2.85,-0.94,-117.95
47880,761.81,763.06,756.65,757.94,759.87,-63.48,-956.54,343.26,-0.41,-0.89,0.27,-119.27
47917,761.84,763.22,756.66,757.94,759.92,-66.89,-958.98,343.26,1.86,0.69,-0.07,-120.38
47953,761.76,763.19,756.66,757.99,759.90,-72.75,-950.20,352.05,0.16,-0.35,-1.24,-120.74
47992,761.87,763.22,756.62,757.98,759.92,-67.38,-963.38,345.21,-0.66,1.25,-0.80,-122.07
48029,761.89,763.21,756.67,758.01,759.95,-69.82,-959.96,349.12,0.62,-0.21,-0.40,-121.39
48066,761.80,763.15,756.67,758.03,759.91,-72.75,-953.12,343.26,0.63,-0.05,-1.69,-120.92
48102,761.82,763.26,756.63,757.97,759.92,-62.99,-964.36,341.31,0.25,-1.63,-0.05,-121.96
48139,761.82,763.15,756.62,757.99,759.89,-69.82,-954.59,350.59,-0.16,1.44,0.65,-121.73
48175,761.82,763.19,756.68,758.13,759.95,-58.59,-967.77,339.84,0.27,2.19,-1.85,-122.48
48214,761.83,763.17,756.58,757.93,759.88,-73.73,-966.31,349.61,-0.49,-1.60,-1.55,-121.85
48251,761.90,763.14,756.67,757.99,759.92,-56.64,-953.61,351.07,-0.23,0.50,-0.41,-120.60
48288,761.78,763.13,756.65,757.92,759.87,-53.22,-957.52,354.49,-0.98,-0.05,-0.35,-119.54
48324,761.88,763.22,756.69,757.95,759.93,-56.15,-959.47,353.03,-0.92,-0.77,-1.60,-120.17
48360,761.88,763.18,756.73,757.92,759.93,-67.38,-948.73,348.14,0.36,0.51,0.51,-118.33
48396,761.85,763.19,756.66,757.89,759.90,-79.59,-956.54,358.40,2.80,2.09,-0.66,-119.42
48436,761.91,763.25,756.62,757.94,759.93,-73.73,-949.22,348.14,0.76,2.36,-2.01,-121.84
48472,761.86,763.15,756.73,757.99,759.93,-69.34,-953.12,356.93,-0.55,-1.74,1.55,-119.03
48508,761.94,763.17,756.71,757.88,759.92,-57.62,-962.40,342.77,1.14,0.63,-0.41,-118.39
48544,761.83,763.15,756.66,757.93,759.89,-65.92,-952.64,340.82,-0.51,1.90,-0.50,-119.58
48581,761.79,763.22,756.68,757.95,759.91,-77.64,-958.98,354.00,1.28,-0.57,1.84,-119.83
48619,761.87,763.20,756.68,757.97,759.93,-68.85,-961.91,351.56,-0.14,2.20,-3.10,-120.43
48656,761.85,763.24,756.72,757.97,759.95,-72.75,-950.20,352.05,1.14,1.27,1.42,-119.62
48692,761.82,763.25,756.70,757.99,759.94,-75.20,-965.33,355.47,-0.76,-0.73,-1.76,-120.46
48729,761.91,763.18,756.66,757.99,759.94,-79.10,-956.05,353.03,-0.15,2.74,0.49,-121.19
48765,761.91,763.25,756.66,757.92,759.94,-70.80,-953.61,348.14,-0.60,-0.43,-0.62,-120.71
48802,761.82,763.18,756.67,758.04,759.93,-72.75,-950.68,348.63,-1.08,1.51,-2.21,-121.24
48841,761.80,763.20,756.66,757.93,759.90,-70.31,-957.52,358.40,-0.79,1.26,1.08,-120.13
48877,761.78,763.22,756.69,757.98,759.92,-71.78,-958.50,336.43,-0.96,1.50,-0.12,-120.18
48914,761.85,763.15,756.76,758.01,759.94,-65.43,-952.64,339.36,0.67,3.13,-0.11,-118.47
48950,761.79,763.24,756.73,758.03,759.95,-73.24,-969.24,346.19,-0.31,-4.27,-2.11,-119.97
48986,761.83,763.26,756.79,758.07,759.99,-72.75,-956.54,353.52,-0.62,-1.70,0.12,-119.46
49023,761.87,763.22,756.72,757.98,759.95,-72.27,-965.33,352.54,-0.37,-0.05,-1.01,-119.69
49062,761.87,763.22,756.69,758.01,759.95,-72.27,-968.26,349.61,-0.31,-0.47,-2.85,-120.94
49099,761.77,763.12,756.69,758.03,759.90,-71.29,-960.45,339.36,-1.15,1.53,-1.62,-120.01
49135,761.79,763.24,756.66,758.00,759.92,-58.59,-960.45,346.19,-1.57,-2.79,-2.28,-121.23
49172,761.92,763.17,756.66,758.07,759.95,-64.45,-958.01,351.07,-1.31,2.74,-1.27,-122.33
49208,761.83,763.15,756.67,758.03,759.92,-60.55,-965.33,351.07,0.41,-0.88,-0.21,-121.11
49245,761.78,763.23,756.69,758.03,759.93,-62.50,-960.94,344.24,-0.91,1.79,-1.78,-121.08
49284,761.84,763.25,756.70,757.95,759.93,-83.98,-957.03,349.61,-0.08,-1.95,0.23,-119.67
49320,761.86,763.19,756.74,757.95,759.93,-69.34,-953.12,346.19,0.39,0.79,-0.47,-118.36
49357,761.87,763.12,756.71,757.99,759.92,-69.82,-956.54,355.96,-2.57,0.97,-1.36,-119.40
49393,761.91,763.21,756.69,758.03,759.96,-68.85,-954.10,363.77,-2.06,2.34,-0.64,-121.26
49430,761.89,763.21,756.69,758.01,759.95,-68.85,-945.31,348.14,-1.11,0.05,-3.63,-120.88
49469,761.79,763.19,756.67,757.95,759.90,-66.89,-955.57,350.10,-0.11,1.44,1.81,-119.85
49505,761.79,763.30,756.70,758.05,759.96,-91.80,-958.50,356.45,-2.38,3.34,-1.50,-121.55
49542,761.86,763.16,756.70,758.01,759.93,-68.36,-958.50,341.31,-0.44,0.58,0.10,-120.02
49578,761.86,763.22,756.70,758.03,759.95,-73.24,-951.17,349.61,-0.53,1.74,-0.66,-120.81
49615,761.83,763.24,756.72,758.00,759.95,-67.38,-960.45,346.19,-0.43,-0.66,-0.34,-119.94
49651,761.93,763.25,756.69,758.03,759.98,-69.34,-955.57,349.12,-0.58,-0.54,-0.86,-121.62
49695,761.89,763.20,756.72,758.00,759.95,-65.43,-952.64,337.89,-0.61,-3.53,-2.03,-119.83
49731,761.84,763.34,756.68,758.01,759.97,-82.03,-966.31,322.27,0.39,0.48,-0.10,-121.84
49767,761.83,763.26,756.77,758.03,759.97,-61.04,-962.89,354.49,-1.47,-0.17,-1.75,-119.43
49804,761.87,763.22,756.75,757.93,759.94,-68.85,-965.82,351.56,-0.34,0.85,-2.98,-118.17
49840,761.87,763.19,756.67,758.09,759.95,-65.92,-952.64,351.56,2.47,2.82,-1.44,-122.29
49877,761.90,763.22,756.66,758.04,759.96,-79.59,-955.08,345.70,-0.66,-1.33,0.37,-122.21
49917,761.87,763.21,756.76,758.10,759.98,-64.45,-941.89,343.26,-0.91,-0.10,-1.83,-120.49
49953,761.83,763.24,756.72,758.03,759.96,-74.71,-955.57,344.73,-1.38,0.57,0.54,-120.39
49990,761.89,763.13,756.70,757.91,759.91,-71.29,-951.17,349.61,-0.02,1.43,0.26,-118.52
50026,761.88,763.12,756.71,757.94,759.91,-67.87,-958.98,330.57,0.02,1.72,-0.56,-118.51
50062,761.91,763.23,756.67,757.98,759.95,-79.10,-965.33,338.87,0.50,0.05,-1.28,-121.14
