currTime,s1,s2,s3,s4,s,AccX,AccY,AccZ,GyroX,GyroY,GyroZ
23,14.94,14.68,14.61,14.67,14.73,-368.65,-788.09,480.96,6.59,-23.27,-2.98
53,14.94,14.68,14.61,14.68,14.73,-293.95,-1086.91,201.17,23.77,-9.69,-1.63
84,14.94,14.68,14.61,14.67,14.73,-193.85,-769.04,508.30,21.72,4.30,-2.59
115,14.94,14.68,14.61,14.68,14.73,-242.68,-892.58,434.08,-8.89,7.57,-0.76
145,14.94,14.68,14.61,14.68,14.73,-224.61,-912.60,382.81,0.44,0.03,-2.56
176,14.94,14.68,14.61,14.68,14.73,-240.23,-909.67,413.09,4.24,0.22,-1.54
207,14.94,14.68,14.61,14.68,14.73,-240.72,-908.69,398.44,-0.35,0.63,-0.88
238,14.93,14.68,14.61,14.68,14.72,-240.23,-922.36,400.39,2.03,0.96,-3.05
268,14.93,14.68,14.61,14.67,14.72,-220.21,-899.90,414.55,1.28,2.82,-1.74
299,14.93,14.68,14.61,14.67,14.72,-231.45,-906.74,396.48,-1.98,-2.39,-1.56
330,14.93,14.68,14.61,14.67,14.72,-229.98,-931.64,389.65,3.08,1.83,-3.34
362,14.92,14.68,14.61,14.68,14.72,-243.16,-886.72,404.79,3.18,2.80,0.07
392,14.92,14.68,14.61,14.68,14.72,-239.26,-896.00,417.97,-1.61,-1.55,0.28
423,14.92,14.68,14.61,14.68,14.72,-236.33,-919.43,401.37,-0.99,-0.56,-2.66
454,14.92,14.68,14.61,14.68,14.72,-221.19,-910.16,412.11,1.59,-0.05,-3.40
485,14.93,14.68,14.61,14.68,14.72,-220.21,-903.32,416.99,-7.21,3.35,1.09
516,14.94,14.68,14.61,14.68,14.73,-238.77,-932.62,400.39,-3.99,1.17,-1.82
547,14.94,14.68,14.61,14.68,14.73,-241.21,-918.46,396.48,-2.85,0.95,7.50
578,14.95,14.68,14.61,14.68,14.73,-236.82,-926.76,398.44,-2.27,1.22,1.96
609,14.95,14.68,14.61,14.68,14.73,-233.40,-912.60,399.41,1.86,1.82,1.14
640,14.95,14.68,14.61,14.68,14.73,-224.61,-906.74,393.55,-0.11,-0.72,1.15
671,14.95,14.68,14.61,14.68,14.73,-239.75,-937.99,394.04,-2.69,-0.35,-0.60
702,14.95,14.68,14.61,14.68,14.73,-237.79,-916.50,397.95,-1.21,-0.06,0.78
733,14.95,14.68,14.61,14.68,14.73,-223.63,-912.11,394.53,-3.09,-0.05,-0.95
764,14.95,14.68,14.61,14.68,14.73,-239.26,-915.53,402.34,-1.02,-1.72,-1.64
795,14.94,14.68,14.61,14.68,14.73,-251.46,-905.27,395.51,-2.22,-2.66,-1.14
826,14.94,14.68,14.61,14.68,14.73,-202.15,-941.41,387.21,0.50,2.98,-1.45
857,14.93,14.68,14.61,14.68,14.73,-246.58,-912.60,389.16,-0.21,-1.67,-1.37
888,14.93,14.68,14.61,14.68,14.72,-229.00,-897.95,414.06,-1.00,2.97,0.20
919,14.92,14.68,14.61,14.68,14.72,-225.10,-925.78,376.95,0.67,3.10,-0.37
950,14.91,14.68,14.61,14.68,14.72,-228.52,-927.25,377.93,-1.73,0.05,0.69
981,14.90,14.68,14.61,14.67,14.72,-241.70,-907.71,387.21,0.95,2.26,0.02
1012,14.90,14.68,14.61,14.67,14.71,-226.07,-929.20,394.53,0.99,2.31,0.44
1043,14.89,14.68,14.61,14.67,14.71,-244.63,-911.13,374.02,1.34,-3.13,-0.55
1074,14.88,14.68,14.61,14.67,14.71,-233.89,-922.36,380.86,3.53,-3.72,-0.77
1105,14.87,14.68,14.61,14.67,14.71,-239.26,-916.02,380.37,5.50,-1.61,-0.31
1136,14.86,14.68,14.60,14.67,14.70,-232.42,-922.85,397.46,4.85,-1.35,-0.34
1167,14.85,14.68,14.60,14.67,14.70,-227.54,-905.27,406.74,2.66,-0.75,-1.63
1198,14.84,14.68,14.60,14.66,14.70,-233.40,-924.32,416.99,3.24,1.64,0.13
1229,14.83,14.68,14.60,14.66,14.69,-238.28,-905.27,410.16,4.18,-1.07,-0.95
1260,14.82,14.68,14.60,14.66,14.69,-232.91,-911.62,407.23,5.01,-3.56,-0.65
1291,14.80,14.68,14.60,14.66,14.69,-232.42,-913.57,402.83,4.91,-3.11,-2.99
1322,14.79,14.68,14.60,14.66,14.68,-229.00,-914.06,408.69,6.95,-1.72,-1.47
1353,14.78,14.68,14.60,14.65,14.68,-229.49,-896.97,420.90,5.60,1.69,0.03
1384,14.77,14.68,14.60,14.65,14.67,-220.70,-916.02,416.02,8.22,0.92,0.21
1415,14.76,14.68,14.60,14.65,14.67,-232.42,-905.27,418.95,9.85,1.45,-1.28
1446,14.75,14.68,14.59,14.65,14.67,-239.26,-891.11,432.13,9.87,2.67,-0.71
1477,14.74,14.68,14.59,14.64,14.66,-218.75,-952.64,435.06,10.21,1.14,-0.59
1507,14.72,14.69,14.59,14.64,14.66,-332.52,-902.34,293.95,6.66,12.76,9.35
1538,14.70,14.69,14.59,14.64,14.66,-270.02,-1033.20,282.23,-49.52,-35.60,35.43
1568,14.67,14.69,14.59,14.64,14.65,-127.44,-1129.39,316.41,-40.85,-38.70,47.47
1599,14.63,14.69,14.59,14.64,14.64,342.77,-601.07,371.09,-61.88,-26.48,36.32
1629,14.61,14.69,14.59,14.64,14.63,183.11,-1291.99,367.19,-86.57,55.35,4.04
1660,14.61,14.69,14.59,14.64,14.63,198.73,-1179.69,480.96,-83.53,100.36,-26.28
1691,14.60,14.69,14.59,14.64,14.63,-44.92,-1124.02,537.60,53.39,65.86,-21.61
1721,14.60,14.69,14.59,14.64,14.63,-46.39,-828.61,456.05,62.80,41.52,-37.24
1752,14.60,14.69,14.59,14.64,14.63,-119.14,-956.54,441.89,45.01,16.73,-53.24
1783,14.60,14.69,14.59,14.64,14.63,-130.86,-987.30,453.61,45.31,-7.93,-47.05
1813,14.60,14.69,14.59,14.64,14.63,-60.06,-885.25,412.60,46.04,-20.37,-51.10
1844,14.59,14.69,14.59,14.64,14.63,-93.75,-951.66,403.32,30.75,-7.44,-68.66
1875,14.60,14.69,14.59,14.64,14.63,-135.74,-966.31,364.75,41.10,3.68,-70.28
1905,14.59,14.69,14.59,14.64,14.63,-202.15,-885.25,304.69,47.02,12.44,-72.13
1936,14.59,14.69,14.59,14.64,14.63,-299.80,-942.87,253.42,40.90,6.93,-78.51
1967,14.59,14.69,14.59,14.64,14.63,-282.71,-795.41,207.03,28.92,1.44,-69.81
1998,14.60,14.69,14.59,14.64,14.63,-334.47,-913.09,196.78,-3.99,7.11,-60.98
2029,14.59,14.69,14.59,14.64,14.63,-427.25,-875.00,175.78,-0.39,19.32,-40.03
2060,14.59,14.69,14.59,14.64,14.63,-471.68,-730.47,146.48,-17.00,28.18,-37.36
2091,14.59,14.70,14.59,14.65,14.63,-528.32,-747.56,155.76,-36.11,33.63,-30.94
2122,14.60,14.69,14.59,14.65,14.63,-296.87,-2000.00,1999.94,-85.53,48.92,2.98
2153,14.59,14.69,14.59,14.65,14.63,-2000.00,-2000.00,1942.87,-73.03,90.94,-1.74
2184,14.64,14.70,14.59,14.65,14.65,144.53,-1103.03,1827.15,-51.22,16.84,-14.78
2215,14.60,14.69,14.59,14.65,14.63,35.16,-526.37,660.16,-87.22,69.54,-1.99
2246,14.60,14.69,14.59,14.65,14.63,-201.17,-982.91,369.63,0.95,-12.51,-3.94
2277,14.60,14.69,14.59,14.66,14.64,141.60,-1004.88,569.34,38.89,10.51,-4.15
2308,14.61,14.69,14.59,14.66,14.64,-34.67,-718.75,500.49,45.89,-6.03,-2.20
2339,14.61,14.69,14.59,14.66,14.64,-6.35,-790.53,563.96,-9.15,4.33,-6.77
2370,14.61,14.69,14.60,14.67,14.64,-12.70,-942.87,457.03,7.55,6.05,-3.11
2401,14.60,14.70,14.60,14.67,14.64,-15.63,-913.09,452.15,2.62,8.03,-11.22
2432,14.60,14.70,14.60,14.68,14.64,39.55,-877.93,492.19,17.41,24.62,-18.05
2463,14.61,14.70,14.60,14.68,14.65,-24.41,-845.21,559.08,26.69,31.74,-19.22
2494,14.62,14.70,14.60,14.69,14.65,-48.83,-844.73,593.75,0.99,29.76,-18.08
2525,14.62,14.70,14.60,14.69,14.65,-111.33,-863.28,555.66,7.59,11.78,-7.25
2556,14.63,14.70,14.60,14.68,14.65,-0.98,-630.86,530.27,9.53,-10.31,3.74
2587,14.66,14.70,14.60,14.67,14.66,62.50,-774.41,578.61,-29.33,-2.37,24.39
2618,14.74,14.70,14.60,14.67,14.68,-181.64,-978.03,311.52,8.37,26.78,17.11
2649,14.81,14.70,14.60,14.67,14.70,-113.28,-935.06,496.09,4.36,-10.05,1.95
2680,14.90,14.71,14.60,14.67,14.72,-9.77,-776.86,660.64,11.80,-2.61,-0.35
2711,15.06,14.72,14.60,14.67,14.76,-108.89,-912.11,518.55,7.55,9.47,1.89
2742,15.20,14.72,14.60,14.68,14.80,-45.41,-856.93,583.01,13.05,0.44,-1.37
2773,15.31,14.72,14.60,14.69,14.83,-61.04,-847.17,565.43,12.83,-1.51,-2.63
2804,15.38,14.72,14.60,14.69,14.85,-28.32,-847.17,589.36,4.12,-0.13,-4.74
2835,15.44,14.73,14.60,14.68,14.86,-42.48,-854.49,586.91,-2.57,3.62,-2.05
2866,15.47,14.73,14.60,14.68,14.87,-52.25,-835.94,571.78,-9.59,4.47,-1.85
2897,15.48,14.73,14.60,14.68,14.87,-42.97,-853.52,555.18,-5.18,5.52,-6.49
2928,15.49,14.73,14.60,14.67,14.87,-12.21,-825.20,616.21,-11.88,8.84,-4.40
2959,15.54,14.74,14.60,14.66,14.88,-26.37,-851.07,584.96,-22.47,13.42,-5.24
2990,15.54,14.74,14.60,14.65,14.88,-66.89,-843.75,535.64,-32.02,24.69,-9.11
3021,15.55,14.75,14.60,14.65,14.89,10.74,-785.64,646.00,-28.15,38.02,-12.88
3052,15.54,14.75,14.60,14.65,14.88,127.44,-1003.42,677.73,-24.31,96.66,-25.10
3083,15.44,14.74,14.60,14.65,14.85,-172.36,-733.89,383.30,38.31,98.26,-77.84
3114,15.35,14.73,14.59,14.65,14.83,346.68,-937.50,818.36,21.21,102.49,-48.38
3144,15.24,14.72,14.59,14.65,14.80,-56.15,-785.64,581.05,-104.92,131.08,12.07
3174,15.15,14.72,14.59,14.65,14.78,-136.23,-881.84,441.41,-18.27,113.23,-4.02
3205,15.06,14.71,14.59,14.64,14.75,-169.92,-678.22,456.54,13.09,130.21,-52.15
3235,15.00,14.71,14.59,14.64,14.74,120.12,-1087.40,661.62,2.06,157.66,-81.87
3266,14.95,14.71,14.59,14.64,14.72,55.66,-977.05,524.41,21.69,187.01,-46.10
3296,14.89,14.70,14.59,14.64,14.71,-131.35,-700.20,505.86,32.69,204.11,-81.42
3327,14.84,14.70,14.59,14.64,14.69,-249.02,-648.44,324.71,42.34,208.50,-142.90
3358,14.85,14.70,14.59,14.64,14.70,-296.39,-1168.95,396.97,-5.66,200.07,-151.77
3389,14.87,14.70,14.59,14.64,14.70,145.02,-1302.25,337.40,10.82,194.70,-72.34
3419,14.84,14.70,14.59,14.64,14.69,-118.65,-851.07,430.18,7.43,188.14,-60.86
3450,14.78,14.70,14.59,14.64,14.68,-95.70,-915.53,393.55,29.47,196.75,-78.18
3481,14.74,14.70,14.59,14.65,14.67,-80.08,-888.67,410.64,43.56,203.85,-91.46
3511,14.73,14.70,14.59,14.64,14.67,-128.91,-887.21,327.15,38.50,192.04,-105.93
3542,14.73,14.70,14.59,14.64,14.67,-125.98,-956.05,283.20,36.50,161.71,-105.19
3573,14.74,14.70,14.59,14.64,14.67,31.25,-1007.32,425.78,13.76,139.29,-95.75
3604,14.76,14.70,14.59,14.64,14.67,60.55,-1096.68,407.23,8.72,145.10,-67.94
3635,14.75,14.70,14.59,14.64,14.67,33.69,-845.21,282.23,39.02,147.15,-88.44
3666,14.76,14.70,14.59,14.65,14.67,55.66,-1201.66,288.57,43.39,136.53,-112.91
3697,14.79,14.70,14.59,14.65,14.68,-224.61,-942.87,446.29,64.75,143.49,-81.85
3728,14.87,14.71,14.59,14.66,14.71,-655.76,-976.07,249.02,39.42,88.70,-77.08
3759,14.99,14.71,14.60,14.68,14.74,184.08,-1098.14,279.79,98.68,-114.15,2.05
3790,15.18,14.71,14.60,14.70,14.80,-416.02,-1246.58,244.63,21.59,-11.28,-3.16
3823,15.36,14.71,14.61,14.72,14.85,-5.86,-898.44,511.72,12.81,-2.27,14.43
3854,15.54,14.70,14.62,14.74,14.90,-60.06,-807.62,662.11,12.08,-16.79,5.25
3885,15.68,14.70,14.63,14.76,14.94,-47.36,-799.32,636.72,-0.07,-2.54,0.14
3916,15.75,14.71,14.64,14.83,14.98,-89.36,-833.98,546.39,20.09,3.17,-10.55
3947,15.66,14.71,14.66,14.94,14.99,18.55,-831.05,717.77,39.83,-2.80,-20.36
3978,15.34,14.72,14.69,15.07,14.95,-45.41,-934.08,626.95,-17.85,-5.08,-25.76
4009,15.00,14.73,14.73,15.15,14.90,-48.83,-902.34,440.43,18.30,3.98,-37.81
4040,14.83,14.74,14.76,15.20,14.88,299.32,-750.00,396.00,14.66,27.20,-45.91
4071,14.78,14.74,14.78,15.25,14.89,3.42,-931.15,508.79,1.56,54.91,-46.24
4102,14.81,14.74,14.78,15.25,14.90,-48.83,-729.00,675.78,25.05,54.92,-41.92
4133,14.95,14.74,14.76,15.17,14.90,-86.91,96.19,858.40,36.82,-3.76,-8.20
4164,15.31,14.73,14.71,15.05,14.95,291.50,-1740.23,1959.96,-67.60,68.13,59.80
4195,15.93,14.73,14.68,14.96,15.07,-60.55,-302.25,33.20,-30.82,-0.05,1.00
4226,16.28,14.73,14.67,14.89,15.14,139.65,-801.76,487.30,-8.02,-10.26,-12.51
4257,16.47,14.73,14.66,14.84,15.17,23.44,-872.07,624.02,-17.76,-4.23,4.31
4288,16.59,14.73,14.65,14.82,15.20,-79.59,-846.68,581.05,-21.28,9.84,2.20
4319,16.63,14.73,14.65,14.82,15.21,-50.29,-846.68,548.83,-9.24,10.61,-1.31
4350,16.63,14.73,14.64,14.83,15.21,-54.69,-856.45,546.39,4.57,2.07,-2.01
4381,16.59,14.73,14.65,14.83,15.20,-54.20,-853.03,563.96,10.32,-3.80,-3.43
4412,16.55,14.73,14.65,14.84,15.19,-62.99,-840.82,566.89,2.63,1.04,-1.77
4443,16.51,14.73,14.65,14.84,15.18,-80.57,-859.37,574.22,8.21,3.39,-0.44
4474,16.47,14.73,14.65,14.86,15.18,-39.06,-839.84,582.52,9.79,1.46,-4.09
4505,16.39,14.74,14.65,14.87,15.16,-51.27,-842.77,611.33,7.50,-3.40,-3.18
4536,16.33,14.74,14.65,14.89,15.15,-35.16,-820.31,610.35,0.90,1.15,0.20
4567,16.23,14.74,14.64,14.95,15.14,-61.04,-857.42,557.13,5.07,-2.65,-1.58
4598,16.09,14.75,14.64,15.00,15.12,-47.36,-842.77,590.33,14.49,-7.65,-1.05
4629,15.95,14.75,14.65,15.06,15.10,-29.30,-822.75,615.72,10.53,-4.38,-4.25
4660,15.84,14.76,14.65,15.11,15.09,-47.36,-820.80,608.89,1.86,1.32,-4.20
4691,15.66,14.76,14.66,15.19,15.07,-33.69,-825.68,603.52,2.00,-2.47,-0.37
4722,15.47,14.76,14.68,15.28,15.05,-27.83,-840.82,611.82,5.03,-5.85,-2.97
4753,15.34,14.77,14.69,15.36,15.04,-19.53,-845.70,593.26,6.21,-8.03,-8.62
4783,15.20,14.77,14.70,15.42,15.03,-52.25,-815.43,614.26,-8.50,-0.03,-11.24
4814,15.01,14.77,14.72,15.48,14.99,-30.27,-867.19,611.33,-17.63,-0.78,-15.27
4844,14.82,14.77,14.74,15.52,14.96,-45.90,-911.13,509.77,-28.82,-2.28,-23.39
4875,14.68,14.76,14.75,15.52,14.93,121.09,-950.20,480.96,-27.24,-0.69,-31.21
4905,14.63,14.75,14.76,15.46,14.90,-40.04,-991.21,549.32,-50.23,13.05,-63.89
4936,14.61,14.73,14.77,15.32,14.86,160.16,-1212.40,432.62,-106.77,32.06,-122.26
4966,14.60,14.72,14.75,15.10,14.80,19.04,-1203.61,576.17,-100.91,59.11,-173.60
4997,14.60,14.71,14.70,14.91,14.73,-169.43,-1337.40,463.38,-157.94,85.30,-215.63
5028,14.60,14.70,14.66,14.81,14.69,-81.05,-1096.19,496.09,-111.02,54.41,-250.14
5058,14.59,14.70,14.62,14.73,14.66,-325.20,-736.33,244.63,-126.23,76.99,-250.14
5089,14.59,14.71,14.60,14.68,14.65,-341.31,-1661.62,612.79,-113.37,153.48,-218.19
5120,14.59,14.71,14.60,14.67,14.64,-828.12,-964.84,463.38,-33.93,142.85,-102.17
5150,14.59,14.70,14.60,14.67,14.64,-649.41,-332.52,181.15,-50.22,179.04,4.91
5181,14.59,14.70,14.59,14.67,14.64,-702.64,-571.78,370.12,-86.71,148.69,25.82
5212,14.58,14.70,14.59,14.67,14.64,-520.51,-480.47,520.51,-73.40,108.24,51.75
5243,14.58,14.70,14.59,14.67,14.64,-348.14,-674.32,645.02,-58.28,118.10,73.69
5274,14.58,14.70,14.60,14.67,14.64,-194.82,-761.23,730.96,-29.99,170.15,82.86
5305,14.58,14.70,14.59,14.67,14.64,-261.23,-833.50,826.17,-34.16,218.01,104.41
5336,14.58,14.70,14.59,14.67,14.64,-298.34,-925.78,905.76,-31.91,224.44,105.44
5367,14.58,14.70,14.59,14.67,14.64,-246.09,-948.73,1112.30,-29.54,218.98,95.66
5398,14.58,14.70,14.59,14.67,14.64,-279.30,-1092.29,1230.47,-12.15,207.65,86.10
5429,14.58,14.70,14.59,14.67,14.64,-127.44,-1099.12,1125.49,-5.80,203.74,81.69
5460,14.58,14.70,14.59,14.67,14.64,-1729.49,-2000.00,1999.94,-234.51,250.13,27.85
5491,14.58,14.70,14.59,14.67,14.64,-21.00,-1835.45,709.47,124.92,148.71,91.43
5522,14.58,14.70,14.59,14.67,14.64,334.47,-1206.54,871.58,-65.36,195.24,51.82
5553,14.58,14.70,14.59,14.67,14.63,509.77,-917.48,825.20,-4.11,176.35,34.95
5584,14.58,14.70,14.59,14.66,14.63,597.66,-1000.49,896.48,-16.12,137.69,-16.73
5615,14.58,14.70,14.59,14.66,14.63,791.02,-1170.90,886.23,98.50,43.11,-63.21
5646,14.59,14.70,14.59,14.66,14.64,697.75,-994.63,656.25,142.55,-43.60,-96.41
5677,14.70,14.71,14.59,14.66,14.66,-626.95,-1275.39,-429.20,-44.21,-151.74,-92.13
5708,15.06,14.71,14.59,14.66,14.76,-105.96,-335.94,1310.55,170.92,-207.37,-152.46
5739,15.58,14.72,14.59,14.66,14.89,205.57,-2000.00,-109.37,141.31,41.11,-94.03
5770,16.06,14.72,14.60,14.67,15.01,918.95,421.87,-2000.00,46.74,-74.80,-90.76
5801,16.45,14.72,14.61,14.71,15.12,-368.65,-750.00,808.59,57.21,21.25,14.15
5832,16.62,14.73,14.61,14.73,15.17,29.79,-806.64,734.37,22.69,11.73,-6.05
5863,16.70,14.73,14.61,14.74,15.20,-33.20,-786.62,667.97,2.27,-4.74,-2.65
5894,16.73,14.74,14.61,14.74,15.20,-62.50,-735.35,708.50,-13.11,12.40,-2.98
5925,16.66,14.74,14.61,14.74,15.19,-37.60,-842.29,579.10,-24.50,21.61,-6.30
5956,16.52,14.75,14.61,14.76,15.16,-32.71,-870.61,575.20,-17.05,6.24,-4.92
5987,16.39,14.75,14.62,14.80,15.14,-40.53,-820.31,606.45,-3.98,-2.15,-2.01
6018,16.27,14.76,14.62,14.84,15.12,-35.16,-819.34,632.32,1.51,-1.38,-2.18
6049,16.17,14.76,14.63,14.89,15.11,-42.48,-827.64,586.91,3.93,-2.85,-1.98
6080,16.10,14.76,14.64,14.94,15.11,-31.74,-816.41,627.44,3.99,-1.74,-0.34
6110,15.96,14.77,14.65,15.01,15.10,-10.74,-827.15,624.51,7.33,-8.58,-3.36
6142,15.75,14.77,14.66,15.07,15.06,-30.76,-822.27,599.12,4.12,-7.37,-1.07
6173,15.58,14.78,14.67,15.13,15.04,-10.25,-803.22,626.95,-2.77,-1.02,-5.92
6203,15.42,14.78,14.68,15.19,15.02,-29.79,-822.27,618.65,-8.09,-2.42,-7.12
6234,15.26,14.78,14.70,15.27,15.00,-13.67,-835.45,598.63,-7.77,-2.41,-8.72
6266,15.12,14.78,14.71,15.34,14.99,-38.09,-875.98,591.80,-16.50,-5.91,-13.27
6296,14.99,14.78,14.74,15.43,14.98,-39.06,-856.45,625.49,8.73,0.05,-22.76
6327,14.85,14.78,14.78,15.48,14.97,25.88,-823.24,575.20,-12.32,-4.28,-20.26
6358,14.74,14.77,14.82,15.51,14.96,12.70,-811.52,582.52,-14.18,-11.81,-14.32
6389,14.67,14.77,14.85,15.51,14.95,14.65,-909.67,663.09,-7.14,-10.14,-21.19
6419,14.64,14.76,14.89,15.48,14.94,-85.45,-861.33,687.01,-48.75,-27.49,-35.35
6450,14.62,14.75,14.92,15.41,14.92,26.37,-906.25,744.14,-56.61,-33.09,-45.95
6480,14.61,14.74,14.94,15.31,14.90,30.76,-952.64,623.54,-68.02,-48.54,-62.49
6511,14.60,14.73,14.95,15.20,14.87,57.62,-1008.79,532.71,-70.39,-53.42,-80.08
6541,14.60,14.73,14.92,15.10,14.84,20.51,-1221.68,539.06,-66.47,-59.08,-119.20
6571,14.60,14.73,14.87,15.02,14.80,92.29,-1207.03,473.14,-61.09,-50.85,-166.02
6603,14.60,14.73,14.79,14.92,14.76,225.59,-1285.16,529.79,-70.17,-12.61,-214.11
6633,14.60,14.72,14.72,14.81,14.71,393.07,-1108.40,353.03,-66.80,-26.01,-236.11
6664,14.60,14.72,14.66,14.71,14.67,338.38,-1658.20,577.15,3.21,-13.69,-239.76
6694,14.59,14.72,14.61,14.67,14.65,57.13,-1423.83,428.71,86.19,-30.76,-215.15
6725,14.58,14.71,14.60,14.66,14.64,583.01,-503.42,401.86,55.63,-10.52,-162.84
6756,14.59,14.71,14.60,14.66,14.64,154.79,-632.81,186.04,26.70,144.03,57.89
6787,14.58,14.70,14.60,14.66,14.64,-318.85,-750.00,147.46,54.10,155.38,140.89
6817,14.58,14.70,14.60,14.66,14.64,-340.33,-477.05,197.75,58.39,68.60,107.50
6849,14.58,14.70,14.60,14.66,14.64,-58.11,-272.95,206.54,-12.79,50.05,115.82
6880,14.58,14.70,14.60,14.66,14.63,-86.43,-587.40,339.36,-37.11,33.93,118.82
6910,14.58,14.70,14.60,14.66,14.64,26.86,-639.65,386.72,-29.51,40.02,131.75
6941,14.58,14.70,14.60,14.66,14.64,59.08,-659.67,433.11,-49.02,77.74,154.40
6972,14.58,14.70,14.60,14.66,14.64,37.60,-792.48,453.61,-37.27,80.36,144.91
7003,14.58,14.70,14.60,14.66,14.63,32.23,-720.21,405.27,-41.66,62.35,126.63
7034,14.58,14.70,14.60,14.66,14.64,187.50,-949.22,540.53,-64.24,21.63,113.81
7065,14.58,14.70,14.60,14.66,14.64,488.77,-977.05,719.73,-68.40,16.70,129.27
7096,14.58,14.70,14.60,14.66,14.64,487.30,-1065.92,881.35,-84.95,62.82,128.27
7127,14.58,14.70,14.60,14.66,14.63,420.41,-1281.74,833.50,-38.69,67.60,106.76
7158,14.58,14.70,14.60,14.66,14.63,619.14,-1313.96,670.90,-14.60,59.02,76.81
7189,14.58,14.70,14.60,14.66,14.63,723.14,-978.52,620.12,-28.69,79.53,58.77
7220,14.58,14.71,14.60,14.65,14.63,644.04,-895.51,680.18,-78.35,92.47,51.40
7251,14.58,14.71,14.60,14.66,14.63,-17.09,-2000.00,91.80,250.13,-130.07,28.66
7282,14.59,14.71,14.60,14.65,14.64,765.62,-256.84,722.17,156.32,-56.66,-65.02
7313,14.72,14.71,14.60,14.65,14.67,320.80,-801.76,1064.94,9.44,-116.26,-81.23
7344,15.00,14.72,14.60,14.65,14.74,158.69,-1722.17,338.87,59.47,54.06,-102.32
7375,15.29,14.73,14.60,14.67,14.82,105.96,-685.55,983.89,95.94,-74.76,-63.58
7406,15.58,14.73,14.60,14.69,14.90,-78.12,-748.54,937.99,50.66,1.37,24.82
7437,15.81,14.73,14.61,14.71,14.96,22.46,-847.17,648.93,34.36,-0.84,0.37
7468,15.98,14.74,14.61,14.74,15.02,-18.55,-845.21,577.15,23.86,-8.96,-1.44
7499,16.23,14.75,14.61,14.76,15.09,-49.80,-814.94,623.05,10.44,0.01,-1.75
7530,16.46,14.76,14.61,14.78,15.15,-77.64,-881.35,541.99,1.11,4.05,-0.47
7561,16.59,14.76,14.62,14.80,15.19,-49.80,-872.56,539.06,10.89,-1.04,-1.43
7592,16.60,14.76,14.62,14.82,15.20,-57.13,-829.59,582.03,13.14,-5.34,-0.97
7623,16.53,14.76,14.63,14.84,15.19,-27.83,-828.12,604.49,6.14,-5.24,-1.53
7654,16.44,14.76,14.63,14.86,15.17,-36.13,-837.40,596.68,-1.75,0.88,-1.37
7687,16.36,14.76,14.63,14.87,15.15,-63.48,-840.33,587.40,2.62,3.05,-0.62
7718,16.32,14.76,14.63,14.88,15.15,-40.53,-847.17,589.36,3.95,5.99,-0.12
7749,16.34,14.77,14.63,14.88,15.15,-35.16,-824.71,598.63,-1.74,6.56,-2.00
7780,16.34,14.77,14.63,14.88,15.15,-42.97,-833.98,592.29,-7.18,5.97,-2.07
7811,16.32,14.78,14.63,14.88,15.15,-47.36,-851.07,576.66,-3.87,2.19,-1.67
7842,16.31,14.78,14.63,14.88,15.15,-52.25,-854.49,572.75,-0.66,2.89,-1.79
7873,16.29,14.78,14.63,14.89,15.15,-55.18,-849.61,582.03,1.30,-0.18,-1.24
7904,16.28,14.79,14.64,14.89,15.15,-59.08,-832.03,576.17,2.67,-1.13,-0.66
7935,16.26,14.79,14.64,14.90,15.15,-55.18,-816.89,583.50,-1.44,2.50,0.70
7966,16.20,14.79,14.64,14.92,15.14,-49.32,-850.59,581.05,1.87,-2.31,-0.60
7997,16.09,14.80,14.65,14.95,15.12,-37.11,-851.56,575.20,2.34,-1.58,0.68
8028,15.92,14.80,14.65,14.99,15.09,-45.90,-830.57,597.17,3.05,-3.73,-1.40
8058,15.68,14.81,14.66,15.04,15.05,-57.62,-843.26,599.61,-3.85,-5.92,-3.65
8088,15.35,14.81,14.68,15.09,14.98,-105.47,-907.23,554.20,-12.09,-6.95,-4.40
8119,14.95,14.79,14.69,15.12,14.89,-83.01,-843.26,495.12,-27.09,-6.52,-17.79
8149,14.68,14.77,14.70,15.07,14.81,23.44,-942.38,482.42,5.45,-26.21,-32.11
8180,14.62,14.75,14.70,14.97,14.76,-53.71,-1251.95,1217.29,-14.08,-12.51,-69.59
8210,14.61,14.73,14.68,14.84,14.71,-130.86,-971.19,562.01,-105.27,-46.27,-111.09
8241,14.60,14.72,14.64,14.75,14.68,47.85,-1470.70,781.25,-84.47,5.89,-130.35
8272,14.60,14.72,14.62,14.71,14.66,267.58,-952.64,293.95,-6.89,-25.08,-158.52
8302,14.59,14.71,14.60,14.68,14.65,35.16,-1332.03,247.56,18.22,-8.27,-144.06
8333,14.59,14.71,14.59,14.66,14.64,-187.99,-933.59,158.69,60.36,3.64,-131.18
8364,14.59,14.71,14.60,14.66,14.64,-316.89,-541.99,220.21,40.28,53.66,-40.50
8395,14.58,14.70,14.59,14.66,14.63,-493.65,-757.32,40.04,18.57,77.31,42.31
8425,14.58,14.70,14.59,14.66,14.63,-454.59,-540.04,107.42,11.60,38.82,59.00
8456,14.58,14.70,14.59,14.66,14.63,-360.84,-608.40,169.92,-34.40,24.24,82.60
8487,14.58,14.70,14.59,14.66,14.63,-222.66,-738.77,349.61,-63.82,17.02,102.93
8518,14.58,14.70,14.59,14.66,14.63,-89.84,-897.95,547.85,-74.55,38.63,114.35
8549,14.58,14.70,14.59,14.66,14.63,43.95,-1047.36,663.09,-62.17,50.03,115.26
8580,14.58,14.70,14.59,14.66,14.63,202.64,-1168.46,715.33,-42.47,28.92,116.06
8611,14.58,14.70,14.59,14.66,14.63,361.33,-1152.83,647.95,-27.34,-8.47,108.50
8642,14.58,14.70,14.59,14.66,14.63,359.86,-1033.69,612.79,-38.69,-14.69,81.46
8673,14.58,14.70,14.59,14.66,14.63,177.25,-1069.82,665.53,-32.27,-2.75,54.73
8704,14.58,14.70,14.59,14.66,14.63,44.92,-980.96,623.54,-9.25,9.19,44.07
8735,14.58,14.70,14.59,14.66,14.63,262.70,-1873.05,855.47,-24.83,4.19,48.12
8766,14.58,14.70,14.59,14.66,14.63,-46.39,-694.82,649.41,35.05,1.75,13.82
8797,14.57,14.70,14.59,14.65,14.63,75.68,-679.20,547.36,8.56,-0.93,-13.15
8828,14.57,14.70,14.59,14.65,14.63,120.12,-956.54,620.12,-23.49,22.52,-18.06
8859,14.58,14.70,14.59,14.65,14.63,272.95,-737.79,696.29,38.47,22.60,8.82
8890,14.58,14.70,14.59,14.65,14.63,340.82,-1111.82,627.44,21.88,15.25,-17.34
8921,14.58,14.70,14.59,14.65,14.63,281.74,-730.47,426.76,15.48,-27.41,-45.05
8952,14.59,14.70,14.59,14.67,14.64,-41.99,-1189.94,964.84,40.21,-120.74,-59.92
8983,14.62,14.70,14.59,14.66,14.64,307.62,-418.46,633.79,56.27,54.50,-6.91
9014,14.73,14.70,14.60,14.68,14.68,-588.38,-1019.04,616.21,30.44,-52.35,-10.65
9045,14.87,14.71,14.61,14.72,14.73,-182.62,-887.21,558.59,42.12,10.07,-12.60
9076,14.94,14.71,14.62,14.75,14.76,26.37,-1005.86,503.42,22.13,0.97,-5.11
9107,15.04,14.72,14.62,14.79,14.79,-61.52,-807.13,614.26,16.18,-23.92,-5.24
9138,15.20,14.73,14.63,14.83,14.85,-65.92,-823.73,595.21,11.84,2.86,-3.68
9168,15.38,14.74,14.64,14.88,14.91,-32.23,-882.32,514.65,3.84,5.56,-1.82
9200,15.60,14.74,14.64,14.94,14.98,-41.02,-867.68,572.27,8.86,-5.85,-1.11
9230,15.83,14.75,14.65,14.98,15.05,-36.62,-823.24,639.16,16.54,-1.28,-3.40
9261,15.97,14.76,14.65,14.99,15.09,-46.39,-849.12,577.64,1.95,2.40,-4.13
9292,16.05,14.76,14.65,14.99,15.11,-47.36,-837.89,584.47,3.03,0.72,-1.76
9323,16.10,14.76,14.64,14.98,15.12,-51.76,-848.14,587.89,-3.26,5.85,0.15
9354,16.10,14.76,14.64,14.96,15.11,-60.06,-826.17,588.38,-4.76,7.40,-3.12
9385,16.11,14.76,14.64,14.94,15.11,-70.80,-839.36,584.96,-6.31,6.79,-1.19
9416,16.12,14.76,14.64,14.94,15.12,-62.01,-844.73,585.45,-0.64,2.86,-1.27
9447,16.14,14.76,14.64,14.94,15.12,-51.76,-831.54,573.73,3.71,0.82,-0.67
9478,16.17,14.77,14.64,14.94,15.13,-54.20,-831.05,597.66,1.08,0.46,-0.85
9509,16.21,14.77,14.64,14.93,15.14,-57.13,-838.87,579.59,-3.16,1.21,-1.65
9540,16.27,14.77,14.64,14.90,15.14,-34.18,-819.34,591.31,-4.81,7.44,-3.70
9571,16.34,14.77,14.63,14.89,15.16,-58.59,-853.03,548.83,-7.55,6.57,-3.05
9602,16.36,14.77,14.63,14.88,15.16,-69.34,-852.54,573.24,-7.69,4.05,-2.44
9633,16.37,14.77,14.63,14.87,15.16,-72.75,-858.89,562.50,-4.18,1.44,-2.49
9664,16.38,14.77,14.63,14.86,15.16,-63.96,-844.24,566.89,-1.63,2.60,-3.04
9695,16.42,14.77,14.63,14.86,15.17,-53.71,-845.70,558.59,-5.76,5.40,-0.94
9725,16.40,14.77,14.63,14.86,15.17,-54.69,-844.73,581.54,3.24,-0.51,-1.00
9756,16.39,14.77,14.63,14.86,15.16,-51.27,-868.65,600.10,-0.94,-0.10,0.47
9786,16.37,14.77,14.63,14.86,15.16,-52.25,-837.40,594.73,-2.82,0.80,-1.72
9816,16.32,14.77,14.63,14.85,15.14,-55.66,-860.84,567.38,-4.86,-0.53,2.26
9847,16.21,14.76,14.63,14.83,15.11,-61.52,-844.73,576.17,-1.98,1.74,2.86
9877,16.05,14.76,14.62,14.81,15.06,-67.87,-859.37,556.15,-5.03,-5.78,4.18
9908,15.83,14.75,14.62,14.79,15.00,-79.10,-837.40,574.22,-10.29,-2.25,0.72
9939,15.54,14.74,14.61,14.74,14.91,-52.25,-846.68,575.68,-18.37,-0.87,2.41
9970,15.20,14.73,14.61,14.70,14.81,-78.12,-875.00,550.78,-30.40,4.60,0.07
10000,14.91,14.72,14.60,14.68,14.73,-62.99,-870.12,540.04,-21.69,-12.27,-0.72
10031,14.74,14.72,14.60,14.67,14.68,-24.41,-862.30,546.87,-26.56,-11.57,-6.38
10062,14.65,14.71,14.60,14.66,14.66,44.92,-914.06,598.63,-59.69,-1.04,-0.85
10092,14.62,14.71,14.59,14.65,14.65,-285.64,-913.57,509.28,-24.35,27.98,-19.81
10123,14.62,14.71,14.59,14.65,14.64,-262.21,-833.98,473.63,7.60,19.50,-20.50
10154,14.61,14.71,14.59,14.65,14.64,-246.58,-829.59,476.07,6.22,13.29,5.31
10185,14.61,14.71,14.59,14.65,14.64,-96.68,-895.51,486.82,-3.89,1.57,26.60
10216,14.61,14.71,14.59,14.65,14.64,-6.35,-877.93,508.30,0.91,1.04,18.95
10247,14.61,14.71,14.59,14.65,14.64,29.79,-844.24,396.48,0.23,10.11,-5.40
10278,14.60,14.71,14.59,14.65,14.64,108.40,-820.31,390.62,-6.08,11.71,-26.05
10309,14.60,14.70,14.59,14.65,14.64,1203.13,-2000.00,775.39,-56.33,-55.78,-35.66
10340,14.60,14.70,14.59,14.65,14.64,-59.08,-874.02,350.10,-7.05,0.66,40.69
10371,14.60,14.70,14.59,14.66,14.64,-208.01,-942.87,547.36,20.59,3.36,2.18
10402,14.62,14.70,14.60,14.66,14.64,-71.29,-896.48,496.09,41.14,-5.37,-12.33
10433,14.62,14.70,14.60,14.67,14.65,-61.52,-879.88,505.37,23.53,-4.96,-3.69
10464,14.65,14.70,14.60,14.69,14.66,0.98,-787.11,575.68,13.92,-0.05,5.63
10495,14.69,14.70,14.60,14.71,14.68,-68.36,-884.77,529.30,18.21,1.95,5.66
10526,14.77,14.71,14.61,14.73,14.70,-76.17,-875.49,582.52,31.18,-2.59,1.15
10557,14.85,14.72,14.61,14.76,14.74,-73.24,-872.56,525.88,18.46,-4.41,-2.20
10588,14.97,14.73,14.62,14.79,14.78,-55.66,-853.03,601.07,17.03,0.76,-2.26
10619,15.14,14.74,14.62,14.81,14.83,-44.43,-839.84,587.40,18.08,-0.92,-2.56
10650,15.40,14.75,14.62,14.83,14.90,-60.55,-833.50,605.96,6.76,2.89,-1.83
10681,15.68,14.75,14.62,14.85,14.98,-58.11,-833.98,584.96,3.71,2.47,-2.37
10712,15.94,14.76,14.62,14.86,15.05,-73.24,-846.19,579.10,2.36,1.23,-2.62
10743,16.13,14.76,14.62,14.86,15.09,-60.06,-833.98,595.70,1.65,4.19,-0.26
10774,16.25,14.76,14.62,14.86,15.13,-61.52,-848.63,578.61,-1.09,-1.18,-0.71
10805,16.31,14.76,14.62,14.86,15.14,-42.48,-823.73,594.73,-0.11,-1.34,1.61
10836,16.34,14.76,14.62,14.85,15.14,-51.27,-834.47,602.05,-3.22,3.39,-0.29
10867,16.32,14.76,14.62,14.84,15.14,-62.50,-842.77,576.66,-2.04,0.75,-1.73
10898,16.32,14.76,14.62,14.83,15.13,-69.34,-843.26,583.98,-0.50,-1.11,0.69
10929,16.35,14.75,14.62,14.82,15.13,-66.41,-836.91,599.12,6.36,-1.69,-0.40
10960,16.38,14.75,14.62,14.81,15.14,-70.31,-816.41,603.52,4.11,-5.34,-1.65
10991,16.30,14.75,14.62,14.80,15.12,-61.52,-840.33,585.45,-2.09,-3.21,0.78
11022,16.16,14.74,14.62,14.79,15.08,-57.13,-833.50,624.02,2.90,-3.42,2.05
11053,16.06,14.74,14.62,14.78,15.05,-36.13,-809.57,597.66,-4.68,1.61,1.16
11084,15.99,14.74,14.61,14.77,15.03,-60.55,-837.40,599.12,-4.07,1.91,0.42
11114,15.93,14.74,14.61,14.76,15.01,-54.20,-836.91,573.73,-4.83,-0.31,-1.02
11146,15.90,14.74,14.61,14.76,15.00,-50.29,-835.94,581.54,-3.32,0.19,-2.24
11177,15.86,14.74,14.61,14.76,14.99,-75.20,-841.80,591.80,-1.92,2.31,-0.24
11207,15.79,14.74,14.61,14.76,14.97,-65.43,-833.98,584.96,-2.53,-0.92,0.89
11238,15.71,14.74,14.61,14.75,14.95,-57.62,-833.01,590.33,-1.63,-3.43,1.60
11270,15.64,14.73,14.61,14.75,14.94,-53.22,-834.96,573.73,-1.64,-3.57,1.09
11300,15.59,14.73,14.61,14.75,14.92,-56.64,-843.26,592.29,1.31,-0.08,-1.15
11331,15.57,14.73,14.61,14.75,14.92,-54.69,-839.36,582.52,-3.22,-2.10,1.45
11362,15.56,14.73,14.61,14.75,14.91,-71.78,-835.45,580.57,-2.00,-0.40,-0.89
11392,15.57,14.73,14.61,14.76,14.92,-55.66,-828.61,596.19,1.24,0.70,0.08
11423,15.62,14.73,14.61,14.77,14.94,-56.64,-841.80,579.10,1.69,-0.18,-0.53
11453,15.67,14.73,14.61,14.79,14.95,-65.92,-847.66,583.01,-1.15,3.18,-0.47
11483,15.74,14.74,14.62,14.81,14.98,-75.20,-852.54,569.34,3.93,-1.05,-1.34
11514,15.82,14.74,14.62,14.84,15.00,-60.06,-836.91,587.89,6.48,0.14,1.92
11546,15.92,14.74,14.62,14.87,15.04,-59.57,-844.24,584.47,4.27,0.50,-1.37
11577,16.07,14.75,14.62,14.91,15.09,-62.01,-832.52,604.49,4.85,0.22,-0.84
11608,16.17,14.75,14.63,14.94,15.12,-56.15,-833.01,589.84,5.69,-4.63,0.80
11639,16.17,14.76,14.63,14.96,15.13,-63.96,-823.73,598.14,4.74,-1.83,-0.26
11669,16.15,14.76,14.63,14.97,15.13,-53.71,-808.59,614.26,1.82,-2.56,-1.24
11700,16.11,14.76,14.63,14.98,15.12,-64.94,-827.15,610.84,-3.30,1.97,-2.37
11730,16.04,14.76,14.63,14.99,15.11,-64.45,-833.50,604.49,-2.45,-1.50,-3.22
11761,16.00,14.76,14.63,15.00,15.10,-54.69,-832.52,600.59,-0.85,-1.15,-0.78
11792,15.97,14.76,14.64,15.01,15.09,-61.04,-821.78,595.21,-0.66,3.43,-0.61
11823,15.94,14.76,14.64,15.03,15.09,-60.55,-833.98,591.80,0.56,0.02,0.19
11854,15.89,14.76,14.64,15.06,15.09,-57.13,-823.73,608.40,5.24,-1.73,-0.66
11885,15.85,14.77,14.64,15.08,15.08,-55.18,-825.20,625.00,2.74,-4.05,0.67
11916,15.82,14.77,14.64,15.09,15.08,-50.29,-828.12,600.59,-1.85,-0.99,-1.26
11947,15.78,14.77,14.65,15.12,15.08,-61.52,-836.91,580.57,1.61,-4.06,-3.42
11978,15.69,14.77,14.65,15.15,15.07,-50.78,-833.01,613.77,2.24,-1.98,-1.22
12009,15.60,14.77,14.66,15.18,15.05,-40.53,-825.68,611.33,2.35,-1.22,-1.12
12040,15.53,14.77,14.66,15.21,15.04,-58.59,-830.08,619.14,0.87,-3.08,-1.37
12071,15.39,14.77,14.67,15.26,15.02,-56.15,-823.24,607.42,-0.01,-5.45,-3.98
12102,15.26,14.77,14.68,15.31,15.00,-73.73,-832.52,599.12,-4.98,-1.14,-5.37
12133,15.14,14.77,14.69,15.35,14.99,-37.11,-822.27,612.79,-2.64,-2.11,-8.07
12164,15.03,14.77,14.70,15.39,14.97,-49.32,-827.64,605.47,-8.34,2.02,-7.83
12195,14.91,14.77,14.71,15.44,14.96,-66.41,-923.83,572.27,-7.00,-2.76,-10.82
12226,14.79,14.76,14.72,15.49,14.94,-40.04,-827.15,587.89,5.48,-4.94,-19.00
12257,14.69,14.76,14.74,15.50,14.92,-3.42,-777.34,589.84,5.48,-15.49,-10.76
12288,14.62,14.75,14.75,15.46,14.90,-92.77,-844.24,750.49,-7.39,-25.58,-10.54
12319,14.60,14.74,14.76,15.36,14.87,-66.41,-979.00,689.45,-68.00,-41.90,-33.23
12350,14.60,14.73,14.77,15.21,14.83,-40.53,-998.05,758.30,-67.05,-49.32,-56.98
12381,14.59,14.73,14.76,15.07,14.79,-39.06,-1065.43,612.30,-78.96,-48.76,-86.50
12412,14.59,14.73,14.75,14.95,14.75,-31.74,-1104.00,521.97,-56.79,-48.37,-121.54
12443,14.59,14.72,14.72,14.87,14.73,71.78,-1111.82,491.21,-29.00,-50.10,-147.44
12474,14.59,14.72,14.69,14.82,14.71,257.32,-1157.71,548.83,-0.68,-42.33,-169.85
12505,14.59,14.71,14.67,14.77,14.68,296.87,-1074.22,514.65,-40.76,-36.61,-175.02
12536,14.58,14.71,14.64,14.73,14.66,427.73,-848.14,451.17,-14.83,-35.95,-179.26
12567,14.58,14.70,14.61,14.68,14.65,389.16,-1094.73,516.60,6.37,-18.80,-162.92
12598,14.58,14.70,14.60,14.66,14.64,-34.18,-907.71,419.43,21.95,-1.36,-145.81
12629,14.58,14.70,14.59,14.66,14.63,23.44,-698.24,325.68,-3.47,52.13,-15.60
12660,14.58,14.69,14.59,14.66,14.63,-270.51,-622.56,179.69,-12.25,136.02,96.88
12691,14.58,14.69,14.59,14.66,14.63,-309.57,-607.42,284.67,5.24,122.14,121.69
12722,14.58,14.69,14.59,14.66,14.63,-167.97,-499.51,315.92,12.22,92.36,141.46
12753,14.57,14.69,14.59,14.66,14.63,-47.85,-606.93,437.99,-33.69,72.88,158.27
12784,14.57,14.69,14.59,14.66,14.63,208.50,-886.23,599.12,-47.30,45.50,171.08
12815,14.57,14.69,14.60,14.66,14.63,541.02,-976.07,732.91,-27.15,25.25,153.20
12845,14.57,14.69,14.59,14.66,14.63,735.84,-1075.68,895.51,-22.73,35.77,113.34
12877,14.57,14.70,14.60,14.65,14.63,856.45,-1182.62,854.98,-8.92,38.81,125.48
12908,14.57,14.70,14.60,14.65,14.63,744.63,-1039.06,681.64,1.69,6.54,95.01
12939,14.57,14.70,14.59,14.65,14.63,429.20,-856.45,542.97,11.38,-29.63,37.40
12969,14.57,14.70,14.59,14.65,14.63,186.52,-836.91,554.20,5.79,-39.76,6.95
13000,14.57,14.70,14.59,14.65,14.63,245.61,-815.43,474.12,4.51,-41.74,26.17
13030,14.57,14.70,14.59,14.65,14.63,199.71,-847.17,481.45,-20.86,-18.12,42.31
13061,14.57,14.70,14.59,14.65,14.63,183.11,-873.54,551.27,-14.47,-15.27,39.60
13091,14.57,14.70,14.59,14.65,14.63,303.71,-835.94,550.78,-7.01,-13.80,25.35
13122,14.57,14.70,14.60,14.65,14.63,403.81,-1047.85,596.19,-4.11,-8.98,-1.82
13152,14.57,14.70,14.60,14.65,14.63,379.39,-828.61,592.77,1.50,20.90,-1.42
13186,14.57,14.70,14.60,14.65,14.63,-5.37,-846.19,622.07,-12.35,40.25,-18.75
13218,14.57,14.70,14.59,14.65,14.63,-83.50,-853.03,594.24,4.35,19.52,-27.53
13249,14.57,14.70,14.59,14.66,14.63,-102.05,-795.90,510.74,5.46,-6.37,-27.78
13279,14.57,14.69,14.59,14.66,14.63,-149.41,-878.42,533.69,-2.21,-33.00,-31.24
13310,14.57,14.69,14.59,14.66,14.63,184.08,-562.01,757.32,-81.24,-53.13,26.24
13341,14.57,14.69,14.59,14.66,14.63,1.95,-948.24,526.86,-38.90,-13.21,46.24
13372,14.57,14.69,14.59,14.66,14.63,-27.34,-804.69,518.55,-18.76,-32.50,31.63
13402,14.56,14.69,14.59,14.66,14.63,-114.75,-894.53,542.97,-33.19,-28.54,41.24
13433,14.57,14.69,14.59,14.67,14.63,-43.46,-854.98,495.61,-5.74,-47.50,32.20
13464,14.56,14.69,14.59,14.67,14.63,33.20,-981.93,313.96,-5.96,-36.40,24.46
13495,14.56,14.69,14.60,14.68,14.63,-1.46,-1128.91,227.05,19.81,-0.10,11.76
13526,14.57,14.69,14.60,14.68,14.64,-165.04,-945.80,396.48,83.07,28.37,-7.19
13557,14.59,14.70,14.60,14.69,14.64,-1.95,-859.37,625.98,24.05,-13.86,1.92
13588,14.64,14.71,14.60,14.71,14.66,-178.22,-806.64,557.13,56.22,-1.92,6.82
13619,14.73,14.71,14.61,14.72,14.69,-20.51,-944.82,506.84,35.60,-1.93,3.56
13650,14.84,14.72,14.61,14.73,14.73,-92.77,-872.56,589.36,21.30,-7.54,3.17
13681,14.94,14.72,14.61,14.74,14.75,-55.18,-809.08,628.42,22.47,-2.53,-1.58
13712,15.04,14.73,14.61,14.75,14.78,-33.20,-821.29,594.73,7.31,3.55,-2.97
13743,15.17,14.73,14.62,14.77,14.82,-48.34,-852.54,554.20,5.53,-2.82,-2.26
13773,15.32,14.74,14.62,14.80,14.87,-58.11,-831.05,581.54,14.83,-1.93,1.02
13805,15.50,14.75,14.62,14.83,14.92,-46.39,-827.15,597.66,13.21,-2.23,-1.17
13835,15.66,14.75,14.63,14.86,14.97,-51.27,-835.45,617.68,11.58,-2.48,-1.22
13866,15.77,14.76,14.63,14.89,15.01,-49.32,-827.64,614.75,7.76,-5.34,-1.89
13897,15.83,14.76,14.64,14.92,15.03,-44.43,-818.36,608.89,5.18,-4.68,-0.73
13928,15.86,14.76,14.64,14.94,15.05,-53.22,-821.78,620.12,3.54,-2.22,-3.29
13959,15.85,14.76,14.65,14.97,15.06,-44.92,-834.47,609.86,2.76,-1.50,-2.15
13990,15.81,14.76,14.65,14.99,15.05,-48.34,-817.87,611.33,1.73,-3.66,1.59
14021,15.78,14.76,14.65,15.01,15.05,-40.53,-811.04,631.35,1.55,0.42,0.82
14052,15.75,14.76,14.65,15.02,15.04,-35.64,-813.96,615.72,-2.50,1.35,-2.15
14083,15.71,14.76,14.65,15.03,15.04,-45.41,-828.12,628.91,0.48,-1.76,0.16
14114,15.68,14.76,14.65,15.04,15.03,-43.95,-798.34,638.18,1.17,-1.01,-1.56
14145,15.65,14.76,14.66,15.05,15.03,-50.29,-815.43,631.84,0.20,1.03,-0.26
14176,15.61,14.76,14.66,15.07,15.03,-62.50,-815.43,606.45,-1.42,-2.76,0.80
14207,15.58,14.76,14.66,15.07,15.02,-33.69,-808.11,617.19,-0.42,-1.08,0.68
14238,15.54,14.76,14.66,15.07,15.01,-48.34,-823.24,629.88,0.92,-4.18,-0.30
14268,15.50,14.76,14.66,15.06,14.99,-33.20,-805.66,640.14,-1.52,-2.60,-0.15
14300,15.45,14.75,14.66,15.05,14.98,-34.18,-789.55,627.44,-2.70,-0.56,-0.78
14330,15.42,14.75,14.66,15.02,14.96,-33.69,-806.64,622.56,-2.50,0.95,-0.26
14361,15.42,14.75,14.65,14.97,14.95,-42.97,-820.31,615.72,-3.93,4.31,-2.89
14392,15.40,14.75,14.64,14.92,14.93,-44.43,-800.29,627.44,-11.34,5.24,1.64
14423,15.35,14.75,14.63,14.87,14.90,-58.11,-828.61,606.45,-14.05,3.01,-0.27
14454,15.27,14.74,14.63,14.82,14.87,-41.02,-813.96,608.89,-12.92,3.38,-2.84
14485,15.20,14.74,14.62,14.78,14.83,-4.88,-820.31,601.56,-13.77,7.26,-2.92
14516,15.16,14.74,14.62,14.75,14.81,-40.53,-839.36,595.70,-13.11,6.69,0.09
14547,15.12,14.73,14.61,14.73,14.80,-76.17,-835.94,557.62,-12.56,9.26,0.18
14578,15.11,14.73,14.61,14.71,14.79,-22.46,-815.43,616.21,1.50,1.27,1.82
14609,15.11,14.73,14.61,14.70,14.79,-47.85,-845.70,593.26,-3.72,1.12,1.25
14639,15.09,14.73,14.60,14.69,14.78,-46.39,-848.14,582.52,-0.96,1.06,1.02
14670,15.10,14.73,14.60,14.68,14.78,-61.52,-849.12,597.17,-0.70,4.91,0.63
14700,15.10,14.73,14.60,14.68,14.78,-62.50,-844.73,593.26,1.34,-2.09,1.63
14730,15.10,14.73,14.60,14.67,14.77,-5.37,-813.96,649.41,3.14,-2.40,3.31
14761,15.09,14.73,14.60,14.66,14.77,77.15,-831.05,645.02,-3.21,21.64,-7.63
14791,15.09,14.72,14.60,14.66,14.77,-13.67,-801.27,604.49,-13.22,41.27,-17.37
14822,15.10,14.72,14.60,14.66,14.77,-54.20,-816.41,580.08,-8.40,42.93,-17.78
14853,15.11,14.72,14.60,14.66,14.77,-226.07,-835.94,480.47,-1.27,24.63,-13.94
14883,15.13,14.72,14.60,14.66,14.78,-95.70,-895.02,526.86,27.20,-19.08,-8.44
14914,15.15,14.72,14.60,14.68,14.79,21.97,-829.59,577.15,-13.47,5.84,-6.54
14945,15.17,14.72,14.60,14.70,14.80,-18.55,-846.19,569.82,-1.46,-0.55,-0.85
14975,15.20,14.72,14.61,14.71,14.81,-40.53,-816.89,599.12,-8.67,1.43,-3.24
15006,15.23,14.72,14.61,14.72,14.82,-60.06,-808.11,606.45,-5.01,3.27,-3.84
15036,15.26,14.73,14.61,14.73,14.83,-67.87,-837.89,594.73,1.37,2.36,-4.11
15067,15.28,14.73,14.61,14.74,14.84,-43.95,-822.27,612.79,2.13,0.02,-3.09
15098,15.32,14.73,14.61,14.75,14.85,-50.78,-820.80,614.75,2.18,2.41,-2.52
15129,15.36,14.73,14.61,14.75,14.86,-57.62,-828.12,602.54,-1.07,4.21,-2.95
15177,15.41,14.74,14.61,14.76,14.88,-49.32,-837.40,603.52,-0.55,0.92,-1.21
15208,15.42,14.74,14.61,14.76,14.89,-51.27,-829.59,599.61,1.44,1.58,-1.65
15239,15.44,14.74,14.62,14.77,14.89,-48.34,-835.94,606.45,1.60,0.48,-2.95
15270,15.46,14.74,14.62,14.78,14.90,-57.13,-836.91,593.26,1.68,-0.05,-0.39
15301,15.47,14.74,14.62,14.79,14.90,-46.39,-823.24,610.84,2.27,-1.25,-0.81
15331,15.48,14.74,14.62,14.79,14.91,-48.34,-833.50,614.75,0.26,-0.07,-0.90
15362,15.49,14.74,14.62,14.80,14.91,-45.90,-831.05,617.19,1.28,2.08,-2.95
15393,15.51,14.74,14.62,14.80,14.92,-55.18,-819.82,607.91,2.89,-1.32,-1.23
15424,15.51,14.74,14.62,14.80,14.92,-45.41,-819.34,599.61,-0.56,2.76,0.27
15455,15.51,14.74,14.62,14.80,14.92,-43.46,-825.20,614.26,0.50,-0.06,-3.63
15486,15.52,14.74,14.62,14.80,14.92,-57.13,-823.24,614.75,1.29,1.06,0.43
15517,15.52,14.74,14.62,14.80,14.92,-54.69,-833.50,605.47,1.18,-0.90,-1.42
15548,15.52,14.74,14.62,14.80,14.92,-49.80,-834.47,607.42,0.50,0.46,1.66
15579,15.53,14.74,14.62,14.80,14.92,-47.85,-810.55,620.12,1.48,1.60,-0.85
15610,15.55,14.74,14.62,14.80,14.93,-51.27,-824.22,609.86,0.33,0.40,-0.53
15640,15.55,14.74,14.62,14.80,14.93,-56.15,-820.80,618.16,-1.24,-1.58,-0.31
15671,15.56,14.74,14.62,14.80,14.93,-55.66,-810.06,612.30,-0.55,-0.12,-3.73
15702,15.59,14.74,14.62,14.81,14.94,-40.53,-805.66,622.07,0.49,1.52,-1.13
15733,15.61,14.74,14.62,14.81,14.95,-44.43,-833.98,603.03,-0.33,3.45,-0.32
15764,15.64,14.75,14.62,14.81,14.96,-45.41,-815.92,605.96,0.75,3.51,-3.05
15795,15.68,14.75,14.62,14.82,14.97,-41.99,-816.89,594.73,0.82,1.27,-0.11
15826,15.71,14.75,14.62,14.82,14.98,-39.55,-825.20,612.79,-0.23,0.40,-0.31
15857,15.73,14.75,14.62,14.82,14.98,-46.39,-818.85,622.56,-0.90,3.82,0.17
15888,15.73,14.75,14.62,14.82,14.98,-48.83,-822.27,610.84,-1.15,1.02,-0.10
15919,15.72,14.75,14.62,14.82,14.98,-56.15,-834.96,604.49,-2.69,1.32,-0.60
15949,15.70,14.76,14.62,14.83,14.98,-46.39,-832.03,596.19,-0.22,-0.03,-1.28
15980,15.69,14.76,14.62,14.83,14.97,-46.39,-829.59,609.86,-1.53,0.10,-0.31
16011,15.67,14.76,14.62,14.83,14.97,-46.39,-829.10,607.91,-2.83,1.83,-1.96
16044,15.66,14.76,14.62,14.83,14.97,-39.06,-818.36,613.77,-1.37,2.45,-0.96
16075,15.63,14.76,14.62,14.83,14.96,-47.85,-813.96,602.54,-3.11,-1.44,-1.05
16106,15.60,14.76,14.62,14.82,14.95,-47.36,-826.17,600.10,-0.50,0.93,-0.79
16136,15.55,14.76,14.62,14.82,14.94,-49.80,-824.71,603.52,-3.11,2.10,-4.03
16167,15.50,14.76,14.62,14.81,14.92,-41.99,-832.03,607.42,-2.73,0.92,-0.64
16198,15.40,14.76,14.62,14.79,14.89,-48.34,-832.52,602.05,-10.49,1.40,-1.86
16229,15.25,14.75,14.62,14.76,14.85,-39.55,-820.80,618.65,-14.75,2.56,-1.97
16260,15.07,14.75,14.61,14.73,14.79,-37.11,-834.47,583.98,-34.21,6.33,-0.56
16291,14.87,14.74,14.60,14.70,14.73,-94.24,-871.09,560.55,-47.17,7.86,-3.27
16321,14.71,14.73,14.60,14.69,14.68,-102.54,-948.24,508.79,-66.65,3.32,-8.52
16352,14.63,14.72,14.60,14.67,14.65,-78.61,-880.37,502.44,-68.95,-26.52,-9.87
16382,14.60,14.71,14.59,14.66,14.64,-68.36,-1166.50,742.68,-66.97,-10.49,-24.91
16412,14.59,14.71,14.59,14.66,14.64,171.87,-1122.07,579.10,-36.90,-0.83,-79.03
16443,14.59,14.70,14.59,14.66,14.64,-2.44,-1224.61,494.14,36.47,-1.98,-43.52
16473,14.59,14.71,14.59,14.66,14.63,18.07,-799.80,534.67,34.08,12.83,0.53
16503,14.58,14.70,14.59,14.65,14.63,26.37,-839.84,555.66,17.69,7.40,-3.98
16534,14.58,14.70,14.59,14.65,14.63,14.65,-807.13,530.27,31.69,-9.64,-14.98
16565,14.58,14.70,14.59,14.66,14.63,36.62,-747.56,440.92,30.81,-18.63,-14.11
16596,14.58,14.70,14.59,14.65,14.63,40.04,-703.61,440.92,10.56,-20.56,-14.47
16627,14.58,14.70,14.59,14.65,14.63,70.31,-736.82,446.78,-9.08,-21.27,-14.25
16657,14.58,14.70,14.59,14.65,14.63,104.00,-895.51,440.92,-1.98,-15.31,3.30
16688,14.58,14.70,14.59,14.65,14.63,195.80,-648.44,401.37,6.35,4.95,6.44
16718,14.58,14.70,14.59,14.65,14.63,124.51,-785.64,501.95,-22.73,28.18,-7.52
16749,14.58,14.70,14.59,14.65,14.63,97.17,-889.65,468.26,7.72,21.02,-14.73
16780,14.58,14.70,14.59,14.65,14.63,132.81,-785.64,421.39,-1.20,26.54,-2.24
16811,14.57,14.70,14.59,14.65,14.63,93.26,-888.18,525.88,-8.11,20.85,8.28
16842,14.57,14.70,14.59,14.65,14.63,70.31,-812.50,502.93,4.96,-11.30,5.11
16873,14.57,14.70,14.59,14.65,14.63,107.91,-803.22,447.75,-0.17,-26.85,0.05
16904,14.57,14.70,14.59,14.65,14.63,106.45,-870.12,493.16,-6.53,-25.25,-9.53
16935,14.57,14.70,14.59,14.65,14.63,94.73,-870.12,451.66,7.63,-27.43,-5.06
16966,14.57,14.70,14.59,14.65,14.63,111.33,-779.30,376.95,-12.80,-21.92,-3.48
16996,14.57,14.70,14.59,14.65,14.63,68.36,-924.80,439.94,-29.60,-4.45,8.38
17027,14.57,14.70,14.59,14.65,14.63,-10.25,-952.15,496.58,-19.80,8.05,12.89
17058,14.57,14.70,14.59,14.65,14.63,-11.72,-925.29,505.37,-15.77,25.54,13.47
17089,14.57,14.70,14.59,14.65,14.63,-29.30,-916.02,547.36,-16.59,31.61,13.45
17120,14.57,14.70,14.59,14.65,14.63,-56.15,-990.72,526.86,3.34,18.89,12.77
17151,14.57,14.70,14.59,14.65,14.63,-2.93,-817.38,497.56,1.42,18.22,23.31
17182,14.57,14.70,14.59,14.65,14.63,84.47,-811.52,518.07,-11.36,11.24,6.10
17213,14.57,14.70,14.59,14.66,14.63,130.37,-923.83,496.09,-13.27,3.11,-17.24
17244,14.57,14.69,14.59,14.66,14.63,359.37,-1144.04,79.59,26.46,51.37,19.74
17275,14.57,14.70,14.59,14.67,14.63,-127.93,-694.34,550.29,22.95,-10.13,29.53
17306,14.57,14.69,14.60,14.67,14.63,-57.13,-922.36,542.48,-1.24,2.64,31.46
17336,14.57,14.70,14.60,14.69,14.64,-72.75,-959.96,481.93,11.50,6.62,21.64
17367,14.57,14.70,14.60,14.70,14.64,72.75,-1190.43,525.39,10.14,5.09,13.67
17398,14.58,14.71,14.60,14.72,14.65,-151.86,-879.88,587.40,47.66,-6.46,4.77
17429,14.61,14.71,14.61,14.74,14.67,-2.44,-828.61,559.57,62.33,-8.84,6.89
17460,14.72,14.72,14.61,14.76,14.70,-70.80,-853.52,619.63,50.18,-10.92,8.85
17491,14.97,14.73,14.61,14.78,14.77,-89.84,-895.02,484.86,33.42,-4.27,-1.60
17522,15.16,14.73,14.61,14.80,14.83,-56.64,-866.70,546.87,11.19,-5.63,-0.95
17553,15.30,14.74,14.62,14.82,14.87,-46.88,-826.66,614.75,8.68,-2.14,-0.08
17584,15.41,14.74,14.62,14.83,14.90,-49.80,-856.93,573.24,7.24,-3.21,-1.67
17615,15.52,14.74,14.62,14.84,14.93,-56.15,-856.45,577.64,7.52,-1.57,0.27
17645,15.62,14.74,14.62,14.85,14.96,-49.32,-836.43,598.63,5.73,-1.04,-0.18
17676,15.72,14.75,14.62,14.85,14.98,-58.11,-828.61,608.40,5.03,0.31,-0.50
17707,15.77,14.75,14.62,14.85,15.00,-58.59,-834.96,600.59,1.66,-0.69,0.48
17738,15.79,14.74,14.62,14.86,15.00,-66.41,-833.50,587.89,5.63,-3.64,-3.48
17769,15.80,14.74,14.62,14.87,15.01,-41.02,-832.52,597.17,5.85,-4.28,0.40
17800,15.82,14.74,14.62,14.88,15.02,-40.04,-826.17,609.86,7.48,-5.12,-0.18
17831,15.83,14.74,14.62,14.89,15.02,-45.90,-802.25,624.02,7.64,-6.16,0.28
17862,15.83,14.74,14.62,14.89,15.02,-41.50,-795.90,633.79,5.97,-1.60,0.01
17893,15.84,14.74,14.63,14.89,15.03,-54.20,-812.50,634.28,2.51,-1.05,-1.74
17924,15.82,14.74,14.63,14.90,15.02,-57.13,-810.06,638.67,-0.58,0.12,2.24
17955,15.80,14.74,14.63,14.90,15.02,-40.53,-817.87,615.72,1.22,-3.31,-0.84
17985,15.78,14.74,14.63,14.90,15.01,-41.99,-819.82,618.65,3.98,-0.11,-0.37
18015,15.79,14.74,14.63,14.91,15.02,-42.48,-806.64,616.21,-0.31,0.98,0.64
18046,15.79,14.74,14.63,14.91,15.02,-44.92,-823.24,627.93,-2.24,1.50,-2.12
18076,15.80,14.74,14.63,14.91,15.02,-46.88,-806.15,625.98,2.38,2.33,-3.05
18106,15.82,14.74,14.63,14.91,15.03,-41.50,-806.15,622.07,0.76,-0.35,0.56
18137,15.82,14.74,14.63,14.91,15.03,-44.92,-814.94,623.54,-0.84,1.47,-0.70
18168,15.84,14.74,14.63,14.92,15.03,-40.53,-806.64,632.81,1.92,-1.37,-2.21
18198,15.87,14.75,14.63,14.92,15.04,-51.27,-809.57,625.49,1.56,0.70,-1.11
18229,15.86,14.74,14.63,14.92,15.04,-48.34,-812.01,610.35,-0.27,-0.79,0.68
18259,15.82,14.74,14.63,14.92,15.03,-50.78,-801.27,625.00,-0.85,-2.59,0.05
18290,15.78,14.74,14.63,14.93,15.02,-63.48,-817.87,625.98,-2.80,-2.79,-0.68
18321,15.71,14.74,14.63,14.94,15.01,-61.04,-818.36,629.88,-0.16,-2.34,-0.11
18351,15.62,14.74,14.64,14.96,14.99,-55.66,-831.54,609.86,-1.00,-2.78,0.63
18382,15.49,14.74,14.64,14.98,14.96,-54.20,-819.82,617.68,-4.55,-4.47,-0.38
18413,15.30,14.74,14.64,15.00,14.92,-50.78,-819.82,619.14,-8.08,-6.49,-1.79
18444,15.10,14.73,14.64,15.02,14.88,-31.25,-786.62,653.81,-3.25,-8.10,-1.42
18475,14.94,14.73,14.65,15.03,14.84,-29.30,-798.83,625.49,-15.09,-6.68,-3.25
18505,14.83,14.72,14.64,15.03,14.81,-14.65,-835.94,601.07,-16.55,-3.61,-3.43
18536,14.77,14.72,14.65,15.02,14.79,-36.62,-826.66,610.35,-10.82,-2.15,-1.98
18567,14.72,14.72,14.65,15.01,14.77,-39.55,-795.90,631.84,-13.76,-3.03,-1.35
18598,14.68,14.71,14.64,15.00,14.76,-84.96,-819.34,701.66,-20.57,-10.80,6.67
18629,14.65,14.71,14.65,14.98,14.75,-99.12,-786.13,723.63,-13.85,-38.97,13.12
18660,14.62,14.71,14.65,14.96,14.74,-5.86,-764.16,624.02,-27.01,-66.07,21.21
18691,14.61,14.71,14.65,14.94,14.73,33.69,-974.12,375.98,-29.40,-50.29,25.68
18722,14.60,14.71,14.64,14.93,14.72,98.63,-976.07,267.58,-8.78,-10.27,12.75
18753,14.60,14.72,14.64,14.94,14.73,-13.67,-1124.02,478.03,24.13,28.53,-0.38
18784,14.62,14.72,14.65,14.97,14.74,-105.47,-752.93,656.74,59.81,-1.05,-5.35
18814,14.64,14.73,14.64,14.97,14.75,8.79,-880.86,575.20,32.34,8.98,-7.82
18845,14.66,14.73,14.64,14.95,14.75,9.77,-714.84,629.39,-7.31,-1.90,-4.76
18876,14.67,14.73,14.64,14.93,14.74,-51.27,-870.61,597.66,-19.57,8.82,-1.56
18907,14.68,14.73,14.64,14.91,14.74,-25.88,-844.73,562.99,-4.48,9.18,-5.09
18938,14.69,14.73,14.64,14.91,14.74,4.39,-813.48,597.17,3.85,4.52,-5.83
18969,14.70,14.73,14.64,14.91,14.75,7.32,-799.32,619.14,5.79,-1.33,-0.71
19000,14.72,14.73,14.64,14.90,14.75,3.42,-781.25,617.19,6.82,-4.20,7.08
19033,14.76,14.73,14.63,14.88,14.75,-29.30,-826.17,606.45,-0.23,-4.32,11.69
19064,14.79,14.73,14.63,14.87,14.76,-31.74,-917.48,653.32,-1.93,-1.90,8.79
19095,14.83,14.73,14.63,14.86,14.76,-44.43,-830.08,590.82,5.88,0.05,2.03
19126,14.87,14.73,14.63,14.84,14.77,-29.79,-801.76,617.68,1.60,0.31,3.34
19157,14.92,14.73,14.63,14.83,14.78,-28.81,-825.68,611.82,1.96,1.76,4.81
19187,14.98,14.73,14.63,14.82,14.79,-41.99,-856.45,601.07,6.59,1.09,3.42
19218,15.06,14.73,14.63,14.82,14.81,-61.04,-837.40,593.75,7.89,2.98,-0.47
19249,15.14,14.73,14.62,14.81,14.83,-43.95,-817.38,612.30,5.66,4.11,1.14
19280,15.20,14.73,14.62,14.81,14.84,-53.71,-840.82,593.26,-0.98,3.60,-0.94
19311,15.23,14.73,14.62,14.81,14.85,-59.08,-819.34,603.03,-0.41,-0.77,-1.11
19342,15.26,14.74,14.62,14.81,14.86,-51.76,-820.80,605.47,1.07,-0.67,-3.15
19373,15.29,14.74,14.63,14.81,14.87,-35.16,-822.27,613.77,0.76,0.21,-0.34
19404,15.32,14.74,14.62,14.81,14.87,-51.76,-827.15,602.05,2.21,2.25,-2.07
19435,15.35,14.74,14.62,14.81,14.88,-34.67,-818.36,621.58,-0.19,0.69,0.91
19466,15.38,14.74,14.62,14.81,14.89,-45.90,-811.04,611.33,0.15,0.56,-1.31
19497,15.41,14.74,14.62,14.81,14.89,-47.36,-822.75,616.21,-0.96,-1.56,-1.92
19528,15.43,14.74,14.62,14.81,14.90,-52.73,-820.80,613.77,1.61,-0.90,0.63
19558,15.45,14.74,14.62,14.81,14.90,-55.18,-827.64,614.75,1.82,-0.16,1.23
19589,15.46,14.74,14.62,14.81,14.91,-44.43,-807.13,613.28,-1.19,1.13,1.58
19620,15.48,14.74,14.62,14.80,14.91,-44.92,-818.85,610.84,-1.93,0.74,-0.45
19650,15.50,14.74,14.62,14.80,14.91,-53.71,-817.38,604.49,-1.45,0.81,0.27
19680,15.51,14.73,14.62,14.80,14.92,-53.71,-832.52,604.98,-0.56,-0.34,2.37
19711,15.51,14.73,14.62,14.80,14.92,-46.39,-818.85,627.93,-0.07,-0.05,2.18
19741,15.51,14.74,14.62,14.80,14.92,-49.80,-822.75,613.77,0.79,2.08,-0.33
19771,15.51,14.74,14.62,14.80,14.92,-52.25,-822.27,625.98,0.72,0.82,-1.05
19802,15.52,14.73,14.62,14.79,14.92,-45.90,-818.85,606.93,-0.98,0.53,-2.14
19833,15.55,14.74,14.62,14.77,14.92,-54.20,-819.34,610.84,-2.02,2.34,0.13
19863,15.57,14.74,14.61,14.75,14.92,-32.23,-818.85,619.63,-2.21,3.86,-1.47
19894,15.60,14.74,14.61,14.73,14.92,-77.15,-834.96,629.88,-2.90,6.95,-0.60
19925,15.62,14.74,14.61,14.71,14.92,-53.22,-817.38,608.89,-5.03,4.73,-1.81
19955,15.65,14.74,14.61,14.70,14.92,-17.09,-790.53,655.27,-3.33,6.86,-1.70
19986,15.66,14.74,14.61,14.69,14.92,-47.36,-820.31,594.24,-7.96,9.66,-4.55
20016,15.67,14.74,14.61,14.69,14.93,-98.63,-846.19,578.61,-1.08,3.63,-1.42
20047,15.66,14.74,14.61,14.70,14.93,-59.08,-818.36,604.00,-0.25,-3.69,-0.18
20078,15.65,14.74,14.61,14.69,14.92,-25.88,-819.82,605.96,-1.37,-0.93,0.35
20109,15.66,14.74,14.61,14.69,14.92,-38.09,-829.10,606.93,-2.45,1.32,1.89
20140,15.67,14.74,14.61,14.69,14.93,-45.41,-805.18,637.21,-1.15,6.05,-3.64
20171,15.67,14.74,14.61,14.68,14.92,-44.43,-826.17,618.16,1.98,0.92,-1.83
20202,15.69,14.74,14.61,14.68,14.93,23.44,-771.97,696.78,-6.01,12.95,-6.33
20232,15.72,14.74,14.61,14.68,14.94,-67.87,-819.82,579.10,-5.40,20.89,-13.78
20263,15.71,14.74,14.61,14.69,14.94,-110.35,-877.44,562.99,7.62,-4.15,-2.88
20294,15.67,14.74,14.61,14.70,14.93,-72.27,-846.68,572.27,6.67,-0.29,-4.89
20325,15.63,14.74,14.61,14.71,14.92,-49.32,-842.77,605.47,7.64,-4.83,-1.03
20356,15.59,14.74,14.61,14.73,14.92,-52.73,-832.03,588.38,4.34,-6.35,-1.12
20387,15.56,14.74,14.61,14.74,14.91,-41.99,-822.27,601.07,2.50,-2.04,1.63
20418,15.55,14.74,14.61,14.75,14.91,-43.95,-832.52,592.29,0.00,-0.89,-0.05
20449,15.53,14.74,14.61,14.76,14.91,-51.76,-831.05,597.66,1.80,-3.08,0.76
20480,15.51,14.74,14.62,14.77,14.91,-40.53,-842.29,607.42,2.95,-3.41,1.61
20511,15.50,14.74,14.62,14.78,14.91,-44.43,-821.29,619.63,-1.02,-2.02,-0.40
20542,15.49,14.74,14.62,14.78,14.91,-43.95,-815.92,606.93,-0.03,0.95,-1.04
20573,15.49,14.74,14.62,14.78,14.91,-52.25,-825.68,609.37,-1.03,-1.76,-1.34
20603,15.48,14.74,14.62,14.79,14.90,-28.32,-831.05,609.86,-0.92,-0.42,-0.45
20634,15.47,14.74,14.62,14.79,14.90,-47.36,-826.17,619.63,-0.35,-1.13,1.14
20665,15.47,14.74,14.62,14.79,14.90,-52.25,-833.98,584.96,0.40,-0.31,1.23
20696,15.46,14.74,14.62,14.79,14.90,-45.41,-825.20,609.37,2.30,-1.18,-0.88
20727,15.45,14.74,14.62,14.80,14.90,-49.32,-825.68,604.00,2.11,0.69,-2.90
20758,15.46,14.74,14.62,14.80,14.90,-35.64,-829.10,612.79,0.09,1.07,-0.60
20789,15.47,14.74,14.62,14.79,14.91,-39.06,-820.80,604.98,-0.56,-1.78,-0.35
20820,15.48,14.74,14.62,14.79,14.91,-49.80,-823.24,609.37,-2.99,2.00,-0.66
20851,15.48,14.74,14.62,14.79,14.91,-41.50,-816.89,610.84,-0.45,-0.95,1.31
20882,15.48,14.74,14.62,14.79,14.91,-48.83,-828.12,609.37,1.03,0.03,0.72
20913,15.47,14.74,14.61,14.79,14.90,-44.43,-824.71,617.68,-0.21,1.83,-2.00
20943,15.47,14.74,14.62,14.79,14.90,-44.43,-825.20,609.37,-1.44,1.39,0.42
20974,15.47,14.74,14.62,14.79,14.90,-53.22,-826.17,616.21,1.11,0.38,0.92
21005,15.46,14.74,14.62,14.79,14.90,-41.50,-810.06,611.33,-1.10,1.54,-1.63
21036,15.46,14.74,14.62,14.79,14.90,-41.99,-827.64,614.26,-1.73,-0.23,1.44
21067,15.45,14.74,14.62,14.79,14.90,-43.95,-821.29,600.59,-0.14,3.27,0.84
21098,15.45,14.74,14.62,14.79,14.90,-46.39,-818.36,606.45,-0.67,1.97,0.02
21129,15.45,14.74,14.62,14.79,14.90,-46.88,-819.34,602.54,0.56,0.60,-0.96
21160,15.46,14.74,14.62,14.79,14.90,-43.95,-827.64,610.84,-0.71,-1.66,0.18
21191,15.45,14.74,14.62,14.80,14.90,-39.06,-824.71,604.00,1.69,-0.65,-1.60
21222,15.44,14.74,14.62,14.80,14.90,-48.34,-824.71,615.72,1.13,-1.26,-0.38
21253,15.43,14.74,14.62,14.79,14.90,-37.11,-831.54,614.26,-0.37,-1.42,-3.05
21284,15.42,14.74,14.62,14.79,14.89,-49.32,-831.54,608.89,-0.70,1.02,0.92
21314,15.42,14.74,14.62,14.79,14.89,-36.62,-827.15,620.12,0.19,1.59,0.73
21344,15.43,14.73,14.62,14.79,14.89,-47.36,-826.66,616.21,-0.34,2.80,-0.69
21375,15.44,14.74,14.62,14.79,14.90,-47.85,-840.82,609.37,0.04,0.22,-0.50
21405,15.45,14.74,14.62,14.79,14.90,-51.76,-823.73,612.30,-1.56,-3.43,-0.21
21436,15.46,14.74,14.62,14.80,14.90,-32.71,-812.01,616.21,1.16,0.56,0.02
21466,15.46,14.74,14.62,14.80,14.90,-28.32,-817.87,614.75,-1.23,0.37,0.08
21497,15.46,14.74,14.62,14.79,14.90,-44.43,-807.13,624.02,-2.27,3.67,-1.22
21528,15.46,14.74,14.62,14.78,14.90,-36.13,-828.12,598.14,-6.51,4.69,-2.21
21558,15.47,14.74,14.61,14.77,14.90,-55.66,-843.26,587.89,-6.18,3.75,-2.28
21589,15.48,14.74,14.61,14.75,14.90,-52.25,-832.03,601.56,-9.33,10.08,-0.21
21619,15.46,14.74,14.61,14.73,14.89,-45.41,-821.29,603.52,-11.42,5.99,-1.76
21650,15.43,14.74,14.61,14.71,14.87,-50.29,-846.68,605.47,-5.47,2.18,-1.38
21681,15.44,14.74,14.61,14.70,14.87,-19.53,-836.43,644.53,7.25,-5.47,1.36
21711,15.47,14.74,14.60,14.69,14.88,-66.89,-821.29,593.26,1.20,-6.78,2.22
21742,15.46,14.74,14.60,14.68,14.87,-123.05,-811.04,583.50,-17.27,1.77,-0.17
21773,15.43,14.74,14.60,14.68,14.86,-69.82,-793.95,632.81,-11.27,6.64,-2.52
21804,15.50,14.74,14.60,14.68,14.88,-44.43,-854.98,575.68,-2.17,6.62,-6.53
21835,15.49,14.75,14.60,14.67,14.88,-95.70,-853.03,558.11,-25.85,8.76,-3.72
21866,15.43,14.75,14.60,14.68,14.87,-84.47,-808.11,570.80,-26.55,10.94,-2.01
21897,15.50,14.76,14.60,14.68,14.89,-58.11,-814.94,635.25,-2.44,3.56,-5.17
21928,15.50,14.76,14.60,14.68,14.89,-32.23,-849.61,587.40,-22.27,6.21,-1.21
21959,15.52,14.77,14.60,14.69,14.89,-62.99,-906.74,487.79,-6.24,1.50,-3.30
21990,15.58,14.78,14.60,14.69,14.91,-54.20,-879.88,529.79,-9.86,7.34,-4.86
22021,15.52,14.78,14.60,14.69,14.90,-71.29,-834.96,545.90,-17.26,8.92,-1.88
22052,15.59,14.80,14.60,14.69,14.92,-63.48,-903.32,514.65,-0.04,5.46,-6.98
22083,15.65,14.81,14.60,14.68,14.94,-45.41,-867.68,553.71,-5.27,2.59,-4.17
22114,15.60,14.81,14.60,14.67,14.92,-87.89,-884.28,520.51,-18.15,2.39,-0.99
22145,15.61,14.81,14.60,14.67,14.92,-69.82,-928.71,457.03,1.08,2.98,-3.40
22176,15.63,14.81,14.60,14.68,14.93,-43.95,-903.81,503.42,15.20,-3.35,-0.60
22207,15.61,14.81,14.60,14.68,14.92,-57.13,-857.91,559.57,-3.24,-3.44,0.65
22237,15.62,14.81,14.60,14.69,14.93,-59.08,-862.30,516.60,5.03,-0.47,0.38
22269,15.63,14.81,14.60,14.69,14.93,-68.85,-868.16,542.97,0.79,-1.92,-0.95
22299,15.64,14.81,14.60,14.69,14.94,-44.92,-859.86,551.76,6.92,0.69,-4.70
22330,15.67,14.82,14.60,14.69,14.95,-52.25,-879.39,544.92,-6.80,1.63,-3.18
22361,15.65,14.82,14.61,14.70,14.94,-46.39,-898.93,498.05,0.85,-2.16,-1.55
22392,15.68,14.82,14.61,14.71,14.96,-75.68,-862.30,542.48,11.08,1.35,0.18
22423,15.69,14.82,14.61,14.72,14.96,-60.06,-848.14,571.78,2.24,-4.19,-2.59
22454,15.71,14.83,14.61,14.74,14.97,-67.38,-886.72,524.90,6.08,-1.47,-0.37
22485,15.71,14.82,14.61,14.75,14.97,-48.83,-864.75,556.64,4.24,-0.23,-0.73
22516,15.67,14.82,14.61,14.75,14.96,-47.85,-855.47,568.36,3.91,-1.34,-0.74
22547,15.68,14.83,14.61,14.75,14.97,-30.76,-846.19,577.64,1.38,2.03,-2.27
22578,15.68,14.83,14.61,14.75,14.97,-40.04,-870.12,541.02,1.45,-1.92,0.64
22609,15.66,14.82,14.61,14.76,14.96,-40.53,-862.79,547.36,3.42,-4.06,2.76
22640,15.66,14.81,14.61,14.76,14.96,-38.09,-853.03,578.61,6.25,-2.72,0.05
22671,15.65,14.81,14.61,14.76,14.96,-45.90,-854.49,560.06,0.11,-1.66,2.89
22702,15.65,14.81,14.61,14.76,14.96,-35.64,-849.12,579.10,0.55,0.57,0.93
22733,15.64,14.80,14.61,14.76,14.95,-55.18,-866.70,555.18,-4.08,2.24,3.36
22764,15.64,14.80,14.61,14.76,14.95,-28.81,-839.36,591.31,1.21,0.93,-1.60
22795,15.64,14.80,14.61,14.76,14.95,-57.62,-871.09,548.34,-3.36,-0.56,0.11
22825,15.64,14.80,14.61,14.75,14.95,-60.55,-854.98,558.11,-3.47,0.81,0.29
22856,15.63,14.80,14.61,14.75,14.95,-57.62,-858.89,540.04,-0.27,1.27,-2.74
22889,15.63,14.80,14.61,14.75,14.95,-46.88,-845.21,559.57,-3.05,1.15,0.04
22920,15.63,14.80,14.61,14.75,14.95,-29.30,-818.36,569.82,-6.21,3.02,0.59
22951,15.64,14.80,14.61,14.75,14.95,-47.85,-876.95,535.16,2.14,1.28,0.52
22981,15.63,14.80,14.61,14.75,14.95,-39.06,-864.26,543.46,1.59,-2.36,0.93
23012,15.62,14.79,14.61,14.75,14.94,-55.66,-860.35,562.50,3.48,-0.71,0.17
23042,15.63,14.79,14.61,14.76,14.95,-50.29,-875.00,544.43,2.44,-2.31,0.92
23073,15.63,14.79,14.61,14.76,14.95,-52.73,-855.96,559.08,2.68,-1.01,-0.72
23103,15.62,14.79,14.61,14.75,14.94,-52.73,-858.40,572.27,-0.37,-0.69,-0.62
23133,15.63,14.79,14.61,14.75,14.94,-62.01,-872.07,543.95,0.23,2.56,-0.15
23164,15.63,14.78,14.61,14.75,14.94,-52.73,-862.79,547.85,-0.17,-0.43,0.82
23195,15.62,14.78,14.61,14.74,14.94,-64.45,-864.26,579.59,0.56,2.57,-1.61
23226,15.62,14.78,14.61,14.74,14.94,-53.22,-847.66,577.15,-4.15,5.17,-4.07
23256,15.58,14.78,14.61,14.73,14.93,-61.52,-866.21,574.22,-4.85,1.89,-1.20
23287,15.54,14.78,14.61,14.72,14.91,-67.38,-850.59,559.57,0.32,0.99,-1.01
23318,15.54,14.78,14.61,14.72,14.91,-56.64,-866.21,556.64,-2.35,1.05,1.03
23348,15.53,14.78,14.61,14.72,14.91,-73.24,-858.40,552.73,-4.97,1.91,1.24
23379,15.48,14.78,14.61,14.72,14.90,-54.20,-867.19,565.43,-6.05,4.44,-3.87
23410,15.48,14.78,14.61,14.73,14.90,-67.87,-865.23,560.06,4.41,-0.56,0.27
23441,15.45,14.78,14.61,14.72,14.89,-61.52,-837.89,538.57,-2.40,-2.31,0.35
23472,15.42,14.77,14.61,14.72,14.88,-67.38,-879.39,548.34,0.19,-3.05,2.21
23503,15.37,14.77,14.61,14.72,14.87,-89.36,-884.77,523.93,0.05,-3.76,1.78
23534,15.35,14.77,14.61,14.73,14.86,-63.96,-863.77,521.00,7.41,-5.57,-1.35
23565,15.33,14.77,14.61,14.73,14.86,2.44,-862.30,631.84,17.49,-6.13,-0.98
23596,15.33,14.77,14.61,14.73,14.86,-62.99,-855.96,510.25,1.15,-0.18,-3.34
23627,15.31,14.77,14.61,14.74,14.86,-76.66,-871.58,557.62,5.47,-1.92,-1.00
23657,15.31,14.77,14.61,14.75,14.86,-48.83,-838.38,555.66,-0.21,0.97,1.38
23688,15.30,14.77,14.61,14.75,14.86,-54.69,-871.58,566.89,-3.08,2.08,-4.79
23719,15.28,14.78,14.61,14.75,14.86,-53.22,-874.51,559.57,-0.37,0.45,-1.81
23750,15.28,14.78,14.62,14.76,14.86,-69.34,-851.07,555.66,3.70,-1.97,-0.05
23781,15.25,14.78,14.61,14.76,14.85,-48.83,-854.98,588.38,0.10,-3.16,-0.70
23812,15.22,14.77,14.62,14.77,14.84,-72.75,-866.70,542.97,-0.34,-2.04,0.65
23843,15.18,14.77,14.62,14.78,14.84,-39.55,-848.14,574.22,4.57,-3.73,-1.08
23874,15.16,14.77,14.62,14.78,14.83,-46.39,-825.20,585.45,2.29,-1.56,-0.58
23905,15.18,14.77,14.62,14.77,14.84,-59.57,-850.10,580.08,-2.35,1.60,-0.57
23936,15.19,14.77,14.62,14.77,14.84,-53.22,-854.00,566.89,0.57,2.47,-0.79
23967,15.20,14.77,14.62,14.77,14.84,-34.67,-833.01,563.48,-0.87,0.37,-0.96
23998,15.21,14.78,14.62,14.77,14.84,-21.00,-846.19,582.03,-1.99,0.02,-4.40
24029,15.22,14.78,14.62,14.77,14.85,-42.97,-845.21,576.66,-2.43,1.27,-2.11
24060,15.23,14.78,14.62,14.77,14.85,-41.02,-841.80,558.11,0.79,-2.42,-1.39
24091,15.24,14.78,14.62,14.76,14.85,-52.25,-857.42,564.94,-0.85,-0.48,-1.01
24122,15.26,14.78,14.61,14.75,14.85,-40.04,-835.94,576.66,-4.31,3.22,-0.68
24153,15.27,14.77,14.61,14.75,14.85,-85.94,-903.81,519.53,-1.24,-1.13,-0.37
24184,15.29,14.77,14.61,14.75,14.85,-57.62,-857.42,555.66,3.20,-1.59,3.21
24215,15.31,14.77,14.61,14.74,14.86,-67.38,-850.10,569.82,-1.73,0.71,-0.41
24245,15.31,14.77,14.61,14.73,14.86,-41.99,-849.12,561.04,-2.18,0.64,1.63
24276,15.33,14.76,14.61,14.72,14.86,-55.66,-860.84,561.04,-1.88,-0.84,2.78
24307,15.30,14.76,14.61,14.71,14.85,-60.55,-874.02,567.38,-2.74,-2.62,1.20
24338,15.29,14.75,14.61,14.72,14.84,20.02,-831.54,627.44,24.53,-11.56,4.21
24369,15.30,14.75,14.61,14.71,14.84,-63.96,-819.82,575.20,-5.32,-2.18,3.24
24400,15.21,14.74,14.61,14.71,14.82,-135.74,-845.21,508.30,-3.76,-4.02,0.99
24431,15.27,14.74,14.61,14.72,14.83,-27.34,-811.52,619.14,13.52,-2.74,1.84
24462,15.30,14.75,14.60,14.70,14.84,-41.99,-767.09,672.36,-2.87,8.63,-2.24
24493,15.30,14.75,14.61,14.70,14.84,-6.84,-838.87,605.96,2.52,3.27,-5.25
24524,15.37,14.76,14.61,14.70,14.86,-30.27,-841.31,596.68,0.66,1.46,-3.24
24555,15.26,14.76,14.60,14.70,14.83,-65.92,-800.78,591.80,-33.85,12.15,-2.03
24586,15.32,14.77,14.61,14.70,14.85,-50.29,-812.50,599.12,-17.51,14.71,-4.15
24617,15.35,14.78,14.60,14.70,14.86,-6.84,-866.21,545.41,-20.71,5.51,-2.40
24647,15.31,14.79,14.61,14.71,14.85,-86.43,-876.46,491.21,-24.60,5.08,0.77
24677,15.48,14.80,14.61,14.72,14.90,-155.76,-877.93,571.78,10.39,3.34,-0.96
24708,15.44,14.81,14.61,14.72,14.89,-15.14,-863.28,554.20,-13.47,4.17,-2.54
24738,15.43,14.82,14.61,14.73,14.90,-33.20,-875.98,439.45,4.18,1.26,-4.36
24769,15.51,14.84,14.62,14.75,14.93,-84.47,-885.74,526.86,-0.28,-4.37,0.82
24799,15.46,14.85,14.62,14.77,14.92,-72.75,-882.32,533.20,-1.89,1.51,-1.53
24830,15.46,14.85,14.62,14.78,14.93,-10.74,-875.00,551.76,11.75,1.37,0.02
24861,15.52,14.87,14.62,14.79,14.95,-57.62,-867.68,550.29,2.50,-2.21,-1.67
24891,15.44,14.87,14.62,14.80,14.93,-71.78,-853.03,590.33,-4.73,-2.49,-2.87
24922,15.41,14.87,14.63,14.80,14.93,-60.06,-877.93,528.32,2.72,4.53,-3.91
24953,15.38,14.88,14.63,14.81,14.92,-45.90,-858.89,530.76,-2.15,-2.56,-2.58
24983,15.35,14.88,14.63,14.81,14.92,-70.31,-881.35,530.27,-2.27,-4.76,-3.21
25014,15.36,14.88,14.63,14.81,14.92,-55.18,-863.28,554.20,-1.32,-0.58,-1.11
25044,15.34,14.88,14.63,14.82,14.91,-41.99,-865.72,527.83,0.94,2.24,-1.82
25076,15.32,14.88,14.63,14.82,14.91,-2.44,-861.33,528.81,11.84,-1.60,-2.56
25106,15.33,14.88,14.63,14.82,14.92,-41.02,-865.72,548.34,-3.07,-0.11,0.20
25137,15.34,14.88,14.63,14.82,14.92,-60.55,-861.82,550.78,-0.29,0.81,0.06
25168,15.34,14.88,14.63,14.82,14.92,-36.13,-859.86,562.01,-0.76,3.00,-2.92
25199,15.33,14.88,14.63,14.82,14.91,-40.04,-887.21,519.04,-0.48,0.21,1.48
25230,15.33,14.87,14.63,14.82,14.91,-46.88,-855.47,561.52,3.33,-1.24,1.05
25261,15.33,14.87,14.63,14.82,14.91,-49.32,-860.84,535.16,2.85,-2.21,0.27
25292,15.33,14.87,14.63,14.82,14.91,-56.64,-857.91,559.08,-1.98,0.02,1.16
25323,15.33,14.87,14.63,14.82,14.91,-56.64,-855.47,530.76,0.83,0.16,1.27
25354,15.31,14.86,14.63,14.82,14.91,-35.64,-856.93,581.05,0.67,1.04,-1.04
25385,15.30,14.86,14.63,14.83,14.90,-44.43,-847.66,548.83,-3.02,0.35,3.07
25416,15.29,14.86,14.63,14.83,14.90,-58.59,-874.02,536.62,-0.73,-3.95,0.50
25447,15.29,14.85,14.63,14.84,14.90,-38.09,-872.07,563.48,3.14,0.20,1.61
25478,15.29,14.84,14.63,14.83,14.90,-43.46,-855.47,552.25,2.04,0.07,3.79
25509,15.29,14.84,14.63,14.83,14.90,-40.53,-854.49,579.59,-0.32,0.64,-1.76
25540,15.29,14.84,14.63,14.82,14.90,-42.97,-842.29,559.08,-1.64,5.22,0.98
25571,15.30,14.84,14.63,14.81,14.89,-44.92,-864.75,559.57,-0.11,2.16,-1.53
25601,15.30,14.83,14.62,14.80,14.89,-41.02,-853.52,556.15,0.88,2.31,-1.73
25632,15.35,14.83,14.62,14.79,14.90,-54.20,-860.84,553.22,-4.24,4.40,1.38
25663,15.36,14.83,14.62,14.78,14.90,-71.29,-846.19,551.76,-5.11,1.89,-2.23
25694,15.37,14.82,14.62,14.77,14.90,-42.97,-856.93,555.18,3.29,4.47,-3.50
25725,15.39,14.82,14.62,14.76,14.90,-29.30,-835.94,613.77,1.63,0.50,-0.69
25756,15.40,14.82,14.62,14.75,14.90,-62.50,-859.86,563.48,-5.18,3.10,-0.52
25787,15.38,14.81,14.61,14.74,14.89,-27.83,-856.45,547.36,-12.19,1.04,1.69
25818,15.41,14.82,14.61,14.74,14.89,-74.22,-885.74,522.46,-2.18,2.89,-1.69
25849,15.43,14.82,14.61,14.73,14.90,-51.27,-874.51,562.01,1.56,-1.53,-2.05
25880,15.38,14.81,14.61,14.72,14.88,-48.34,-857.42,562.50,-10.41,3.98,-0.29
25911,15.36,14.81,14.61,14.72,14.87,-55.66,-883.30,524.41,-3.48,3.42,1.70
25942,15.34,14.81,14.61,14.72,14.87,-46.39,-866.21,546.87,7.87,-2.73,0.98
25973,15.34,14.80,14.61,14.72,14.87,-25.88,-873.05,560.06,7.07,-4.53,-1.21
26004,15.32,14.80,14.61,14.72,14.86,-95.70,-881.84,498.05,-4.72,0.72,0.60
26035,15.29,14.80,14.61,14.73,14.86,-53.71,-848.63,552.25,2.34,0.76,-1.14
26066,15.30,14.80,14.61,14.73,14.86,-23.44,-867.19,574.22,3.66,5.24,-0.80
26097,15.32,14.80,14.61,14.73,14.86,-58.11,-876.95,529.79,1.07,-0.53,-0.73
26127,15.31,14.81,14.61,14.73,14.86,-39.06,-835.45,549.32,-4.74,3.79,-0.53
26158,15.30,14.81,14.61,14.73,14.86,-38.57,-866.21,559.08,-8.73,4.98,-2.82
26189,15.27,14.82,14.61,14.73,14.86,-25.39,-870.61,546.87,-1.32,1.40,-1.16
26220,15.26,14.82,14.61,14.74,14.86,-54.20,-869.14,526.86,1.44,-2.14,-2.60
26251,15.25,14.82,14.62,14.76,14.86,-64.45,-878.91,527.34,7.06,-0.56,-1.02
26282,15.21,14.82,14.62,14.77,14.86,-30.76,-861.33,542.48,4.81,-2.15,-0.32
26313,15.18,14.82,14.62,14.77,14.85,-37.11,-861.33,549.80,3.13,-0.28,-0.44
26343,15.19,14.82,14.62,14.78,14.85,-64.45,-881.84,541.50,2.45,-1.98,0.21
26373,15.16,14.82,14.62,14.78,14.85,-33.69,-865.23,551.27,5.74,-6.74,-0.92
26404,15.16,14.81,14.62,14.78,14.84,-28.81,-844.24,577.15,3.25,0.60,2.44
26434,15.18,14.81,14.62,14.78,14.85,-26.86,-846.19,567.87,-3.02,1.61,1.00
26465,15.22,14.81,14.62,14.78,14.86,-70.31,-876.95,536.62,5.83,-2.47,1.15
26495,15.23,14.81,14.62,14.79,14.86,-62.99,-878.91,529.30,4.31,-0.18,4.41
26529,15.27,14.81,14.62,14.79,14.87,-50.29,-857.42,565.92,6.07,-1.38,1.20
26560,15.29,14.80,14.62,14.79,14.88,-64.45,-855.47,567.87,2.79,-2.67,1.54
26590,15.28,14.80,14.62,14.79,14.87,-61.04,-848.14,556.64,-0.44,-2.38,0.97
26621,15.27,14.80,14.62,14.79,14.87,-42.48,-853.03,573.24,-1.14,-2.80,0.48
26651,15.27,14.79,14.62,14.78,14.86,-49.32,-870.61,560.06,4.38,-0.75,-0.56
26682,15.30,14.79,14.62,14.76,14.87,-59.57,-873.54,546.39,-1.36,0.41,1.85
26714,15.35,14.78,14.61,14.75,14.87,-57.13,-855.96,562.01,-0.63,-2.50,2.40
26746,15.39,14.78,14.61,14.74,14.88,-49.32,-842.29,576.17,2.47,-1.37,2.76
26776,15.41,14.77,14.61,14.72,14.88,-65.43,-881.84,542.48,5.79,-3.88,2.77
26807,15.40,14.76,14.61,14.71,14.87,-40.53,-853.03,547.36,9.50,-3.55,2.83
26838,15.36,14.76,14.61,14.70,14.86,-15.63,-824.22,604.00,11.42,-6.11,2.63
26869,15.29,14.75,14.61,14.70,14.84,-24.41,-824.22,596.68,2.61,-5.78,1.90
26900,15.26,14.75,14.61,14.70,14.83,-13.67,-836.43,588.87,2.38,-4.79,-1.89
26931,15.21,14.75,14.61,14.70,14.82,-74.22,-841.80,552.25,-10.72,1.39,-1.98
26962,15.23,14.75,14.62,14.71,14.83,-79.10,-855.96,596.19,3.31,4.34,-3.73
26993,15.24,14.76,14.62,14.72,14.83,-29.79,-831.05,602.05,3.73,1.66,-2.68
27024,15.26,14.76,14.62,14.71,14.84,-32.71,-803.22,611.33,1.06,2.98,-4.33
27055,15.28,14.76,14.62,14.71,14.84,-77.64,-877.93,543.95,-10.40,6.05,-1.88
27086,15.26,14.77,14.62,14.71,14.84,-37.11,-849.61,567.87,-5.68,-0.98,-0.85
27117,15.27,14.77,14.63,14.71,14.84,-78.61,-824.71,594.73,-10.59,7.92,-2.68
27148,15.26,14.78,14.63,14.71,14.85,-31.74,-824.22,604.00,-14.34,10.89,-3.18
27179,15.26,14.79,14.66,14.73,14.86,-21.97,-841.80,587.89,-12.56,-0.77,-9.88
27210,15.16,14.80,14.69,14.74,14.85,-72.75,-885.74,505.37,-5.76,-8.71,-5.08
27241,15.13,14.80,14.71,14.75,14.85,-16.11,-806.64,647.46,-5.53,7.31,-5.14
27272,15.17,14.81,14.72,14.77,14.87,-20.02,-861.82,535.16,2.26,7.94,-1.86
27302,15.14,14.82,14.74,14.79,14.87,-7.81,-875.49,518.55,4.15,-9.63,-6.69
27333,15.08,14.82,14.76,14.80,14.86,-70.80,-909.67,520.51,3.12,-10.31,-3.89
27364,15.05,14.82,14.76,14.81,14.86,10.25,-819.34,590.33,3.46,4.61,-3.85
27395,15.04,14.83,14.75,14.82,14.86,-41.99,-881.35,547.36,-3.17,2.37,-0.40
27426,15.05,14.84,14.75,14.82,14.86,-29.30,-834.47,571.29,6.02,-2.53,-2.24
27457,15.11,14.85,14.74,14.81,14.88,-47.36,-846.19,599.12,2.52,4.22,1.40
27488,15.12,14.85,14.74,14.80,14.88,-52.73,-873.54,543.46,-8.40,6.10,-3.76
27519,15.12,14.86,14.74,14.80,14.88,27.83,-861.33,556.64,0.70,2.52,-4.97
27550,15.18,14.86,14.73,14.79,14.89,-81.05,-880.37,545.41,-2.74,-0.50,3.34
27581,15.17,14.86,14.73,14.79,14.89,-34.18,-846.68,580.08,-5.54,0.45,0.31
27612,15.18,14.86,14.73,14.79,14.89,-31.25,-874.51,528.32,2.41,0.21,0.31
27643,15.21,14.85,14.73,14.78,14.89,-45.90,-844.24,573.24,-0.21,-0.85,1.97
27674,15.22,14.86,14.72,14.78,14.90,-40.53,-857.42,565.43,-3.83,4.39,0.04
27705,15.22,14.86,14.71,14.78,14.89,-35.16,-870.12,540.04,-5.06,2.72,-2.98
27736,15.23,14.86,14.71,14.78,14.89,-32.23,-864.26,562.99,1.47,0.21,0.49
27767,15.24,14.86,14.70,14.78,14.90,-55.66,-856.93,558.59,-8.45,3.93,-0.72
27798,15.23,14.86,14.69,14.78,14.89,-62.01,-851.07,554.20,-3.45,0.68,0.08
27828,15.23,14.86,14.69,14.78,14.89,-18.55,-854.00,579.10,-0.63,-0.92,2.18
27860,15.24,14.86,14.68,14.78,14.89,-51.76,-887.21,535.64,-2.40,3.44,-0.46
27891,15.24,14.85,14.68,14.78,14.89,-45.90,-872.56,562.99,-2.85,-0.63,1.54
27921,15.25,14.85,14.68,14.78,14.89,-45.90,-864.75,566.41,0.44,5.31,-1.92
27952,15.25,14.85,14.67,14.77,14.89,-37.60,-857.42,562.99,0.15,3.14,1.63
27983,15.25,14.85,14.67,14.77,14.89,-52.73,-888.18,553.71,4.37,0.64,2.08
28013,15.26,14.85,14.66,14.77,14.89,-37.60,-837.89,566.89,-0.18,-1.49,-0.92
28044,15.28,14.85,14.66,14.76,14.89,-45.41,-866.70,541.50,-0.20,0.98,-0.11
28074,15.31,14.85,14.65,14.76,14.89,-56.15,-870.61,556.64,-1.58,-2.53,-0.53
28104,15.35,14.84,14.65,14.75,14.90,-46.88,-853.52,561.04,5.69,1.57,0.72
28135,15.40,14.83,14.64,14.74,14.91,-18.55,-854.00,563.48,3.61,1.30,-0.75
28165,15.43,14.83,14.64,14.74,14.91,-60.06,-875.00,548.34,0.21,1.40,0.66
28196,15.48,14.82,14.64,14.73,14.92,-24.41,-847.17,555.66,0.77,0.98,2.43
28227,15.55,14.81,14.63,14.71,14.93,1.46,-812.01,594.24,-1.86,-2.27,1.09
28257,15.63,14.81,14.62,14.71,14.94,-38.57,-876.95,558.59,0.02,-1.34,4.03
28288,15.70,14.80,14.62,14.71,14.96,-42.97,-891.60,531.25,5.04,-4.60,0.77
28319,15.74,14.79,14.62,14.71,14.96,-43.95,-862.79,577.15,1.53,-2.17,4.21
28349,15.73,14.79,14.61,14.70,14.96,-10.25,-874.02,550.78,-1.15,-0.60,3.55
28380,15.73,14.79,14.61,14.70,14.96,-64.94,-887.70,512.70,-3.30,2.12,0.14
28411,15.76,14.79,14.61,14.69,14.96,-45.41,-803.71,612.30,-12.27,6.05,-0.47
28441,15.74,14.80,14.61,14.69,14.96,-19.53,-857.42,559.57,-15.36,8.18,-3.23
28473,15.68,14.80,14.61,14.69,14.94,-78.61,-910.16,465.82,-1.22,-0.76,-1.21
28503,15.68,14.80,14.61,14.70,14.95,-35.64,-844.24,540.04,3.74,-1.32,0.02
28534,15.70,14.79,14.61,14.69,14.95,9.77,-816.41,615.23,4.81,4.14,-0.72
28565,15.73,14.80,14.61,14.68,14.95,-22.95,-836.43,581.54,-8.94,3.38,-2.74
28596,15.75,14.81,14.61,14.68,14.96,-52.25,-831.54,550.29,-20.75,5.35,-4.79
28627,15.79,14.81,14.60,14.68,14.97,-87.89,-909.18,480.47,-11.60,5.69,-2.56
28658,15.81,14.82,14.61,14.69,14.98,-63.48,-902.83,500.98,3.24,1.56,0.63
28689,15.83,14.81,14.61,14.69,14.98,-37.11,-836.43,565.92,8.76,-0.43,0.19
28720,15.83,14.81,14.61,14.69,14.98,-46.39,-852.05,560.55,2.92,-1.76,0.02
28751,15.82,14.81,14.61,14.69,14.98,-44.43,-863.28,549.80,3.03,-2.18,0.95
28782,15.78,14.81,14.61,14.69,14.97,-45.41,-878.42,530.76,1.60,-2.69,-1.36
28813,15.75,14.81,14.61,14.70,14.96,-64.45,-893.07,523.44,3.63,0.56,-3.63
28844,15.70,14.81,14.61,14.71,14.96,-56.15,-869.14,545.41,7.89,-5.06,-1.55
28875,15.69,14.81,14.61,14.72,14.96,-47.36,-873.05,557.13,2.75,-0.22,-0.90
28906,15.69,14.81,14.62,14.72,14.96,-58.59,-863.77,539.06,-0.34,0.17,-1.34
28937,15.68,14.82,14.62,14.73,14.96,-60.06,-867.19,531.74,1.31,0.07,-1.66
28968,15.66,14.81,14.62,14.73,14.96,-43.95,-855.96,550.78,3.54,-2.69,-1.31
28999,15.67,14.82,14.62,14.72,14.96,-50.78,-858.40,543.95,-3.23,2.92,0.73
29029,15.65,14.82,14.62,14.72,14.95,-55.66,-877.44,547.36,-0.58,-1.05,-1.66
29060,15.63,14.82,14.62,14.73,14.95,-39.06,-830.08,540.53,-1.66,2.83,-1.01
29091,15.62,14.82,14.62,14.72,14.94,-48.34,-852.05,552.25,-0.40,0.64,-2.18
29122,15.62,14.82,14.62,14.72,14.94,-41.02,-860.84,542.97,-2.22,0.79,-1.76
29153,15.62,14.82,14.62,14.72,14.94,-47.36,-871.09,536.13,-2.31,-1.03,0.98
29184,15.60,14.81,14.61,14.71,14.93,-52.73,-885.25,539.06,-1.15,-1.73,0.02
29215,15.57,14.81,14.61,14.70,14.92,-34.67,-840.82,572.75,-2.55,-1.57,0.68
29246,15.53,14.81,14.61,14.68,14.91,-52.25,-862.30,556.64,-31.26,6.60,1.89
29277,15.40,14.81,14.60,14.67,14.87,-27.34,-847.66,563.96,-43.46,10.11,-0.11
29308,15.26,14.80,14.60,14.66,14.83,-59.57,-897.95,515.62,-41.73,5.04,-1.27
29339,15.21,14.81,14.60,14.66,14.82,-58.59,-928.71,444.82,-31.92,12.31,-0.37
29370,15.28,14.81,14.59,14.66,14.84,-67.38,-890.62,509.28,-19.15,8.34,0.05
29401,15.29,14.82,14.60,14.66,14.84,-108.89,-957.03,391.11,-13.77,4.73,-1.42
29432,15.41,14.82,14.60,14.66,14.87,-25.39,-896.00,507.32,23.97,0.69,-2.37
29463,15.43,14.82,14.60,14.65,14.87,-34.67,-894.53,511.72,-2.80,-1.05,-0.77
29494,15.41,14.82,14.60,14.66,14.87,-43.46,-965.33,439.45,10.31,-6.09,0.70
29524,15.49,14.82,14.60,14.66,14.89,-74.22,-942.38,466.80,32.91,-13.22,-1.89
29555,15.50,14.81,14.60,14.66,14.89,-63.96,-881.84,495.12,5.41,-1.60,2.24
29586,15.46,14.81,14.60,14.66,14.88,-68.85,-864.75,525.39,-3.10,-1.63,0.15
29617,15.51,14.81,14.60,14.66,14.90,-75.20,-951.66,438.48,13.16,-2.96,-2.46
29648,15.54,14.81,14.60,14.66,14.90,-30.27,-879.88,527.34,15.73,1.04,-4.96
29678,15.59,14.82,14.60,14.66,14.92,-21.97,-767.58,526.37,-13.82,6.72,-1.21
29709,15.72,14.83,14.60,14.66,14.95,-87.89,-909.67,510.25,-1.69,3.98,-4.20
29739,15.70,14.84,14.60,14.66,14.95,-37.11,-893.55,502.44,-1.70,-1.98,-4.67
29769,15.65,14.85,14.60,14.66,14.94,-71.78,-892.09,486.82,-2.79,2.13,-2.44
29800,15.68,14.86,14.61,14.67,14.95,-74.71,-878.42,533.20,-0.50,4.30,-2.95
29830,15.67,14.87,14.61,14.68,14.96,-61.52,-906.74,472.66,1.30,0.39,-3.59
29861,15.65,14.88,14.61,14.69,14.96,-31.74,-939.94,454.10,8.61,1.23,-1.42
29892,15.66,14.88,14.61,14.70,14.96,-80.57,-888.18,511.72,11.76,-5.01,-2.08
29922,15.64,14.88,14.61,14.70,14.96,-56.64,-882.81,527.34,-5.52,3.31,-1.32
29953,15.64,14.89,14.62,14.71,14.96,-54.69,-901.37,475.10,1.67,3.62,0.34
29984,15.66,14.89,14.62,14.71,14.97,-47.85,-899.41,528.81,1.90,-5.95,-1.25
30014,15.63,14.89,14.62,14.71,14.96,-39.55,-895.51,501.95,5.92,-3.32,0.25
30045,15.65,14.89,14.62,14.72,14.97,-45.41,-879.88,500.98,0.34,0.66,-0.10
30076,15.65,14.88,14.62,14.72,14.97,-70.80,-896.48,490.23,3.57,-2.20,-0.46
30107,15.64,14.88,14.62,14.72,14.97,-40.04,-878.42,533.20,3.97,0.07,-1.39
30138,15.64,14.88,14.62,14.72,14.96,-51.76,-904.30,497.07,0.90,-1.52,-0.41
30169,15.65,14.87,14.62,14.72,14.96,-62.50,-882.81,519.53,-4.01,0.29,1.13
30200,15.66,14.87,14.61,14.71,14.96,-46.39,-868.65,539.06,-2.05,1.05,-0.63
30231,15.65,14.87,14.61,14.71,14.96,-61.04,-895.02,503.42,-3.92,1.23,-1.21
30262,15.64,14.87,14.61,14.70,14.95,-40.04,-877.44,520.51,-1.36,0.36,2.82
30293,15.65,14.86,14.61,14.70,14.96,-55.66,-876.46,497.07,-2.09,-1.66,-0.32
30324,15.66,14.86,14.61,14.69,14.95,-53.22,-890.14,516.60,-8.95,2.20,0.97
30355,15.66,14.86,14.61,14.69,14.95,-52.25,-891.60,480.47,-7.06,2.31,-0.38
30386,15.68,14.85,14.61,14.69,14.96,-46.88,-893.55,503.42,2.89,1.87,-0.24
30417,15.69,14.85,14.60,14.68,14.96,-45.90,-862.30,523.44,-1.47,0.59,-1.38
30448,15.69,14.85,14.60,14.68,14.96,-59.57,-895.51,507.32,-4.14,1.66,-0.18
30479,15.68,14.84,14.60,14.68,14.95,-90.82,-924.32,473.63,7.98,-2.31,-0.53
30510,15.69,14.83,14.60,14.67,14.95,-80.08,-862.30,555.18,2.51,-0.15,0.72
30541,15.72,14.83,14.60,14.67,14.96,-76.17,-892.58,504.39,-9.22,0.25,2.32
30573,15.74,14.83,14.60,14.66,14.96,-49.32,-868.65,554.69,-4.89,-1.92,-0.09
30604,15.77,14.83,14.60,14.65,14.96,-13.18,-841.31,545.90,-21.18,2.02,4.31
30635,15.81,14.83,14.59,14.65,14.97,-57.62,-892.09,483.89,-16.80,10.27,2.84
30666,15.87,14.83,14.60,14.65,14.99,-43.46,-805.66,545.90,13.78,-6.55,1.08
30697,15.82,14.83,14.60,14.65,14.97,14.65,-807.62,615.23,22.41,-13.27,-0.16
30728,15.85,14.83,14.60,14.65,14.98,-143.07,-1001.46,371.58,-7.37,-1.69,1.45
30759,15.85,14.83,14.60,14.66,14.98,-141.11,-964.84,405.76,0.40,0.03,-1.60
30790,15.81,14.82,14.60,14.67,14.97,57.13,-834.47,581.54,71.76,-27.46,-5.16
30821,15.72,14.81,14.60,14.66,14.95,-33.69,-879.88,551.76,20.05,-10.97,0.37
30852,15.67,14.80,14.60,14.66,14.93,-85.45,-892.58,510.74,6.63,-8.63,2.82
30883,15.66,14.80,14.60,14.67,14.93,-79.10,-839.36,582.52,4.63,2.27,-3.37
30914,15.62,14.80,14.60,14.67,14.92,-83.01,-872.07,506.84,-0.03,0.91,-2.84
30945,15.64,14.80,14.60,14.67,14.93,-84.47,-906.74,524.90,-0.06,1.37,-2.67
30975,15.69,14.81,14.60,14.66,14.94,-79.59,-882.32,532.23,-7.51,3.51,0.31
31006,15.70,14.82,14.60,14.66,14.94,-101.56,-911.62,458.98,-7.87,0.32,-2.83
31037,15.74,14.82,14.60,14.66,14.95,-83.01,-924.32,498.54,-13.60,6.02,-0.60
31068,15.75,14.82,14.60,14.66,14.96,-87.40,-903.81,497.07,-8.59,6.68,-1.15
31099,15.72,14.82,14.60,14.66,14.95,-74.22,-916.50,489.75,0.84,-1.51,-1.34
31130,15.70,14.82,14.60,14.66,14.94,-87.89,-917.97,462.89,9.74,-8.21,-1.15
31161,15.69,14.82,14.60,14.65,14.94,-85.94,-893.07,499.51,8.80,-3.20,-0.46
31192,15.71,14.82,14.60,14.66,14.95,-62.01,-876.46,512.70,-2.53,-0.55,1.30
31223,15.71,14.82,14.60,14.66,14.95,-82.03,-907.23,477.05,-7.98,3.15,1.60
31254,15.70,14.81,14.60,14.66,14.94,-56.15,-877.93,514.65,8.08,-1.36,0.54
31285,15.71,14.81,14.60,14.66,14.95,-42.48,-870.61,526.37,8.21,-4.25,0.48
31315,15.72,14.81,14.60,14.66,14.95,-55.18,-871.58,518.55,3.59,-1.68,-1.40
31346,15.71,14.81,14.60,14.67,14.95,-52.25,-875.49,521.00,4.13,-0.33,-1.48
31376,15.69,14.81,14.60,14.67,14.94,-46.88,-848.63,525.39,3.06,1.04,0.21
31407,15.69,14.81,14.60,14.68,14.94,-48.83,-875.49,528.81,5.20,-0.84,0.92
31437,15.70,14.81,14.60,14.67,14.94,-45.41,-869.14,554.20,-3.33,3.34,-0.43
31467,15.69,14.81,14.60,14.67,14.94,-57.13,-892.58,497.56,-0.97,-1.38,-1.02
31498,15.68,14.81,14.60,14.66,14.94,-39.55,-886.72,536.13,-3.44,-1.07,1.92
31529,15.66,14.81,14.60,14.66,14.93,-60.06,-897.46,496.09,-11.84,2.55,0.00
31559,15.61,14.81,14.60,14.65,14.92,-73.24,-882.81,493.16,-16.71,-0.82,2.15
31590,15.54,14.80,14.60,14.65,14.90,-57.62,-892.58,480.96,-7.64,1.93,1.92
31620,15.47,14.80,14.60,14.65,14.88,-94.24,-875.49,530.76,-10.83,3.72,-1.50
31651,15.45,14.80,14.59,14.65,14.87,33.69,-848.63,583.98,8.61,-5.66,0.43
31682,15.47,14.80,14.60,14.65,14.88,-43.95,-884.77,496.58,-3.45,1.62,0.09
31712,15.46,14.80,14.60,14.65,14.88,-63.96,-885.25,539.55,-6.31,1.61,-6.63
31743,15.46,14.80,14.59,14.65,14.88,-41.02,-939.45,504.88,-2.21,-0.52,-2.56
31774,15.42,14.80,14.60,14.65,14.87,-84.96,-949.71,406.74,-3.30,-0.64,0.36
31805,15.47,14.80,14.60,14.65,14.88,-78.12,-917.48,419.43,32.70,-5.01,-3.27
31836,15.53,14.81,14.60,14.65,14.90,-31.74,-881.84,515.62,-4.28,-0.40,-4.09
31867,15.41,14.81,14.59,14.65,14.87,-67.38,-879.88,509.77,-28.28,7.78,-0.98
31898,15.55,14.82,14.60,14.66,14.91,-74.22,-995.61,404.79,38.05,-3.18,-3.21
31929,15.58,14.82,14.60,14.66,14.91,-20.02,-905.27,524.41,7.31,-3.52,-0.33
31960,15.50,14.82,14.60,14.66,14.90,-66.41,-846.19,572.27,-15.22,2.22,0.34
31991,15.58,14.82,14.60,14.67,14.92,-136.72,-922.85,442.87,13.83,1.58,-0.98
32022,15.68,14.83,14.60,14.68,14.95,-16.60,-846.68,585.45,21.04,-2.17,0.05
32053,15.68,14.83,14.60,14.68,14.95,-35.16,-930.18,429.20,-1.56,0.01,-1.19
32083,15.78,14.83,14.61,14.71,14.98,-104.49,-924.80,444.34,25.61,-5.14,-2.11
32114,15.79,14.83,14.61,14.73,14.99,-0.49,-824.22,618.16,16.08,-7.52,1.56
32145,15.73,14.83,14.61,14.74,14.98,-60.55,-885.25,478.03,-4.55,1.42,-0.11
32176,15.75,14.84,14.61,14.74,14.99,-45.41,-881.84,521.48,5.64,-0.94,-1.86
32207,15.77,14.84,14.61,14.75,14.99,-1.95,-852.54,548.83,2.11,-1.50,-0.47
32238,15.79,14.84,14.61,14.75,15.00,-66.89,-897.95,495.61,-5.25,0.71,1.87
32269,15.80,14.85,14.61,14.76,15.01,-65.92,-900.88,497.56,3.61,-3.10,-2.17
32300,15.79,14.85,14.61,14.77,15.00,-58.59,-885.74,532.71,4.69,-5.72,0.80
32331,15.77,14.85,14.61,14.78,15.00,-76.17,-870.12,531.25,-1.61,-3.31,-0.67
32362,15.76,14.85,14.62,14.78,15.00,-59.57,-865.72,552.25,1.40,2.27,0.35
32393,15.72,14.85,14.61,14.78,14.99,-17.58,-895.51,532.71,-1.77,-0.84,0.58
32424,15.74,14.85,14.61,14.77,14.99,-95.21,-887.70,521.48,-5.73,-0.39,-0.08
32455,15.74,14.85,14.61,14.77,14.99,-80.08,-870.12,560.55,-11.29,2.78,1.63
32486,15.72,14.85,14.61,14.76,14.99,-49.32,-882.81,501.46,-3.66,-1.07,-0.84
32517,15.73,14.84,14.61,14.76,14.99,-56.15,-871.09,519.04,-7.90,1.98,0.57
32548,15.74,14.84,14.61,14.75,14.99,-72.75,-896.97,495.61,-4.02,1.57,-1.15
32578,15.74,14.84,14.61,14.75,14.99,-57.62,-887.70,529.79,-3.22,-0.06,1.83
32609,15.73,14.84,14.61,14.75,14.98,-62.01,-894.53,500.49,-1.15,-2.26,1.69
32640,15.74,14.83,14.61,14.75,14.98,-53.22,-892.58,501.95,2.72,-4.89,3.75
32671,15.76,14.83,14.61,14.75,14.99,-80.08,-877.93,536.13,2.57,-3.08,6.55
32702,15.80,14.82,14.61,14.74,14.99,-91.31,-866.21,571.29,2.25,-0.99,2.95
32733,15.81,14.82,14.60,14.73,14.99,-32.71,-856.93,554.20,-5.52,2.35,0.45
32764,15.86,14.81,14.60,14.72,15.00,-64.94,-883.30,517.58,-3.23,-1.47,4.04
32795,15.90,14.81,14.60,14.72,15.01,-58.11,-878.91,537.11,5.42,0.51,-1.28
32826,15.91,14.81,14.60,14.70,15.01,-41.02,-876.46,556.64,-10.81,2.63,-0.50
32857,15.94,14.81,14.60,14.69,15.01,-55.18,-897.95,514.16,-8.21,4.55,3.27
32888,15.97,14.81,14.60,14.70,15.02,-91.31,-907.71,475.10,1.82,3.15,0.37
32919,15.96,14.80,14.60,14.69,15.01,14.65,-790.04,660.16,-10.01,2.97,-2.41
32950,15.96,14.80,14.59,14.68,15.01,-47.85,-896.97,489.75,-18.31,9.71,0.99
32980,15.97,14.80,14.59,14.67,15.01,-71.78,-896.00,464.36,-22.98,7.98,1.56
33011,15.99,14.80,14.59,14.67,15.01,-137.21,-1005.37,383.30,6.05,-1.08,-5.61
33041,15.93,14.81,14.59,14.67,15.00,-37.11,-883.30,492.19,7.42,5.79,-5.81
33071,15.90,14.80,14.59,14.66,14.99,-43.46,-895.51,521.00,-9.21,2.96,3.70
33102,15.89,14.80,14.59,14.67,14.99,-128.42,-979.00,357.42,14.25,-9.31,-0.23
33132,15.85,14.80,14.60,14.68,14.98,-78.12,-930.66,474.61,22.81,-4.40,-5.89
33163,15.78,14.80,14.60,14.69,14.97,-25.39,-861.33,572.75,11.10,1.07,-1.86
33194,15.71,14.80,14.60,14.69,14.95,-64.45,-880.86,498.54,-2.37,4.13,-6.37
33224,15.60,14.80,14.60,14.70,14.93,-72.27,-896.00,464.84,6.44,-3.24,-1.73
33255,15.52,14.80,14.60,14.71,14.91,-47.36,-861.33,578.61,21.99,-6.98,-1.05
33286,15.47,14.80,14.61,14.73,14.90,-43.95,-866.70,539.06,10.24,-0.85,-0.06
33316,15.42,14.80,14.61,14.74,14.89,-57.62,-887.21,518.07,16.31,-5.69,-2.71
33347,15.37,14.80,14.61,14.74,14.88,-39.55,-857.91,549.32,5.01,-0.62,-2.46
33377,15.32,14.81,14.61,14.74,14.87,-50.29,-863.28,528.81,2.00,0.05,-2.82
33408,15.31,14.81,14.61,14.74,14.87,-58.11,-862.30,527.34,-0.15,-0.69,-3.81
33439,15.30,14.81,14.61,14.74,14.87,-38.09,-850.10,545.41,-2.74,1.52,-0.33
33470,15.30,14.82,14.61,14.74,14.87,-44.43,-889.16,529.30,-0.91,1.82,-2.44
33501,15.31,14.82,14.61,14.73,14.87,-52.73,-852.05,558.11,0.59,2.57,-0.30
33532,15.42,14.82,14.61,14.73,14.90,-98.14,-914.06,546.87,-1.27,3.71,1.05
33563,15.43,14.83,14.61,14.73,14.90,-88.87,-909.67,500.49,-1.15,1.83,-1.15
33594,15.44,14.83,14.61,14.73,14.90,-62.50,-874.51,543.46,-0.46,1.51,-2.43
33625,15.45,14.83,14.61,14.73,14.91,-41.50,-873.05,529.30,1.67,3.95,-0.39
33656,15.45,14.83,14.61,14.73,14.91,-54.69,-845.21,560.55,-6.76,0.82,-0.56
33687,15.43,14.83,14.61,14.73,14.90,-46.88,-875.49,537.11,-6.23,-0.75,1.40
33718,15.43,14.83,14.61,14.74,14.90,-52.73,-887.21,521.48,6.45,-4.14,-1.50
33749,15.45,14.83,14.61,14.74,14.91,-61.04,-873.54,558.11,4.42,-1.49,1.39
33780,15.45,14.83,14.61,14.74,14.91,-57.13,-878.42,527.83,0.70,3.06,0.52
33811,15.46,14.83,14.61,14.74,14.91,-57.13,-870.61,540.53,0.30,-2.73,-1.27
33842,15.45,14.83,14.61,14.74,14.91,-51.76,-872.07,534.67,-0.12,-1.67,-0.69
33873,15.43,14.83,14.61,14.74,14.90,-60.55,-883.79,524.41,0.30,-3.27,-0.17
33903,15.42,14.83,14.61,14.73,14.90,-42.48,-868.16,529.79,-6.50,-2.42,0.96
33934,15.45,14.82,14.61,14.71,14.90,-33.20,-846.19,559.08,-17.82,6.78,-0.68
33965,15.46,14.82,14.60,14.70,14.89,-72.75,-902.34,494.63,-19.81,4.32,-1.47
33996,15.47,14.82,14.60,14.67,14.89,-57.13,-855.47,535.16,-31.53,11.19,-0.43
34027,15.55,14.82,14.59,14.66,14.91,-53.71,-918.95,465.82,-38.27,13.87,-0.85
34058,15.61,14.82,14.59,14.66,14.92,-110.84,-1001.95,375.00,-23.47,12.10,-1.34
34089,15.49,14.81,14.60,14.67,14.89,-200.20,-954.59,336.43,-9.18,-2.00,1.53
34120,15.48,14.80,14.60,14.68,14.89,0.49,-761.23,675.78,29.41,-9.59,-0.18
34151,15.48,14.79,14.60,14.68,14.89,-63.48,-920.90,470.70,12.10,-9.45,1.77
34182,15.50,14.79,14.60,14.71,14.90,-49.80,-933.59,515.14,36.47,-20.98,1.97
34213,15.63,14.78,14.60,14.70,14.93,-50.78,-828.61,607.42,13.37,0.66,2.19
34244,15.53,14.78,14.60,14.70,14.90,-95.70,-833.01,542.97,-26.39,10.57,0.11
34275,15.59,14.80,14.60,14.70,14.92,-23.93,-899.41,470.70,-5.01,3.12,-8.52
34306,15.58,14.81,14.60,14.69,14.92,-46.39,-909.67,479.98,-8.66,4.82,-4.30
34337,15.52,14.82,14.60,14.69,14.91,-63.96,-856.45,520.02,-13.06,5.37,-6.07
34368,15.69,14.85,14.60,14.70,14.96,-102.54,-868.65,559.08,-6.64,5.02,-6.48
34399,15.62,14.85,14.60,14.70,14.94,-93.26,-943.85,461.91,-6.45,-2.41,1.20
34432,15.48,14.85,14.61,14.72,14.91,-24.90,-943.36,432.13,17.55,-11.42,-0.77
34463,15.55,14.87,14.61,14.74,14.94,-121.58,-886.23,497.07,28.91,-4.02,-4.44
34494,15.43,14.87,14.62,14.76,14.92,-43.46,-864.26,551.76,9.69,-5.59,-1.88
34525,15.32,14.88,14.63,14.78,14.90,-17.58,-890.14,438.48,28.76,-12.74,-4.96
34555,15.38,14.89,14.63,14.79,14.92,-33.20,-844.73,615.23,16.61,-11.98,-1.78
34587,15.35,14.89,14.63,14.81,14.92,-104.00,-908.20,501.95,0.91,-2.58,-0.18
34617,15.30,14.88,14.63,14.82,14.91,-7.81,-870.12,492.19,8.31,-1.11,-1.18
34648,15.34,14.88,14.63,14.83,14.92,-48.34,-862.79,535.64,13.26,-6.92,-1.84
34678,15.34,14.88,14.64,14.84,14.92,-38.09,-880.37,551.27,-3.35,-5.98,-2.41
34709,15.31,14.89,14.64,14.84,14.92,-42.97,-869.14,534.18,2.47,1.00,1.05
34739,15.30,14.88,14.64,14.85,14.92,-42.97,-902.34,481.93,11.98,-6.53,-0.91
34769,15.32,14.88,14.64,14.84,14.92,-67.87,-845.21,556.15,0.24,-1.35,0.10
34800,15.32,14.88,14.64,14.84,14.92,-16.11,-853.03,657.71,-4.02,5.56,1.76
34831,15.32,14.88,14.64,14.84,14.92,-26.86,-854.00,542.48,1.60,0.95,1.05
34861,15.31,14.87,14.64,14.83,14.91,-56.15,-870.12,564.94,-4.25,-2.34,0.40
34892,15.31,14.87,14.64,14.83,14.91,-46.88,-867.68,565.92,3.48,3.07,0.10
34923,15.31,14.87,14.63,14.83,14.91,-29.30,-862.79,551.27,-0.39,0.47,2.50
34953,15.31,14.87,14.63,14.83,14.91,-22.46,-885.25,543.46,2.97,-1.18,1.40
34984,15.31,14.86,14.64,14.82,14.91,-37.60,-862.79,555.18,5.47,0.01,1.13
35015,15.30,14.86,14.63,14.83,14.90,-43.46,-852.05,559.57,-2.04,0.57,2.66
35045,15.29,14.85,14.64,14.83,14.90,-73.24,-878.91,519.04,3.55,-2.99,1.44
35076,15.26,14.84,14.64,14.84,14.90,-41.99,-840.33,574.71,6.08,-2.42,0.16
35107,15.24,14.83,14.64,14.85,14.89,-14.16,-837.40,573.24,4.89,0.21,3.06
35138,15.22,14.83,14.64,14.86,14.89,-60.06,-884.77,517.58,-0.49,-1.56,-0.32
35169,15.21,14.82,14.64,14.85,14.88,-30.76,-810.55,603.52,6.06,-1.02,-0.52
35200,15.20,14.82,14.64,14.85,14.88,-29.30,-860.35,538.09,0.58,1.62,-1.21
35231,15.20,14.82,14.64,14.85,14.87,-54.20,-855.47,581.05,3.31,-2.68,-0.56
35262,15.20,14.81,14.64,14.84,14.87,-10.25,-846.68,575.68,-0.41,1.08,1.27
35293,15.22,14.81,14.63,14.82,14.87,-48.83,-868.65,539.06,-3.37,4.74,2.16
35324,15.22,14.81,14.63,14.80,14.87,-61.52,-863.28,543.46,-1.79,-0.35,0.07
35355,15.24,14.81,14.63,14.79,14.87,-30.76,-856.45,572.27,3.53,-1.01,0.38
35386,15.28,14.81,14.63,14.77,14.87,-31.25,-849.12,555.66,-1.48,2.84,1.31
35417,15.31,14.81,14.62,14.76,14.87,-53.22,-852.05,554.69,-13.65,5.44,-0.58
35448,15.33,14.81,14.62,14.75,14.88,-48.83,-875.98,528.81,2.53,0.49,-3.67
35478,15.36,14.80,14.62,14.74,14.88,-57.13,-842.77,571.78,-5.95,3.64,0.66
35509,15.37,14.80,14.62,14.73,14.88,-62.50,-859.37,546.87,-4.48,2.75,0.95
35540,15.35,14.80,14.62,14.75,14.88,-67.38,-872.56,535.16,3.69,-7.22,1.53
35571,15.34,14.80,14.62,14.75,14.88,-25.39,-884.28,558.11,9.24,-3.28,2.28
35602,15.40,14.80,14.62,14.76,14.89,-58.59,-826.17,604.00,9.92,1.65,2.33
35633,15.42,14.80,14.62,14.76,14.90,-22.95,-816.41,590.82,2.02,1.89,-1.90
35664,15.44,14.80,14.62,14.76,14.91,-19.53,-860.84,578.12,-2.33,2.56,-3.27
35695,15.52,14.81,14.62,14.76,14.93,-45.41,-854.00,559.57,7.17,2.34,0.62
35726,15.53,14.81,14.62,14.76,14.93,-55.18,-853.52,560.55,0.05,-1.36,-1.87
35757,15.51,14.81,14.62,14.76,14.93,-43.46,-854.00,565.92,-3.57,3.19,-2.24
35788,15.46,14.81,14.62,14.77,14.92,-61.04,-859.37,562.99,-5.05,0.60,-0.09
35819,15.40,14.81,14.63,14.78,14.90,-55.18,-873.05,542.48,0.28,0.11,0.27
35850,15.38,14.82,14.63,14.79,14.90,-57.13,-859.86,554.20,0.93,-0.84,-3.76
35881,15.32,14.82,14.63,14.79,14.89,-62.50,-852.54,556.64,-0.38,-2.11,-0.10
35912,15.26,14.82,14.63,14.80,14.88,-51.76,-857.42,572.75,5.44,-3.79,-0.81
35943,15.22,14.82,14.63,14.81,14.87,-48.83,-855.96,566.41,-1.44,-1.47,-0.60
35974,15.20,14.82,14.63,14.81,14.87,-56.64,-869.14,556.15,0.91,-2.54,0.87
36005,15.17,14.81,14.64,14.81,14.86,-23.93,-839.36,572.75,0.48,-1.18,-0.84
36035,15.17,14.82,14.64,14.81,14.86,-37.60,-860.84,574.22,0.94,1.70,-4.18
36067,15.20,14.82,14.63,14.81,14.86,-38.57,-841.31,581.54,0.17,2.53,0.57
36097,15.23,14.82,14.63,14.81,14.87,-41.50,-857.42,562.99,6.11,-0.56,-0.28
36128,15.24,14.82,14.63,14.81,14.87,-36.62,-854.49,556.15,0.96,-1.37,-1.41
36159,15.26,14.81,14.63,14.80,14.88,-51.27,-856.45,577.64,0.95,-0.27,0.04
36190,15.28,14.82,14.63,14.79,14.88,-59.57,-854.49,564.94,0.25,-0.82,1.85
36221,15.31,14.81,14.64,14.79,14.89,-61.04,-875.98,544.43,0.45,-3.47,-0.69
36252,15.30,14.81,14.64,14.79,14.89,-40.53,-858.40,574.71,0.85,-1.67,-1.50
36283,15.30,14.81,14.64,14.77,14.88,-49.80,-864.75,575.20,0.69,-2.80,0.34
36314,15.29,14.80,14.64,14.76,14.87,-45.90,-835.45,565.92,-3.98,-3.22,1.29
36344,15.29,14.80,14.64,14.74,14.87,-50.29,-840.33,582.52,-9.06,4.05,-0.55
36374,15.25,14.79,14.64,14.75,14.86,-59.57,-879.39,526.86,-4.34,-2.41,-1.95
36405,15.19,14.79,14.64,14.75,14.84,-42.48,-869.14,562.99,-1.48,-2.92,-0.75
36435,15.16,14.79,14.63,14.73,14.83,-47.85,-833.01,594.24,-11.40,4.76,-1.79
36466,15.18,14.79,14.62,14.71,14.83,-29.79,-858.89,578.61,-16.98,8.92,-0.05
36496,15.21,14.79,14.62,14.70,14.83,-57.13,-875.49,535.64,-22.83,10.57,0.28
36527,15.19,14.79,14.61,14.68,14.82,-47.36,-885.74,528.32,-19.02,7.26,-1.40
36558,15.19,14.80,14.61,14.68,14.82,-9.28,-884.28,531.74,-18.68,6.86,0.58
36588,15.25,14.80,14.61,14.68,14.83,-82.52,-924.80,444.34,-18.01,11.08,-3.34
36619,15.24,14.81,14.61,14.68,14.83,-50.29,-883.30,536.62,-0.93,-0.52,-0.36
36650,15.24,14.81,14.61,14.70,14.84,-21.00,-862.30,511.72,17.76,-4.82,2.08
36681,15.33,14.81,14.61,14.71,14.87,-71.29,-845.70,584.47,8.90,-6.19,-2.51
36711,15.28,14.81,14.62,14.72,14.86,-79.10,-846.68,544.43,-5.13,-1.70,-0.17
36742,15.41,14.83,14.62,14.74,14.90,-77.15,-902.83,484.86,18.05,5.21,-0.53
36773,15.42,14.84,14.64,14.74,14.91,-37.60,-877.93,539.55,-1.50,-5.11,-1.51
36804,15.30,14.84,14.65,14.73,14.88,-64.45,-869.14,521.48,-6.68,-5.81,-4.32
36835,15.39,14.85,14.67,14.72,14.91,-85.45,-849.61,496.58,-2.89,9.72,-3.25
36866,15.42,14.85,14.69,14.72,14.92,-62.99,-894.53,529.79,5.62,-2.08,-3.38
36897,15.29,14.85,14.70,14.72,14.89,-77.15,-877.44,551.27,-1.83,-11.18,-4.15
36928,15.26,14.85,14.71,14.73,14.88,-63.48,-814.45,635.74,-5.15,6.44,-3.83
36959,15.24,14.85,14.71,14.74,14.89,-44.92,-891.11,504.88,-1.29,1.46,-3.63
36990,15.19,14.85,14.72,14.74,14.88,1.95,-845.21,567.87,-2.58,-8.72,-1.00
37021,15.20,14.86,14.72,14.76,14.88,-40.53,-900.88,490.72,8.21,-3.12,-1.64
37052,15.19,14.86,14.72,14.76,14.89,-46.88,-862.79,566.89,-4.76,1.79,-2.94
37083,15.17,14.87,14.72,14.77,14.88,-43.46,-878.91,539.06,-4.33,2.69,-4.46
37113,15.18,14.87,14.71,14.78,14.89,0.98,-852.05,552.25,10.36,1.40,1.05
37144,15.20,14.87,14.70,14.79,14.89,-29.30,-875.49,533.69,3.26,1.26,-0.84
37175,15.20,14.87,14.70,14.79,14.89,-43.46,-885.74,530.76,-4.28,-1.54,-3.29
37206,15.21,14.88,14.69,14.79,14.89,-59.08,-872.56,542.97,-0.42,2.57,-0.46
37237,15.22,14.88,14.68,14.79,14.89,-73.24,-876.95,533.69,1.19,4.88,-1.43
37268,15.24,14.88,14.67,14.79,14.90,-42.48,-859.86,569.82,-0.41,2.31,0.09
37299,15.24,14.88,14.67,14.79,14.89,-18.55,-876.46,536.62,3.08,0.93,-1.47
37330,15.24,14.88,14.66,14.79,14.89,-34.18,-876.46,539.06,0.29,-4.69,0.25
37361,15.24,14.87,14.66,14.78,14.89,-23.44,-854.98,570.31,1.55,1.58,2.44
37392,15.26,14.87,14.65,14.78,14.89,-43.46,-884.28,510.25,3.62,3.18,-1.23
37423,15.28,14.86,14.65,14.78,14.89,-42.97,-860.84,555.18,-3.08,2.03,2.48
37454,15.29,14.86,14.65,14.77,14.89,-48.83,-847.66,561.04,-2.59,0.84,2.08
37485,15.31,14.86,14.64,14.76,14.89,-30.76,-854.00,525.39,-5.71,6.78,3.82
37516,15.36,14.85,14.64,14.76,14.90,-36.13,-851.56,576.17,2.68,2.47,0.99
37547,15.37,14.84,14.63,14.75,14.90,-25.88,-880.86,541.50,-7.73,3.08,2.85
37578,15.38,14.84,14.63,14.74,14.90,-42.97,-857.91,560.55,-6.89,2.70,1.28
37609,15.42,14.84,14.62,14.73,14.90,-68.36,-897.46,526.86,-6.90,5.92,-4.82
37640,15.43,14.83,14.62,14.73,14.90,-47.85,-887.70,536.13,-10.08,3.41,1.01
37671,15.43,14.83,14.61,14.72,14.90,-36.62,-870.12,525.39,-5.84,3.11,0.01
37702,15.42,14.83,14.61,14.72,14.89,-64.94,-882.81,512.70,-1.95,3.43,-3.31
37732,15.41,14.83,14.61,14.71,14.89,-74.71,-879.39,539.55,3.02,0.59,0.17
37763,15.38,14.82,14.61,14.71,14.88,-44.92,-886.23,523.93,-0.98,-1.96,0.34
37794,15.35,14.82,14.61,14.71,14.87,-55.66,-853.03,532.23,-3.92,-1.16,-1.48
37825,15.36,14.81,14.61,14.71,14.87,-54.20,-886.23,541.99,8.08,-5.36,0.48
37856,15.35,14.81,14.61,14.72,14.87,-60.55,-852.54,549.80,1.23,-3.16,1.17
37887,15.34,14.80,14.61,14.72,14.87,-58.11,-860.35,524.90,0.62,-1.78,1.16
37918,15.35,14.80,14.61,14.71,14.87,-41.50,-875.98,544.92,0.36,-0.83,1.06
37949,15.31,14.80,14.61,14.71,14.86,-73.73,-884.28,495.61,-2.23,-0.60,0.08
37979,15.30,14.80,14.61,14.72,14.86,-81.05,-888.67,521.48,2.78,1.31,-2.60
38010,15.31,14.80,14.61,14.73,14.86,-89.36,-872.56,519.53,1.35,0.24,1.79
38040,15.34,14.80,14.61,14.74,14.87,-56.64,-868.65,550.29,4.04,0.15,-0.71
38071,15.36,14.81,14.61,14.73,14.88,-50.78,-867.19,552.73,-3.60,3.01,-0.67
38101,15.33,14.81,14.61,14.74,14.87,-53.22,-865.23,543.46,1.85,-0.37,-4.95
38132,15.29,14.82,14.61,14.74,14.86,-49.32,-871.58,551.76,-6.14,5.27,-4.85
38162,15.28,14.82,14.61,14.73,14.86,-25.88,-884.77,538.57,-4.70,4.29,-2.34
38193,15.28,14.82,14.61,14.73,14.86,-51.27,-862.30,530.76,-2.86,2.44,-1.08
38223,15.31,14.83,14.61,14.73,14.87,-34.18,-864.75,535.64,-4.26,2.53,-0.11
38254,15.34,14.83,14.61,14.73,14.88,-73.24,-889.16,519.04,-0.49,-0.49,-0.94
38287,15.33,14.83,14.62,14.74,14.88,-43.95,-876.95,537.60,6.99,-3.40,-0.39
38317,15.33,14.83,14.62,14.74,14.88,-40.04,-853.03,552.73,2.66,-2.76,0.84
38348,15.32,14.83,14.62,14.74,14.88,-60.06,-867.19,541.50,-1.29,-3.05,1.94
38379,15.29,14.83,14.62,14.75,14.87,-37.60,-849.12,561.52,1.55,-0.69,0.14
38409,15.31,14.83,14.62,14.75,14.88,-37.11,-856.93,557.13,4.92,0.57,-0.68
38440,15.36,14.83,14.61,14.74,14.89,-50.29,-864.26,542.48,-2.57,0.73,-0.72
38471,15.43,14.84,14.61,14.73,14.90,-47.36,-875.98,546.87,-6.66,2.36,-1.24
38502,15.45,14.84,14.62,14.73,14.91,-41.50,-875.49,523.93,-0.85,-0.15,1.13
38533,15.44,14.84,14.61,14.73,14.91,-50.29,-866.21,541.02,-2.44,0.44,-0.16
38564,15.44,14.84,14.61,14.72,14.90,-56.15,-875.49,536.13,-4.89,0.15,1.00
38595,15.44,14.84,14.61,14.72,14.90,-59.57,-871.58,527.83,-1.95,1.67,-0.84
38626,15.45,14.84,14.61,14.72,14.90,-50.29,-870.12,541.50,-0.44,1.51,-0.69
38657,15.46,14.83,14.61,14.72,14.90,-62.99,-876.95,529.79,-2.66,-0.10,-0.11
38688,15.46,14.83,14.61,14.71,14.90,-38.57,-870.12,531.25,-1.10,1.31,-1.95
38719,15.49,14.83,14.61,14.70,14.91,-42.48,-872.56,540.04,-7.12,1.91,2.85
38750,15.50,14.82,14.60,14.69,14.91,-74.71,-874.02,528.81,-8.51,2.35,0.18
38781,15.51,14.82,14.60,14.69,14.91,-59.08,-892.09,504.88,-12.27,2.55,-0.59
38812,15.49,14.82,14.60,14.68,14.90,-73.73,-895.51,502.93,-12.11,4.12,-0.96
38843,15.43,14.82,14.60,14.68,14.88,-55.18,-876.46,550.78,-2.31,-0.50,-1.63
38874,15.39,14.82,14.60,14.68,14.87,-11.72,-862.30,545.41,-11.07,0.61,-1.27
38904,15.37,14.82,14.60,14.68,14.87,-81.05,-912.11,443.36,-2.66,0.02,-1.82
38935,15.42,14.82,14.60,14.68,14.88,-64.94,-840.33,576.66,7.68,3.55,-0.52
38966,15.42,14.82,14.60,14.67,14.88,-64.94,-880.37,539.55,-14.58,9.81,-1.93
38997,15.37,14.82,14.60,14.67,14.87,-72.27,-926.27,452.64,-4.37,3.61,-1.04
39028,15.41,14.83,14.60,14.68,14.88,-84.47,-886.23,521.48,6.47,-0.47,-1.34
39059,15.48,14.82,14.60,14.68,14.90,-62.99,-847.66,572.27,9.46,0.36,1.42
39090,15.44,14.82,14.60,14.68,14.88,-45.41,-914.55,490.72,-7.68,1.31,2.07
39121,15.49,14.83,14.60,14.69,14.91,-48.34,-945.31,416.50,17.41,-4.05,-5.70
39152,15.54,14.84,14.61,14.70,14.92,4.88,-858.40,551.27,14.30,-4.70,-2.10
39183,15.43,14.84,14.61,14.71,14.90,-64.45,-884.28,482.42,-4.91,-1.09,-2.40
39214,15.46,14.85,14.61,14.72,14.91,-12.21,-932.62,422.85,14.09,0.61,-4.48
39245,15.51,14.86,14.62,14.74,14.93,-40.53,-904.30,490.72,10.69,-5.66,-4.02
39276,15.43,14.86,14.62,14.76,14.92,-85.94,-845.70,559.08,-5.11,-0.90,-2.85
39307,15.44,14.86,14.62,14.77,14.92,-68.36,-841.80,591.80,13.14,5.76,-1.29
39338,15.46,14.87,14.63,14.79,14.94,-50.78,-880.86,500.00,9.52,-2.21,-1.61
39369,15.39,14.87,14.63,14.82,14.93,-53.22,-876.95,541.99,5.56,-12.27,-1.81
39400,15.37,14.88,14.64,14.83,14.93,-58.59,-851.07,581.05,-0.50,2.27,-3.40
39430,15.33,14.88,14.64,14.84,14.92,-31.25,-857.91,545.41,2.83,-1.97,-5.46
39461,15.34,14.89,14.64,14.84,14.93,-64.45,-869.63,546.39,-3.65,1.36,-0.41
39492,15.33,14.90,14.64,14.84,14.93,-39.55,-870.61,533.69,3.69,-1.72,-3.17
39523,15.32,14.90,14.64,14.83,14.92,-21.97,-872.56,539.55,3.19,-2.37,-0.76
39554,15.33,14.90,14.64,14.82,14.92,-41.50,-855.96,569.82,1.58,-3.28,-1.47
39585,15.32,14.90,14.64,14.82,14.92,-56.15,-878.42,523.44,1.79,-2.34,0.19
39616,15.31,14.89,14.64,14.81,14.91,-9.77,-849.12,563.96,-5.38,1.33,1.62
39647,15.32,14.89,14.63,14.80,14.91,-54.20,-886.23,516.60,-4.18,2.21,1.59
39677,15.32,14.89,14.63,14.78,14.91,-28.81,-868.65,547.85,-5.02,0.74,-1.19
39707,15.32,14.90,14.63,14.77,14.90,-47.85,-859.86,562.01,-13.34,5.74,-1.60
39738,15.33,14.90,14.63,14.76,14.91,-50.78,-896.48,494.14,-10.78,5.39,-2.05
39768,15.35,14.90,14.63,14.76,14.91,-28.81,-887.70,501.46,-7.14,-0.45,-0.24
39799,15.35,14.91,14.62,14.75,14.91,-50.29,-889.65,512.70,-9.22,4.42,-0.20
39829,15.36,14.91,14.62,14.75,14.91,-64.45,-882.81,503.91,-7.20,6.57,-0.47
39863,15.36,14.91,14.62,14.75,14.91,-58.11,-888.18,491.21,-1.34,0.47,-0.26
39893,15.36,14.91,14.62,14.75,14.91,-30.76,-876.46,518.07,4.61,0.90,-0.94
39924,15.40,14.91,14.62,14.74,14.92,-44.43,-889.65,521.00,7.32,-2.02,3.28
39955,15.41,14.90,14.62,14.75,14.92,-52.25,-882.81,494.14,4.47,-1.47,-0.21
39985,15.42,14.90,14.62,14.75,14.92,-28.32,-874.51,531.74,5.30,-0.30,2.15
40016,15.45,14.89,14.62,14.74,14.93,-64.94,-872.56,537.11,1.51,2.44,0.88
40047,15.46,14.89,14.62,14.74,14.93,-49.80,-860.84,532.71,0.05,2.47,-1.88
40078,15.49,14.89,14.62,14.74,14.93,-57.13,-864.26,543.46,2.07,0.84,2.85
40108,15.50,14.88,14.62,14.73,14.93,-66.41,-880.37,522.95,-5.22,-0.89,0.95
40139,15.50,14.88,14.61,14.72,14.93,-58.11,-883.79,516.11,-8.36,2.61,0.77
40170,15.49,14.87,14.61,14.72,14.93,-69.34,-918.95,487.79,0.52,-1.15,-0.45
40201,15.49,14.86,14.61,14.72,14.92,-30.76,-861.82,545.90,-0.76,-0.66,0.37
40232,15.45,14.86,14.61,14.71,14.91,-56.15,-901.37,526.37,-7.72,0.59,-0.85
40263,15.35,14.86,14.61,14.71,14.88,-71.78,-915.53,477.05,-4.69,-3.15,-0.34
40294,15.32,14.85,14.61,14.72,14.87,-46.88,-894.04,497.56,13.50,-3.74,-0.27
40325,15.33,14.84,14.61,14.72,14.88,-49.80,-848.63,588.87,3.68,-0.20,2.56
40356,15.32,14.85,14.61,14.72,14.87,-77.64,-890.14,504.88,-4.89,1.45,-1.83
40387,15.32,14.85,14.61,14.72,14.87,-48.83,-874.02,555.18,5.55,-2.26,-0.85
40418,15.35,14.85,14.61,14.72,14.88,-77.15,-879.39,501.95,-5.12,5.67,-2.50
40449,15.34,14.86,14.61,14.72,14.88,-66.89,-877.44,536.13,-5.20,3.86,-1.21
40480,15.34,14.86,14.61,14.72,14.88,-31.74,-878.91,527.83,-2.45,5.82,-2.24
40511,15.33,14.87,14.61,14.72,14.88,-43.46,-890.62,511.72,-4.38,1.33,-2.32
40542,15.30,14.87,14.61,14.73,14.88,-61.52,-888.18,520.02,6.45,-1.21,-1.23
40573,15.30,14.87,14.61,14.73,14.88,-33.20,-883.30,520.02,4.18,-1.31,1.54
40604,15.23,14.86,14.62,14.75,14.86,-63.48,-914.55,474.61,2.25,-1.02,-3.95
40634,15.13,14.86,14.62,14.76,14.84,-21.00,-879.39,529.30,8.49,-3.14,-2.24
40666,15.12,14.87,14.62,14.75,14.84,-34.67,-873.05,543.46,1.73,2.72,-1.73
40696,15.18,14.87,14.62,14.75,14.85,-37.11,-859.86,525.88,-5.89,6.56,-0.21
40727,15.20,14.87,14.62,14.75,14.86,-32.23,-867.68,521.00,2.99,0.84,-1.21
40758,15.21,14.87,14.62,14.75,14.86,-43.46,-883.30,523.44,-0.06,-0.46,-0.89
40789,15.25,14.87,14.62,14.74,14.87,-46.39,-866.70,547.85,-1.47,0.93,2.63
40820,15.31,14.87,14.62,14.74,14.88,-71.29,-897.46,529.79,-5.25,1.98,1.82
40851,15.30,14.87,14.61,14.74,14.88,-39.06,-872.07,519.53,-0.62,-2.28,-0.27
40882,15.29,14.87,14.62,14.74,14.88,-33.20,-867.19,517.58,1.64,-1.18,1.30
40913,15.30,14.87,14.61,14.73,14.88,-50.29,-863.28,544.43,-0.85,0.85,0.44
40944,15.33,14.86,14.61,14.73,14.89,-56.15,-883.30,530.27,-4.73,1.49,2.70
40975,15.34,14.86,14.61,14.73,14.89,-43.95,-881.35,531.25,-3.47,0.53,0.23
41006,15.35,14.86,14.61,14.73,14.89,-49.80,-871.09,521.48,-0.37,3.12,0.64
41037,15.35,14.86,14.61,14.73,14.89,-48.34,-881.35,530.27,-0.21,-1.41,-1.23
41068,15.37,14.85,14.61,14.72,14.89,-44.92,-879.88,539.06,-5.15,2.90,-0.04
41099,15.41,14.85,14.61,14.72,14.90,-54.69,-872.56,532.23,-13.44,3.81,-0.21
41130,15.37,14.85,14.61,14.72,14.89,-46.39,-904.30,495.61,3.71,-4.17,-3.89
41161,15.30,14.85,14.61,14.72,14.87,-31.25,-862.79,544.92,5.27,-5.21,-0.91
41192,15.28,14.86,14.61,14.70,14.86,-48.83,-883.79,542.48,-2.67,1.45,-0.72
41222,15.31,14.86,14.60,14.68,14.86,-36.62,-855.96,566.41,-23.73,5.35,3.37
41253,15.27,14.86,14.60,14.68,14.85,-93.75,-950.20,457.03,-6.81,-7.28,-3.99
41284,15.24,14.86,14.60,14.68,14.85,-25.88,-914.55,509.77,19.08,-5.70,-0.92
41315,15.32,14.84,14.60,14.69,14.86,-83.50,-923.83,470.70,36.34,-7.69,2.02
41346,15.36,14.82,14.60,14.69,14.87,-21.48,-851.07,596.68,23.66,-9.56,1.81
41376,15.36,14.80,14.60,14.69,14.86,-62.01,-830.08,567.38,-2.58,3.08,-0.53
41406,15.32,14.80,14.60,14.68,14.85,-61.52,-863.28,528.32,-18.82,6.48,-2.55
41437,15.32,14.80,14.60,14.69,14.85,-42.97,-904.30,511.23,2.59,0.63,-1.18
41468,15.34,14.80,14.60,14.68,14.86,-69.82,-842.77,550.29,-7.44,1.27,-0.53
41498,15.41,14.81,14.60,14.70,14.88,-56.64,-861.82,501.46,-1.33,5.24,-2.65
41529,15.54,14.83,14.60,14.70,14.92,-40.53,-841.80,624.02,-2.73,2.40,-5.98
41560,15.48,14.85,14.60,14.69,14.90,-54.69,-811.52,583.98,-37.65,8.80,-3.76
41590,15.60,14.88,14.60,14.68,14.94,-46.39,-830.08,602.05,-20.59,11.33,-7.89
41621,15.62,14.91,14.60,14.69,14.95,-93.26,-983.40,423.34,-18.85,3.26,-4.44
41652,15.43,14.92,14.60,14.69,14.91,-84.47,-875.98,512.21,-16.92,-1.02,-1.41
41682,15.48,14.94,14.61,14.70,14.93,-80.57,-917.97,503.42,10.34,6.00,-4.11
41713,15.49,14.94,14.61,14.72,14.94,-47.85,-907.23,511.23,-0.19,-3.97,-0.62
41744,15.35,14.95,14.61,14.73,14.91,-83.98,-869.63,499.51,-2.96,-7.18,-6.78
41775,15.35,14.95,14.62,14.75,14.92,-93.26,-910.64,516.11,16.31,2.45,-6.04
41806,15.30,14.96,14.62,14.77,14.91,-11.23,-878.91,516.60,6.79,-5.06,-1.44
41837,15.20,14.96,14.63,14.78,14.89,-75.20,-885.74,488.77,-1.71,-8.02,-2.08
41867,15.23,14.96,14.64,14.81,14.91,-108.40,-889.16,549.80,19.73,1.73,-2.60
41898,15.20,14.96,14.64,14.83,14.91,-26.37,-876.95,534.18,8.11,-0.68,0.68
41929,15.17,14.95,14.64,14.84,14.90,-1.95,-895.51,478.03,6.85,-5.90,-2.79
41960,15.20,14.95,14.64,14.84,14.91,-64.94,-872.07,528.81,5.67,-3.02,0.19
41991,15.19,14.95,14.64,14.85,14.91,-41.02,-868.65,533.20,3.39,-2.52,-1.74
42022,15.19,14.95,14.65,14.86,14.91,-24.90,-879.39,532.71,7.10,-1.82,1.00
42053,15.19,14.95,14.65,14.86,14.91,-38.09,-879.88,525.88,4.16,-3.26,3.00
42084,15.19,14.94,14.65,14.86,14.91,-27.83,-867.68,539.06,4.69,-3.54,0.49
42117,15.17,14.93,14.65,14.87,14.90,-62.50,-894.53,521.00,1.36,-1.74,-0.94
42148,15.13,14.93,14.65,14.87,14.89,-2.93,-849.12,529.30,1.04,-3.36,-2.52
42179,15.10,14.92,14.65,14.88,14.89,-6.35,-851.56,550.29,1.95,-1.11,-0.64
42210,15.09,14.92,14.65,14.87,14.88,-17.58,-875.00,522.46,2.80,-0.24,0.62
42240,15.08,14.91,14.65,14.88,14.88,-50.78,-882.81,522.95,4.38,-4.19,-0.45
42272,15.07,14.91,14.65,14.87,14.87,-16.60,-839.84,564.45,0.82,0.27,-2.42
42302,15.07,14.90,14.65,14.86,14.87,-24.90,-855.47,564.94,1.15,3.02,2.03
42333,15.09,14.90,14.65,14.85,14.87,-40.53,-863.77,518.55,0.44,1.72,2.48
42364,15.10,14.90,14.64,14.84,14.87,-51.27,-856.93,540.53,-1.64,1.35,1.42
42395,15.09,14.89,14.64,14.83,14.86,-14.65,-853.03,552.25,-2.16,-0.82,0.03
42426,15.11,14.89,14.64,14.82,14.86,-63.96,-871.58,547.85,-1.66,3.96,4.87
42457,15.14,14.89,14.64,14.81,14.87,-41.02,-875.49,553.22,3.47,0.79,-0.15
42488,15.14,14.88,14.63,14.79,14.86,-22.95,-874.02,540.04,0.52,-0.25,-0.69
42519,15.14,14.88,14.63,14.78,14.86,-41.02,-882.81,538.09,-1.79,-1.14,-0.08
42550,15.18,14.87,14.63,14.77,14.86,-43.46,-885.74,526.37,2.51,3.63,0.09
42581,15.20,14.86,14.62,14.75,14.86,-54.69,-845.70,565.43,-1.53,-0.31,1.89
42612,15.24,14.85,14.62,14.74,14.86,-52.73,-856.45,542.48,-6.92,2.34,0.84
42643,15.27,14.85,14.61,14.73,14.86,-51.76,-859.37,549.80,-8.79,1.87,2.11
42674,15.31,14.84,14.61,14.72,14.87,-49.32,-876.46,529.79,-6.70,1.62,-0.21
42705,15.38,14.83,14.61,14.70,14.88,-53.71,-867.68,564.94,-10.26,6.79,1.89
42735,15.38,14.83,14.61,14.69,14.88,-46.39,-887.70,539.06,-9.41,2.31,0.56
42767,15.36,14.83,14.60,14.69,14.87,-62.50,-910.16,471.68,-14.25,2.38,-2.72
42797,15.35,14.83,14.60,14.69,14.87,-48.83,-885.74,524.90,-2.36,5.05,-0.87
42828,15.35,14.83,14.60,14.69,14.87,-46.39,-882.32,511.72,8.68,-1.91,-3.21
42859,15.36,14.84,14.60,14.69,14.87,-35.64,-838.87,531.25,0.48,-0.07,-1.40
42890,15.38,14.84,14.60,14.68,14.88,-76.66,-886.23,519.04,-10.35,5.95,-2.62
42921,15.41,14.85,14.60,14.68,14.89,-78.61,-895.02,505.37,-8.22,4.44,-1.39
42952,15.43,14.86,14.60,14.68,14.89,-79.59,-926.27,473.14,1.50,0.70,-1.36
42982,15.45,14.86,14.60,14.69,14.90,-64.94,-902.83,499.51,4.84,-1.18,-1.19
43013,15.42,14.86,14.61,14.69,14.89,-60.55,-890.62,505.86,9.12,-4.98,2.02
43043,15.38,14.85,14.61,14.70,14.89,-81.05,-893.07,506.84,7.35,-5.72,1.98
43074,15.35,14.85,14.61,14.71,14.88,-31.74,-868.16,546.39,6.50,-3.40,-2.16
43104,15.35,14.85,14.61,14.71,14.88,-42.48,-884.28,529.79,4.40,-1.24,-0.28
43135,15.32,14.85,14.61,14.71,14.87,-36.62,-857.42,526.37,6.06,-3.39,-1.48
43165,15.33,14.85,14.61,14.71,14.88,-41.02,-875.00,547.85,-2.81,1.24,-1.30
43196,15.36,14.85,14.61,14.70,14.88,-52.73,-877.44,525.39,-3.47,3.85,-0.98
43227,15.40,14.85,14.61,14.70,14.89,-49.80,-874.02,528.32,-5.40,3.51,1.09
43257,15.39,14.85,14.61,14.71,14.89,-43.46,-890.14,524.41,7.48,-2.24,-0.29
43288,15.36,14.84,14.61,14.71,14.88,-50.78,-876.46,521.97,5.48,-2.73,1.15
43318,15.35,14.84,14.61,14.70,14.87,-50.29,-873.54,528.81,-1.07,2.34,-1.81
43349,15.38,14.84,14.60,14.69,14.88,-63.48,-885.25,527.83,-5.15,3.05,2.11
43380,15.40,14.83,14.60,14.69,14.88,-43.95,-877.93,516.11,-14.93,5.15,2.89
43410,15.35,14.83,14.61,14.70,14.87,-54.20,-911.62,469.24,5.10,-2.27,-1.82
43441,15.33,14.83,14.61,14.70,14.87,-33.69,-871.58,540.04,17.89,-2.97,-2.66
43472,15.33,14.83,14.60,14.69,14.86,-52.73,-864.26,535.16,4.53,-2.71,2.03
43503,15.31,14.81,14.60,14.69,14.85,-69.34,-873.05,489.26,2.76,-3.51,1.73
43534,15.35,14.80,14.60,14.69,14.86,-117.68,-900.39,504.88,-1.82,-2.49,3.20
43565,15.34,14.80,14.60,14.67,14.85,-45.90,-871.09,560.55,-11.80,1.04,0.33
43596,15.25,14.79,14.60,14.67,14.83,-102.54,-872.07,507.81,-20.40,1.93,6.54
43627,15.29,14.79,14.60,14.67,14.84,-1.95,-891.11,479.49,-0.63,4.98,3.24
43658,15.31,14.79,14.60,14.66,14.84,-41.50,-880.37,524.90,-16.98,6.28,-0.70
43689,15.31,14.80,14.60,14.66,14.84,-58.11,-875.98,524.90,-16.47,8.95,-7.44
43720,15.42,14.81,14.60,14.66,14.87,-27.83,-923.34,476.07,-3.14,6.70,-5.61
43751,15.39,14.81,14.60,14.66,14.86,-46.39,-861.33,536.13,-26.36,8.50,0.81
43782,15.62,14.83,14.60,14.67,14.93,-77.15,-1134.77,305.18,71.88,-29.20,-7.73
43813,15.75,14.83,14.60,14.67,14.96,-37.60,-952.64,565.43,11.62,-13.10,4.73
43844,15.64,14.82,14.60,14.68,14.94,-70.31,-828.61,511.72,-25.29,1.82,2.23
43875,15.78,14.84,14.60,14.69,14.98,-88.87,-859.86,611.82,11.10,7.22,-4.05
43906,15.87,14.84,14.60,14.69,15.00,-86.43,-947.75,479.49,9.45,-5.28,-0.29
43937,15.86,14.84,14.60,14.68,15.00,-34.67,-812.99,686.52,-10.57,-1.61,1.97
43968,15.91,14.84,14.60,14.68,15.01,-56.64,-907.23,527.83,-1.56,-1.66,1.98
43999,15.97,14.84,14.60,14.69,15.03,-76.66,-928.22,476.56,8.47,-2.47,0.56
44030,15.93,14.84,14.60,14.69,15.01,-36.62,-845.21,524.90,-0.15,-6.84,0.97
44061,15.93,14.83,14.60,14.69,15.01,-65.43,-875.49,497.56,4.79,-4.15,-1.01
44092,15.91,14.83,14.60,14.70,15.01,-53.22,-894.04,527.34,9.12,-1.65,-0.14
44123,15.86,14.83,14.61,14.71,15.00,-47.36,-903.32,498.05,12.49,-0.84,-1.28
44154,15.85,14.83,14.61,14.71,15.00,-30.27,-869.63,489.26,1.38,-3.34,1.26
44185,15.88,14.83,14.60,14.71,15.01,-103.03,-886.72,541.02,11.20,-5.98,-1.92
44216,15.88,14.82,14.61,14.72,15.01,-34.18,-869.63,542.97,8.37,-1.75,0.76
44247,15.89,14.82,14.60,14.71,15.01,-53.71,-857.91,553.22,4.60,1.60,0.77
44278,15.91,14.82,14.61,14.71,15.01,-52.25,-847.17,534.18,-1.40,-4.09,1.21
44308,15.90,14.82,14.60,14.71,15.01,-29.30,-864.75,572.75,4.23,-2.71,-1.17
44340,15.90,14.82,14.60,14.71,15.01,-42.97,-866.21,566.41,-1.55,-0.52,-0.71
44370,15.88,14.82,14.60,14.71,15.00,-57.13,-868.16,539.55,-4.41,-1.94,-1.28
44401,15.86,14.81,14.60,14.70,14.99,-54.20,-862.30,537.60,-2.57,0.98,0.95
44432,15.88,14.81,14.60,14.69,14.99,-45.90,-880.86,529.30,-3.09,2.18,-0.39
44463,15.89,14.81,14.60,14.69,15.00,-60.06,-861.33,550.78,-5.14,-0.22,1.52
44494,15.87,14.81,14.60,14.69,14.99,-63.96,-875.98,548.83,-2.31,0.09,-0.74
44525,15.87,14.81,14.60,14.67,14.99,-40.53,-845.21,517.58,-11.40,1.96,-1.29
44556,15.88,14.81,14.59,14.67,14.99,-50.29,-880.37,533.69,-11.13,0.95,2.95
44587,15.88,14.81,14.60,14.67,14.99,-76.66,-894.53,518.07,-9.55,-1.04,1.76
44618,15.84,14.81,14.60,14.67,14.98,-76.66,-885.74,506.35,3.96,-1.27,-4.71
44648,15.84,14.81,14.60,14.66,14.98,-79.10,-887.70,527.34,-9.60,1.82,1.50
44679,15.85,14.81,14.59,14.66,14.98,-58.11,-881.35,534.18,-6.01,5.63,2.73
44709,15.81,14.81,14.60,14.67,14.97,-93.26,-924.32,482.91,16.12,-4.41,-2.90
44740,15.79,14.81,14.60,14.66,14.96,-20.51,-858.40,513.18,-4.32,1.25,3.62
44770,15.82,14.81,14.59,14.66,14.97,-59.57,-885.74,501.95,-8.06,1.98,5.49
44800,15.82,14.81,14.60,14.67,14.97,-102.05,-928.71,461.91,8.44,-1.30,-1.63
44831,15.77,14.80,14.59,14.66,14.96,39.06,-806.15,618.65,9.02,-6.18,-0.37
44862,15.83,14.81,14.59,14.66,14.97,-64.45,-890.62,471.68,-2.26,1.36,0.72
44892,15.87,14.81,14.59,14.66,14.98,-88.38,-866.21,530.27,-8.50,7.57,-2.05
44923,15.86,14.81,14.60,14.66,14.98,-77.64,-860.84,570.80,18.62,-4.45,-3.81
44954,15.89,14.81,14.59,14.66,14.99,-78.61,-869.63,475.10,-16.75,8.18,3.63
44984,15.94,14.82,14.59,14.65,15.00,-62.99,-885.25,508.30,-26.21,16.46,0.53
45015,15.92,14.82,14.59,14.66,15.00,-145.02,-958.98,417.48,-15.60,10.00,-5.66
45045,15.89,14.82,14.59,14.65,14.99,182.62,-628.91,945.80,21.31,-6.66,-7.36
45077,15.89,14.82,14.59,14.65,14.99,-32.23,-862.30,482.91,-9.68,-1.50,-4.27
45107,15.90,14.83,14.59,14.65,14.99,-92.29,-888.67,509.77,-4.31,0.93,0.53
45138,15.88,14.82,14.59,14.65,14.99,-97.17,-910.64,483.40,20.49,-8.46,-3.42
45169,15.91,14.82,14.59,14.65,14.99,-98.14,-933.11,498.54,-7.02,2.10,2.35
45200,15.94,14.83,14.59,14.65,15.00,-75.68,-875.98,509.28,-8.02,2.73,-0.47
45231,15.94,14.83,14.59,14.65,15.00,-70.31,-916.02,474.12,-5.60,1.16,-1.91
45262,15.92,14.83,14.59,14.65,15.00,-34.67,-886.23,511.72,2.61,-1.05,-1.05
45293,15.91,14.83,14.59,14.65,14.99,-120.12,-935.06,444.34,9.81,-6.68,-1.11
45324,15.91,14.82,14.59,14.65,15.00,-45.41,-818.85,599.12,7.15,-1.56,0.23
45355,15.90,14.82,14.59,14.65,14.99,-77.64,-882.32,510.25,-3.50,3.35,-1.05
45386,15.89,14.82,14.59,14.65,14.99,-56.15,-887.21,521.48,0.56,-0.51,-0.66
45417,15.88,14.82,14.59,14.65,14.99,-85.94,-900.39,502.93,6.98,-0.87,0.07
45448,15.88,14.81,14.59,14.65,14.99,-46.39,-871.09,553.22,17.54,-4.82,2.12
45479,15.89,14.81,14.59,14.66,14.99,-55.18,-856.45,541.99,5.83,2.18,0.55
45510,15.88,14.81,14.60,14.66,14.99,-58.59,-883.30,517.58,-1.95,2.18,0.91
45541,15.87,14.81,14.60,14.66,14.98,-70.31,-881.35,516.60,1.50,-2.53,0.53
45572,15.84,14.81,14.60,14.67,14.98,-64.94,-885.25,504.88,9.20,-3.82,-1.37
45603,15.82,14.80,14.60,14.67,14.97,-33.20,-870.12,565.92,10.76,-5.27,3.00
45633,15.80,14.80,14.60,14.68,14.97,-54.69,-861.33,549.32,0.24,-1.26,-0.39
45664,15.78,14.80,14.60,14.68,14.96,-50.78,-876.95,530.76,0.97,-2.16,1.74
45695,15.75,14.80,14.60,14.68,14.96,-72.27,-881.35,512.70,3.94,-2.61,-0.01
45726,15.74,14.80,14.60,14.68,14.95,-53.71,-831.54,598.14,2.10,0.83,-0.79
45757,15.75,14.80,14.60,14.68,14.96,-57.13,-875.49,550.29,-5.08,1.15,-2.50
45788,15.74,14.80,14.60,14.68,14.95,-68.85,-883.30,545.41,-3.94,0.57,-2.49
45819,15.73,14.80,14.60,14.68,14.95,-44.92,-864.75,562.50,2.30,-1.08,-2.69
45850,15.72,14.80,14.60,14.69,14.95,-69.34,-867.68,527.83,2.09,-1.32,-0.34
45881,15.72,14.79,14.60,14.69,14.95,-61.52,-875.98,557.13,5.70,-0.73,-0.61
45912,15.71,14.79,14.60,14.70,14.95,-66.41,-852.54,555.18,4.33,-2.72,1.08
45943,15.70,14.80,14.60,14.70,14.95,-56.15,-864.75,557.62,2.07,-0.98,2.01
45976,15.68,14.80,14.60,14.71,14.95,-61.04,-860.84,550.29,4.10,-0.32,-0.25
46006,15.67,14.80,14.61,14.72,14.95,-58.59,-865.72,559.57,3.15,0.69,-1.34
46037,15.67,14.80,14.61,14.72,14.95,-51.76,-853.52,552.73,-0.86,-0.21,-0.22
46068,15.66,14.80,14.61,14.72,14.95,-57.13,-871.09,547.85,-0.86,1.29,-2.06
46099,15.66,14.80,14.61,14.73,14.95,-66.89,-879.88,551.76,2.02,-0.42,-1.65
46130,15.66,14.80,14.61,14.73,14.95,-47.36,-862.30,538.57,3.64,-1.44,-1.06
46161,15.66,14.80,14.61,14.73,14.95,-53.71,-854.49,547.85,1.70,1.18,1.62
46192,15.68,14.80,14.61,14.73,14.95,-48.34,-871.09,554.20,-0.12,-0.08,-2.70
46223,15.69,14.80,14.61,14.73,14.96,-68.36,-861.82,549.80,0.44,0.17,-1.07
46254,15.70,14.80,14.61,14.72,14.96,-53.22,-836.91,576.66,-0.61,-0.98,-0.37
46285,15.70,14.80,14.61,14.72,14.96,-37.60,-852.54,553.22,-2.64,3.61,-1.52
46315,15.70,14.80,14.61,14.72,14.96,-63.48,-869.63,543.95,-2.67,0.26,-3.11
46346,15.70,14.80,14.61,14.72,14.96,-48.83,-864.75,542.48,-2.02,2.66,-1.76
46376,15.71,14.80,14.61,14.72,14.96,-37.11,-855.47,558.59,-1.14,3.58,0.56
46406,15.72,14.80,14.61,14.72,14.96,-59.57,-850.10,565.43,1.11,1.45,3.41
46437,15.72,14.81,14.61,14.71,14.96,-62.01,-856.93,548.34,-2.90,-0.58,-3.40
46467,15.72,14.80,14.61,14.71,14.96,-49.32,-876.46,564.94,-0.80,0.69,-0.57
46498,15.72,14.80,14.61,14.71,14.96,-51.76,-854.49,533.69,-1.84,0.31,-0.95
46529,15.72,14.80,14.61,14.71,14.96,-55.66,-873.05,549.32,1.10,0.35,-0.31
46560,15.73,14.80,14.61,14.71,14.96,-36.13,-861.33,543.95,-1.19,0.11,-1.60
46590,15.74,14.80,14.61,14.71,14.96,-45.90,-868.65,560.06,1.15,-0.78,-2.18
46621,15.75,14.80,14.61,14.71,14.97,-58.59,-872.07,569.82,-0.46,0.24,0.43
46651,15.76,14.80,14.61,14.71,14.97,-53.22,-863.28,542.48,-0.16,-0.08,-0.78
46682,15.77,14.80,14.61,14.71,14.97,-51.27,-863.77,551.27,1.56,-0.19,1.32
46713,15.78,14.80,14.61,14.71,14.97,-59.57,-859.86,553.22,-2.65,-2.77,-0.69
46744,15.78,14.80,14.61,14.71,14.98,-62.01,-865.72,557.62,0.99,-1.50,-0.02
46775,15.78,14.80,14.61,14.71,14.98,-67.38,-854.00,531.74,-0.79,0.50,1.39
46806,15.79,14.80,14.61,14.72,14.98,-71.78,-863.28,535.64,0.09,-1.82,0.56
46836,15.79,14.80,14.61,14.72,14.98,-52.25,-854.49,544.43,-0.87,-0.34,1.05
46867,15.79,14.81,14.61,14.72,14.98,-61.52,-866.21,557.13,-1.32,-1.77,0.32
46898,15.80,14.81,14.61,14.73,14.99,-57.13,-852.05,548.34,2.45,1.09,-3.44
46929,15.82,14.81,14.61,14.73,14.99,-42.48,-862.79,566.41,3.12,-0.57,-0.57
46960,15.82,14.81,14.61,14.74,15.00,-53.22,-852.05,566.89,3.76,-0.43,0.72
46991,15.83,14.81,14.61,14.75,15.00,-62.99,-865.72,552.25,5.86,-0.85,-2.73
47022,15.83,14.82,14.62,14.76,15.01,-68.85,-850.59,566.89,0.82,-0.66,-0.90
47053,15.83,14.82,14.62,14.76,15.01,-57.13,-860.35,549.80,-2.89,0.35,1.78
47084,15.81,14.83,14.62,14.77,15.01,-52.25,-865.72,555.18,-6.30,1.93,-1.85
47115,15.80,14.83,14.62,14.77,15.01,-50.29,-856.45,562.01,-5.18,-0.42,-2.89
47146,15.78,14.84,14.62,14.77,15.00,-58.11,-840.33,547.85,-3.68,2.66,-2.34
47177,15.77,14.84,14.62,14.77,15.00,-56.15,-869.63,540.53,-6.22,-0.54,-0.81
47208,15.73,14.85,14.62,14.78,14.99,-61.52,-865.72,544.43,-1.97,0.73,-0.59
47239,15.70,14.85,14.62,14.77,14.99,-56.64,-861.33,559.57,-2.22,1.10,-2.40
47270,15.67,14.85,14.62,14.78,14.98,-46.88,-856.45,557.62,-2.07,-0.17,-1.51
47301,15.63,14.85,14.62,14.77,14.97,-44.43,-863.77,527.83,-0.07,-3.11,-0.57
47332,15.57,14.85,14.62,14.77,14.95,-55.66,-866.21,551.27,-0.82,-0.23,0.77
47362,15.49,14.85,14.62,14.76,14.93,-45.41,-867.68,534.67,-4.37,-0.50,-0.82
47394,15.38,14.84,14.61,14.75,14.90,-45.90,-869.63,562.50,-8.71,-0.76,0.12
47424,15.20,14.83,14.61,14.72,14.84,-64.94,-894.53,542.97,-17.17,-0.13,0.39
47455,14.97,14.80,14.60,14.69,14.77,-67.87,-886.72,506.84,-31.67,2.36,0.70
47486,14.77,14.78,14.60,14.67,14.71,-87.40,-901.37,502.93,-51.89,0.63,-5.88
47517,14.66,14.76,14.59,14.66,14.67,-45.41,-855.47,492.19,-86.72,-7.05,-1.95
47548,14.60,14.74,14.59,14.65,14.65,-19.04,-820.31,632.81,-99.73,-14.77,6.02
47579,14.59,14.74,14.59,14.65,14.64,283.69,-1065.43,331.05,-120.13,28.75,-8.21
47610,14.58,14.73,14.59,14.65,14.64,246.58,-1385.25,483.40,-7.48,12.89,7.89
47641,14.58,14.73,14.59,14.65,14.64,342.29,-857.91,459.47,53.54,35.23,9.02
47672,14.57,14.73,14.59,14.65,14.63,316.89,-949.71,292.48,51.61,78.45,-18.44
47703,14.57,14.73,14.59,14.64,14.63,234.86,-950.20,283.20,45.65,98.82,-37.60
47734,14.57,14.73,14.59,14.64,14.63,215.33,-1009.77,325.20,45.50,101.57,-44.60
47765,14.57,14.73,14.59,14.64,14.63,237.79,-898.44,298.83,36.47,106.02,-49.21
47796,14.57,14.72,14.59,14.64,14.63,230.96,-1077.64,267.09,33.01,119.99,-63.63
47827,14.57,14.72,14.59,14.64,14.63,182.62,-977.54,275.39,50.68,117.11,-70.67
47858,14.57,14.72,14.59,14.64,14.63,141.11,-992.68,284.18,43.30,101.66,-78.43
47889,14.56,14.72,14.59,14.64,14.63,144.53,-968.26,238.28,24.50,96.53,-77.53
47920,14.56,14.72,14.59,14.64,14.63,85.94,-993.65,279.79,18.18,96.71,-87.76
47950,14.56,14.72,14.59,14.64,14.63,22.95,-957.52,346.19,22.15,90.18,-92.74
47980,14.56,14.72,14.59,14.64,14.63,9.28,-967.29,339.84,22.98,78.27,-98.76
48011,14.56,14.72,14.59,14.64,14.63,22.46,-962.40,306.15,6.58,87.26,-103.79
48041,14.56,14.72,14.59,14.64,14.63,2.93,-1029.30,355.96,7.88,94.82,-117.07
48071,14.56,14.72,14.59,14.64,14.63,-1.46,-1024.90,396.48,23.31,93.13,-125.39
48102,14.56,14.72,14.59,14.64,14.63,56.64,-984.86,436.52,-1.12,106.78,-87.44
48132,14.56,14.72,14.59,14.64,14.63,-51.76,-971.68,396.48,-8.11,120.49,-53.47
48163,14.55,14.71,14.59,14.64,14.62,-99.61,-859.37,406.74,-2.10,98.73,-76.93
48194,14.56,14.71,14.59,14.64,14.63,-93.75,-953.12,415.04,-7.89,90.18,-80.30
48225,14.55,14.71,14.59,14.64,14.62,-138.18,-897.95,424.32,3.79,86.21,-63.63
48255,14.55,14.71,14.59,14.64,14.62,-160.16,-940.92,396.48,7.95,76.37,-60.02
48286,14.56,14.71,14.59,14.64,14.63,-288.57,-842.29,346.68,10.31,74.66,-43.10
48316,14.55,14.71,14.59,14.64,14.62,-176.27,-783.69,420.41,-32.48,91.29,-27.84
48347,14.55,14.71,14.59,14.64,14.62,-80.57,-921.39,562.50,-53.60,131.06,-24.61
48378,14.55,14.71,14.59,14.64,14.62,43.95,-948.73,529.30,-6.28,144.84,-44.21
48409,14.55,14.71,14.59,14.64,14.62,64.94,-846.19,538.09,-21.14,168.47,-62.05
48440,14.55,14.71,14.59,14.64,14.62,11.23,-929.69,475.10,-8.31,166.80,-58.19
48471,14.55,14.71,14.59,14.64,14.62,-119.63,-897.95,401.37,1.24,147.97,-57.34
48502,14.55,14.71,14.59,14.64,14.62,-128.42,-875.49,367.19,-4.58,109.76,-66.66
48533,14.55,14.71,14.59,14.65,14.62,-192.87,-855.96,386.23,-21.99,79.66,-72.29
48564,14.55,14.71,14.59,14.64,14.62,-241.21,-862.79,344.73,-24.00,32.64,-90.32
48595,14.55,14.70,14.59,14.65,14.62,-468.26,201.17,632.81,1.30,11.78,-159.26
48626,14.55,14.71,14.59,14.67,14.63,229.00,-687.99,-262.21,208.79,29.76,20.37
48657,14.55,14.71,14.60,14.70,14.64,-28.32,-1454.59,1129.88,23.31,56.24,22.85
48688,14.55,14.71,14.60,14.73,14.65,89.84,-665.53,834.96,35.12,9.53,23.08
48718,14.56,14.72,14.61,14.77,14.67,-99.61,-968.26,600.59,129.61,32.76,-4.70
48749,14.64,14.73,14.61,14.80,14.69,175.29,-954.59,426.76,35.79,-18.92,9.38
48780,14.75,14.74,14.62,14.82,14.73,-153.81,-866.21,625.00,25.67,-14.27,2.73
48811,14.86,14.74,14.62,14.85,14.77,-69.82,-804.20,599.12,15.70,-3.06,2.81
48842,15.01,14.74,14.62,14.87,14.81,-10.74,-828.61,607.42,13.60,-5.75,4.86
48873,15.18,14.74,14.62,14.90,14.86,-34.18,-844.73,589.36,14.11,-6.51,2.26
48904,15.41,14.74,14.63,14.92,14.93,-42.48,-814.94,611.82,9.08,-0.46,2.79
48935,15.60,14.75,14.63,14.94,14.98,-39.55,-825.68,616.21,-3.53,1.37,1.71
48966,15.71,14.74,14.63,14.95,15.01,-24.90,-818.85,644.53,-2.34,-0.15,4.12
48997,15.77,14.74,14.63,14.97,15.03,-35.16,-814.94,615.23,-11.34,1.20,-0.40
49028,15.81,14.74,14.63,14.98,15.04,-15.63,-816.89,628.42,-8.71,2.78,-0.63
49059,15.91,14.75,14.63,14.99,15.07,-14.65,-791.02,630.86,-9.85,6.53,-0.41
49090,16.02,14.76,14.63,15.01,15.10,-67.38,-853.03,564.94,-12.27,6.34,-1.34
49121,16.04,14.76,14.64,15.03,15.12,-41.99,-833.98,616.70,-0.73,-1.15,-1.73
49152,16.02,14.76,14.64,15.04,15.11,-37.60,-833.50,608.40,-5.50,-0.08,-0.96
49183,15.99,14.76,14.64,15.04,15.11,-14.16,-827.64,598.14,-8.50,3.69,-1.82
49214,15.99,14.77,14.64,15.04,15.11,-32.71,-826.17,583.01,-8.15,2.61,-1.89
