currTime,s1,s2,s3,s4,s,AccX,AccY,AccZ,GyroX,GyroY,GyroZ
22,14.72,14.77,14.62,14.71,14.70,-242.68,-888.67,652.83,-7.89,-13.70,-0.25
54,14.72,14.77,14.62,14.71,14.71,-56.64,-842.77,491.70,-4.94,-0.89,-1.50
85,14.72,14.77,14.62,14.71,14.70,-133.30,-825.20,743.65,-5.78,-1.89,1.85
115,14.72,14.77,14.62,14.71,14.70,-79.59,-778.32,572.27,0.66,2.43,-1.58
146,14.72,14.77,14.62,14.71,14.70,-44.92,-855.47,502.44,4.89,-2.45,1.50
177,14.72,14.77,14.62,14.71,14.70,-43.46,-833.50,569.34,0.66,2.15,0.31
207,14.72,14.77,14.62,14.71,14.71,-50.29,-868.65,523.44,-0.53,1.18,0.66
238,14.72,14.77,14.62,14.71,14.71,-15.63,-846.68,490.23,-2.40,2.72,0.56
269,14.72,14.77,14.62,14.71,14.71,-36.13,-849.61,560.55,-1.61,-0.50,0.95
300,14.73,14.77,14.62,14.71,14.71,-61.04,-840.82,559.57,3.57,-0.82,-0.27
331,14.73,14.77,14.62,14.71,14.71,-44.43,-851.07,535.64,1.55,0.43,-1.12
362,14.73,14.77,14.62,14.71,14.71,-188.48,-887.70,563.48,-3.80,-2.30,1.29
393,14.73,14.77,14.62,14.71,14.71,-120.61,-881.35,500.00,-5.73,0.12,1.69
424,14.75,14.77,14.62,14.71,14.71,188.96,-2000.00,765.62,-135.98,117.73,-154.44
455,14.75,14.77,14.62,14.71,14.71,-133.79,-1212.89,435.06,-2.57,15.40,-3.47
486,14.74,14.77,14.62,14.71,14.71,-74.22,-831.54,525.39,17.32,-3.67,-3.96
517,14.74,14.77,14.62,14.71,14.71,-44.43,-817.87,565.43,-4.39,5.12,-2.17
547,14.74,14.77,14.62,14.71,14.71,-72.75,-877.93,532.23,-4.16,-0.75,-2.34
578,14.73,14.77,14.62,14.71,14.71,-62.50,-872.07,547.85,1.31,1.73,-4.80
609,14.73,14.77,14.62,14.71,14.71,-43.46,-869.63,538.09,-2.63,0.31,0.75
640,14.72,14.77,14.62,14.70,14.70,-45.90,-875.49,539.55,-2.16,3.04,-0.10
671,14.72,14.77,14.62,14.70,14.70,-50.78,-867.19,559.57,-0.60,2.69,-2.67
702,14.72,14.77,14.62,14.70,14.70,-56.64,-875.00,546.87,-4.11,-1.89,-2.19
733,14.72,14.77,14.62,14.70,14.70,-22.46,-858.40,513.18,-5.24,2.04,-1.43
764,14.71,14.77,14.62,14.70,14.70,-56.15,-877.93,531.25,-0.82,2.27,0.47
795,14.71,14.77,14.62,14.70,14.70,-68.85,-862.30,543.46,-2.66,-4.02,-1.04
826,14.71,14.77,14.62,14.70,14.70,-57.62,-859.86,539.55,-5.05,2.79,-1.57
857,14.70,14.77,14.62,14.69,14.70,-50.78,-870.61,526.37,-0.94,2.71,1.19
888,14.70,14.77,14.62,14.69,14.69,-49.80,-854.98,535.16,-4.21,2.18,-1.77
919,14.70,14.77,14.62,14.69,14.69,-39.55,-856.93,541.02,0.03,-2.59,-2.21
950,14.70,14.77,14.62,14.68,14.69,-49.80,-866.70,541.50,-2.57,2.29,1.27
981,14.70,14.77,14.62,14.68,14.69,-51.27,-883.79,530.76,-2.83,-0.60,0.19
1012,14.70,14.76,14.62,14.68,14.69,-40.04,-871.58,534.67,-3.15,-1.14,-2.40
1043,14.70,14.76,14.61,14.67,14.69,-41.02,-860.35,535.64,-5.88,1.53,1.34
1074,14.70,14.76,14.62,14.66,14.68,-49.80,-856.93,550.29,-12.47,2.12,0.07
1104,14.70,14.76,14.61,14.65,14.68,-70.80,-876.46,525.88,-16.92,6.99,-0.72
1135,14.70,14.76,14.61,14.65,14.68,-56.15,-877.44,535.64,-25.11,6.39,-1.44
1166,14.70,14.76,14.61,14.64,14.68,-26.37,-869.63,526.86,-28.66,12.02,2.22
1197,14.69,14.76,14.61,14.64,14.67,40.04,-959.96,497.07,-50.36,27.66,11.85
1228,14.67,14.76,14.61,14.64,14.67,-42.97,-1014.16,520.51,-55.70,35.06,26.61
1259,14.65,14.75,14.61,14.64,14.66,-27.34,-1037.11,352.05,-3.53,42.37,33.67
1290,14.63,14.75,14.61,14.63,14.66,-189.45,-1046.39,427.73,9.99,63.27,61.02
1321,14.62,14.75,14.61,14.64,14.65,-343.26,-691.89,309.08,5.39,58.11,68.32
1352,14.61,14.75,14.61,14.63,14.65,-380.37,-819.82,135.74,-51.52,67.13,77.77
1383,14.60,14.75,14.61,14.63,14.65,-586.91,-1218.75,202.64,-24.75,57.77,97.85
1414,14.60,14.75,14.61,14.64,14.65,-546.87,-962.40,236.82,11.85,14.85,71.07
1445,14.59,14.75,14.61,14.63,14.65,-561.52,-996.09,213.87,-23.69,-0.69,57.78
1476,14.59,14.75,14.61,14.64,14.65,-593.26,-1028.32,220.70,-31.37,-15.70,69.80
1506,14.59,14.75,14.61,14.63,14.65,-561.52,-866.70,180.66,-36.97,-28.55,75.47
1537,14.59,14.75,14.61,14.63,14.65,-561.52,-913.57,198.73,-49.24,-35.25,63.05
1567,14.59,14.75,14.61,14.63,14.65,-553.22,-887.21,179.20,-42.98,-50.53,71.33
1597,14.59,14.75,14.61,14.63,14.65,-513.67,-841.31,79.59,-54.88,-63.57,101.33
1628,14.59,14.75,14.61,14.64,14.65,-424.32,-679.20,0.00,-74.18,-72.27,77.14
1658,14.59,14.75,14.61,14.64,14.65,-398.44,-858.89,-30.27,-88.69,-79.41,57.89
1689,14.59,14.75,14.61,14.63,14.64,-286.62,-757.81,-36.13,-74.18,-100.38,49.62
1720,14.59,14.75,14.61,14.64,14.64,-112.79,-750.00,-29.79,-83.21,-93.66,14.05
1750,14.59,14.74,14.61,14.63,14.64,36.62,-776.37,12.21,-67.40,-61.70,-40.05
1781,14.59,14.74,14.61,14.64,14.64,-53.71,-732.91,133.79,-52.60,-39.17,-123.89
1812,14.59,14.74,14.61,14.63,14.64,-79.10,-717.77,250.00,-50.42,-46.40,-149.34
1842,14.59,14.74,14.61,14.63,14.64,-135.74,-948.24,422.36,-41.94,-78.65,-113.04
1873,14.59,14.74,14.61,14.64,14.64,-19.04,-984.37,419.43,5.58,-121.65,-83.79
1903,14.59,14.74,14.61,14.64,14.64,24.90,-651.37,348.14,-23.71,-110.95,-29.65
1934,14.58,14.74,14.61,14.64,14.64,-23.44,-1047.36,467.29,-35.92,-99.37,-28.90
1965,14.58,14.74,14.61,14.64,14.64,-41.50,-998.05,536.13,6.89,-100.50,-42.40
1996,14.58,14.74,14.61,14.64,14.64,-75.68,-1046.39,551.76,28.05,-83.76,-58.89
2027,14.58,14.74,14.61,14.64,14.64,-54.20,-1081.54,641.11,48.27,-65.62,-57.08
2058,14.58,14.74,14.61,14.64,14.64,-125.49,-992.19,579.10,60.88,-53.73,-56.66
2089,14.58,14.74,14.61,14.64,14.64,-158.20,-973.63,519.53,58.32,-48.76,-38.62
2120,14.58,14.74,14.61,14.64,14.64,-144.53,-791.99,470.21,27.67,-40.53,5.44
2151,14.58,14.73,14.61,14.64,14.64,-146.97,-851.56,454.10,-0.17,-43.27,15.11
2182,14.58,14.74,14.61,14.64,14.64,-747.56,1999.94,530.27,103.14,-136.33,-54.86
2213,14.61,14.74,14.61,14.64,14.65,-385.74,-274.90,814.94,-3.78,-47.80,16.57
2244,14.60,14.74,14.61,14.64,14.65,-88.38,-860.84,410.64,-39.15,15.67,17.35
2275,14.60,14.74,14.61,14.64,14.65,100.59,-764.65,520.51,4.46,-9.01,3.18
2306,14.61,14.74,14.61,14.64,14.65,-50.29,-939.45,453.61,25.58,7.90,6.49
2337,14.64,14.74,14.61,14.64,14.66,-77.64,-897.95,457.03,23.16,1.18,1.84
2368,14.67,14.75,14.61,14.64,14.67,-135.25,-894.53,480.47,3.83,1.97,-1.31
2399,14.69,14.75,14.61,14.64,14.67,-40.04,-900.39,508.79,15.60,1.02,-4.30
2430,14.78,14.76,14.61,14.65,14.70,-82.03,-866.70,552.25,18.06,9.63,-3.51
2461,14.89,14.77,14.61,14.65,14.73,-94.24,-852.54,529.30,29.34,-1.69,-5.85
2491,15.05,14.78,14.61,14.65,14.77,-43.46,-886.72,515.14,15.84,-1.73,-1.08
2522,15.17,14.78,14.62,14.66,14.80,-59.57,-858.89,549.80,27.15,-8.82,-1.42
2553,15.23,14.78,14.62,14.67,14.83,-58.11,-866.70,560.06,19.88,-7.18,-2.16
2584,15.30,14.79,14.62,14.68,14.85,-50.29,-836.43,586.91,21.66,-5.49,-2.18
2615,15.33,14.79,14.62,14.69,14.86,-32.23,-853.03,577.64,6.74,-1.18,-2.87
2646,15.38,14.79,14.62,14.70,14.87,-50.78,-850.59,574.71,9.83,-3.45,-0.04
2677,15.41,14.79,14.63,14.71,14.88,-62.50,-842.77,580.57,4.30,-2.31,-0.78
2708,15.43,14.79,14.63,14.72,14.89,-48.83,-827.64,562.50,5.40,-0.35,3.37
2739,15.45,14.79,14.63,14.71,14.89,-37.60,-845.70,599.61,3.16,0.89,0.83
2770,15.52,14.79,14.63,14.72,14.91,-60.06,-849.61,550.78,6.47,-4.50,1.08
2801,15.54,14.79,14.63,14.74,14.93,-53.71,-824.71,599.61,2.63,-3.59,0.31
2832,15.55,14.79,14.63,14.76,14.93,-40.04,-810.55,617.68,1.44,-1.35,-0.87
2863,15.59,14.80,14.64,14.78,14.95,-62.50,-849.61,582.03,6.02,-4.00,-1.78
2894,15.57,14.81,14.64,14.80,14.96,-45.41,-822.75,594.24,1.40,-6.44,0.21
2925,15.57,14.81,14.65,14.82,14.96,-29.30,-807.13,625.49,5.95,-5.76,0.60
2956,15.56,14.82,14.65,14.85,14.97,-25.39,-869.14,556.15,2.56,-8.62,3.02
2987,15.52,14.82,14.66,14.88,14.97,-63.48,-833.01,589.36,-4.33,-6.32,1.18
3018,15.39,14.82,14.67,14.92,14.95,-73.24,-798.34,647.46,4.88,-6.44,-1.69
3048,15.14,14.81,14.68,14.93,14.89,2.93,-741.70,687.99,-5.41,-16.30,1.36
3079,14.87,14.80,14.69,14.91,14.82,-100.10,-811.04,680.66,-32.27,-17.28,1.40
3110,14.63,14.79,14.70,14.84,14.74,-28.81,-1315.92,782.23,-67.33,-31.56,-9.15
3141,14.60,14.77,14.70,14.75,14.71,-476.56,-1744.63,297.36,-96.34,-43.63,-80.04
3171,14.60,14.77,14.66,14.68,14.68,-413.09,-2000.00,804.69,-2.46,-51.03,-167.60
3202,14.59,14.77,14.63,14.66,14.66,-308.11,-1435.55,753.42,166.45,-105.66,-155.32
3232,14.59,14.77,14.62,14.65,14.66,-482.42,-1291.99,390.14,250.13,-250.14,-70.85
3262,14.59,14.76,14.62,14.65,14.66,223.63,-1048.83,471.19,-0.47,-250.14,94.49
3293,14.59,14.76,14.62,14.65,14.65,280.27,-1155.27,360.35,115.39,-250.14,73.73
3324,14.59,14.76,14.62,14.65,14.65,86.91,-1036.13,142.58,148.44,-203.89,58.21
3354,14.59,14.76,14.61,14.65,14.65,-0.98,-946.29,36.62,142.96,-204.20,73.25
3385,14.58,14.75,14.61,14.65,14.65,26.37,-600.10,-11.72,71.19,-200.18,85.14
3416,14.58,14.76,14.61,14.65,14.65,11.72,-709.96,-58.59,56.26,-201.79,84.08
3446,14.58,14.75,14.61,14.65,14.65,76.66,-655.76,-74.22,34.83,-178.89,117.57
3477,14.58,14.75,14.61,14.65,14.65,112.30,-660.16,-62.99,16.87,-129.66,145.85
3508,14.58,14.75,14.61,14.65,14.65,123.05,-741.21,-78.12,35.25,-123.89,110.00
3538,14.58,14.75,14.61,14.65,14.65,105.96,-644.53,-75.20,29.69,-108.36,110.92
3569,14.58,14.75,14.61,14.64,14.65,5.86,-836.91,-0.98,10.18,-88.95,153.07
3600,14.58,14.75,14.61,14.65,14.65,10.74,-814.94,-24.90,16.48,-83.18,178.18
3631,14.58,14.75,14.61,14.64,14.65,40.53,-779.79,-28.81,15.03,-76.39,154.37
3662,14.58,14.75,14.61,14.65,14.65,28.81,-976.56,2.44,28.56,-69.76,133.94
3693,14.58,14.75,14.61,14.65,14.65,95.70,-949.22,-17.58,23.93,-60.42,138.10
3724,14.58,14.75,14.61,14.65,14.65,128.91,-1154.30,22.46,15.04,-51.32,136.45
3755,14.58,14.75,14.61,14.65,14.65,281.74,-1233.40,56.64,69.76,-56.02,118.44
3786,14.58,14.75,14.61,14.65,14.65,274.41,-1053.71,75.68,83.44,-36.53,93.11
3819,14.58,14.75,14.61,14.65,14.65,74.71,-1027.34,-30.27,28.38,-23.49,83.82
3850,14.58,14.75,14.61,14.65,14.65,83.98,-1084.96,-33.69,-65.35,-45.55,81.52
3881,14.58,14.75,14.61,14.65,14.65,370.12,-1658.20,319.34,-69.76,-64.89,105.05
3912,14.58,14.75,14.62,14.65,14.65,659.67,-1464.84,482.91,16.51,-22.70,150.15
3943,14.58,14.75,14.62,14.65,14.65,741.21,-1247.07,263.18,-8.82,58.02,137.24
3974,14.58,14.75,14.62,14.65,14.65,951.66,-1003.42,-1.95,-45.34,73.08,45.23
4005,14.58,14.75,14.62,14.65,14.65,885.74,-1364.75,215.82,-90.69,72.53,-19.48
4036,14.58,14.76,14.61,14.65,14.65,1749.02,-876.95,-60.55,-189.53,52.74,-109.50
4066,14.60,14.77,14.61,14.65,14.66,592.29,-1051.76,76.17,127.41,-96.93,-111.81
4097,14.94,14.78,14.63,14.69,14.76,1999.94,-729.49,257.81,250.13,55.55,-233.50
4128,15.45,14.80,14.66,14.74,14.91,261.23,-1337.89,-104.49,184.37,-85.59,-25.29
4159,15.72,14.80,14.71,14.81,15.01,-176.76,-1197.75,550.29,25.73,-38.15,-10.43
4190,16.02,14.80,14.74,14.89,15.11,-170.41,-747.07,588.38,9.00,-32.27,7.92
4221,15.89,14.80,14.76,14.97,15.10,-72.75,-805.18,663.09,-3.39,-5.36,2.37
4252,15.66,14.79,14.78,15.02,15.06,-21.00,-815.43,617.19,-8.05,0.34,-0.95
4283,15.46,14.79,14.79,15.06,15.02,-29.30,-833.01,590.82,-0.28,-10.03,2.06
4314,15.27,14.79,14.80,15.09,14.99,-42.48,-805.18,626.95,-3.16,-8.66,-1.95
4345,15.12,14.78,14.81,15.12,14.96,-27.34,-852.54,605.47,4.29,-6.98,-2.01
4376,15.02,14.78,14.81,15.16,14.94,-14.16,-819.34,605.96,9.74,-9.39,-4.32
4407,14.96,14.78,14.82,15.19,14.94,-28.32,-868.65,629.88,1.01,-5.53,-5.04
4438,14.93,14.79,14.82,15.24,14.94,0.98,-856.45,625.98,25.71,-1.64,-8.28
4469,14.93,14.79,14.82,15.28,14.96,-26.86,-816.89,705.57,21.91,2.85,-11.46
4500,14.91,14.80,14.83,15.32,14.96,-48.34,-826.66,595.70,13.66,0.14,-13.76
4531,14.83,14.80,14.83,15.35,14.95,-5.86,-835.45,632.32,20.76,0.53,-25.72
4562,14.74,14.81,14.80,15.28,14.91,72.75,-735.84,693.85,28.15,-5.73,-24.65
4593,14.67,14.81,14.78,15.22,14.87,-28.81,-958.50,560.06,-21.40,5.07,-11.22
4624,14.61,14.82,14.79,15.13,14.84,-452.15,-1562.01,1576.17,-52.79,20.02,-56.05
4655,14.60,14.81,14.77,14.91,14.77,-349.12,-1482.91,1153.81,-26.63,-100.21,-151.60
4685,14.60,14.79,14.73,14.76,14.72,-334.47,-2000.00,1109.86,-77.00,-74.15,-218.56
4716,14.59,14.77,14.65,14.69,14.68,-291.50,-1708.01,739.26,6.12,-81.22,-250.14
4747,14.59,14.77,14.63,14.67,14.66,-43.95,-1381.35,557.13,58.31,-55.60,-246.74
4777,14.59,14.77,14.63,14.67,14.66,197.27,-284.67,337.40,-159.63,-119.98,-90.08
4808,14.59,14.76,14.62,14.66,14.66,475.10,-379.88,409.18,-225.57,-55.41,-87.89
4838,14.59,14.76,14.62,14.66,14.66,16.60,-814.45,356.93,-166.63,-5.18,-25.12
4868,14.59,14.76,14.62,14.66,14.66,-53.22,-499.02,290.04,-54.70,-26.22,-16.05
4899,14.59,14.75,14.62,14.66,14.65,-70.31,-173.34,200.68,-12.93,-8.11,-8.44
4929,14.59,14.75,14.62,14.66,14.65,-134.77,-267.58,239.75,-7.46,2.54,2.49
4960,14.59,14.75,14.62,14.66,14.65,-168.95,-361.82,255.86,-15.92,20.92,87.22
4991,14.59,14.75,14.62,14.65,14.65,-143.07,-394.53,287.60,-38.31,35.86,154.46
5021,14.58,14.75,14.61,14.65,14.65,-58.59,-625.49,304.20,-51.25,38.29,151.08
5052,14.58,14.75,14.62,14.65,14.65,-19.04,-804.69,418.95,-37.28,40.45,128.91
5083,14.58,14.75,14.61,14.65,14.65,41.99,-1076.66,480.47,-27.89,40.28,110.59
5113,14.58,14.75,14.61,14.65,14.65,217.77,-1074.71,485.84,-53.33,52.46,118.31
5144,14.58,14.75,14.61,14.65,14.65,210.45,-1359.86,509.28,-65.59,56.14,138.30
5175,14.58,14.75,14.61,14.65,14.65,375.00,-1517.58,660.64,-28.70,60.29,154.15
5206,14.58,14.75,14.61,14.65,14.65,546.87,-1271.48,762.70,0.26,102.80,161.63
5237,14.58,14.75,14.61,14.65,14.65,347.66,-1294.43,729.98,13.46,143.40,129.25
5268,14.58,14.75,14.61,14.65,14.65,275.39,-1166.02,541.50,30.15,140.32,89.37
5299,14.58,14.75,14.61,14.65,14.65,304.20,-1104.00,466.80,2.03,144.05,53.55
5330,14.58,14.75,14.61,14.65,14.65,269.04,-1039.06,468.26,-15.95,159.16,30.44
5361,14.58,14.75,14.61,14.65,14.65,330.57,-1055.66,606.93,-2.86,179.74,14.47
5392,14.58,14.75,14.61,14.65,14.65,375.00,-885.25,584.96,12.52,198.25,-3.21
5423,14.58,14.75,14.61,14.65,14.65,-315.92,-1942.87,504.39,217.45,109.73,-70.03
5454,14.58,14.75,14.61,14.65,14.65,0.49,-1429.69,925.78,147.21,111.60,-90.12
5484,14.60,14.76,14.61,14.65,14.65,280.27,-843.26,849.61,177.76,79.33,-107.37
5515,14.65,14.76,14.61,14.65,14.67,-464.36,-1182.62,-166.50,196.21,116.50,-89.60
5546,14.84,14.77,14.61,14.66,14.72,-89.84,-1864.26,-775.39,113.12,-85.83,-56.70
5577,15.01,14.77,14.61,14.70,14.77,365.23,-343.75,834.96,128.33,23.69,-8.64
5608,15.04,14.77,14.62,14.74,14.79,-416.50,-171.39,217.29,84.18,41.95,-13.16
5639,15.13,14.77,14.63,14.81,14.83,-55.18,-788.57,514.16,67.24,-27.38,-1.12
5670,15.35,14.77,14.64,14.87,14.91,-0.98,-767.09,601.56,50.54,-4.52,6.98
5701,15.52,14.77,14.65,14.94,14.97,3.42,-830.57,588.38,32.04,-13.75,1.18
5732,15.66,14.78,14.65,14.99,15.02,-30.27,-818.36,618.65,17.40,-15.40,1.21
5763,15.77,14.78,14.66,15.04,15.06,-41.99,-797.85,626.95,17.40,-4.49,-2.64
5794,15.78,14.78,14.66,15.09,15.08,-54.69,-806.64,625.49,12.22,-5.69,-2.56
5825,15.74,14.78,14.67,15.12,15.08,-23.44,-806.15,644.53,6.92,-6.44,-0.41
5856,15.70,14.78,14.67,15.13,15.07,-7.32,-780.76,653.81,-1.88,1.31,-2.66
5887,15.68,14.79,14.67,15.11,15.06,-41.99,-806.15,651.86,-5.15,6.04,-1.49
5918,15.66,14.79,14.67,15.10,15.06,14.16,-757.81,635.25,-20.05,6.11,-5.66
5949,15.66,14.80,14.67,15.09,15.05,-29.30,-806.15,609.37,-17.18,3.94,-4.33
5980,15.67,14.80,14.67,15.08,15.05,-32.23,-807.62,625.98,-5.62,7.76,-3.27
6011,15.69,14.81,14.67,15.07,15.06,-39.06,-819.34,618.16,-7.79,8.21,-3.96
6042,15.69,14.81,14.67,15.06,15.06,-34.67,-826.66,615.23,-3.27,4.01,-1.60
6073,15.68,14.81,14.67,15.06,15.06,-38.57,-834.96,604.00,-3.40,3.66,-3.73
6104,15.67,14.82,14.67,15.05,15.05,-26.86,-817.38,624.51,-4.94,2.42,-3.88
6135,15.67,14.82,14.67,15.05,15.05,-42.48,-822.27,588.38,-0.31,1.02,-3.31
6166,15.64,14.82,14.67,15.06,15.05,-10.74,-832.03,619.63,6.35,-3.64,0.31
6197,15.60,14.82,14.68,15.08,15.04,-24.41,-836.43,619.14,0.07,0.56,-3.66
6228,15.53,14.82,14.68,15.08,15.03,-31.74,-807.62,639.16,1.01,-4.46,-4.90
6259,15.46,14.82,14.68,15.12,15.02,-79.10,-856.93,586.43,-5.14,-2.12,-1.04
6290,15.32,14.81,14.69,15.18,15.00,-41.02,-832.03,606.93,1.24,-5.01,-10.66
6321,15.17,14.81,14.70,15.23,14.98,-27.34,-882.81,657.71,1.31,-6.48,-16.26
6352,15.01,14.82,14.70,15.27,14.95,-36.13,-837.89,630.86,24.59,1.73,-23.24
6382,14.83,14.82,14.70,15.28,14.91,-52.73,-956.54,659.18,9.09,-17.21,-27.27
6413,14.67,14.81,14.70,15.21,14.85,292.48,-487.30,158.69,-2.78,-76.52,-24.25
6443,14.62,14.79,14.69,15.06,14.79,201.17,-1380.37,750.98,-19.28,98.75,-100.49
6474,14.61,14.79,14.68,14.90,14.74,-90.82,-1272.95,423.83,7.79,44.19,-158.47
6504,14.60,14.77,14.66,14.79,14.71,-49.80,-1239.26,388.67,-35.17,80.14,-183.23
6534,14.60,14.76,14.65,14.73,14.68,-6.35,-956.54,149.41,-83.39,104.51,-182.75
6565,14.59,14.75,14.63,14.69,14.67,52.25,-1152.34,547.36,32.83,142.46,-180.89
6596,14.59,14.75,14.61,14.66,14.65,-392.09,-771.48,497.56,18.52,136.24,-158.81
6627,14.59,14.75,14.61,14.66,14.65,-549.80,-445.80,443.85,-21.15,158.70,-97.47
6657,14.59,14.75,14.61,14.66,14.65,-635.25,-505.86,396.48,-14.13,152.65,-18.53
6688,14.59,14.75,14.61,14.66,14.65,-574.22,-439.45,484.86,-44.47,109.06,18.44
6719,14.59,14.75,14.61,14.65,14.65,-471.68,-495.61,646.00,-62.15,75.66,52.15
6749,14.59,14.75,14.61,14.65,14.65,-416.50,-681.64,761.72,-79.38,37.69,71.87
6780,14.59,14.75,14.61,14.65,14.65,-273.93,-912.11,832.52,-54.60,10.40,97.75
6811,14.59,14.75,14.61,14.65,14.65,-141.60,-937.50,773.44,-41.50,0.27,101.33
6842,14.59,14.75,14.61,14.65,14.65,-30.27,-977.54,726.07,-53.46,-21.73,79.71
6873,14.59,14.75,14.61,14.65,14.65,51.76,-1043.95,639.65,-71.36,-19.31,79.73
6904,14.58,14.75,14.61,14.65,14.65,70.31,-1105.96,680.66,-54.79,-19.26,62.27
6935,14.58,14.75,14.61,14.65,14.65,170.41,-942.38,651.86,-22.68,-33.27,34.78
6966,14.58,14.75,14.61,14.65,14.65,251.95,-854.98,576.17,-29.82,-44.24,-3.90
6997,14.58,14.75,14.61,14.65,14.65,308.59,-1020.02,640.62,-28.51,-37.80,-4.61
7028,14.58,14.75,14.61,14.65,14.65,372.56,-847.17,646.48,3.53,-8.08,48.27
7059,14.58,14.75,14.61,14.65,14.65,418.46,-818.36,526.86,10.98,7.63,63.56
7090,14.58,14.74,14.61,14.65,14.65,951.66,-493.16,22.46,20.60,-30.07,-12.06
7121,14.60,14.75,14.61,14.65,14.65,43.46,-1401.37,392.09,38.66,-58.26,-76.59
7152,14.65,14.75,14.61,14.66,14.67,179.20,-807.62,739.26,74.77,-8.73,-4.69
7183,14.81,14.75,14.62,14.68,14.71,8.79,-663.09,539.06,69.74,-39.90,-4.68
7214,15.06,14.76,14.62,14.69,14.78,-81.05,-766.60,654.30,31.49,-17.66,-13.08
7245,15.26,14.77,14.62,14.71,14.84,-89.84,-838.38,611.82,16.45,0.56,-4.84
7276,15.47,14.78,14.63,14.72,14.90,-38.57,-839.36,590.82,14.94,3.81,-2.99
7307,15.76,14.78,14.63,14.74,14.98,-67.38,-830.57,593.26,16.39,-2.92,-2.19
7338,16.09,14.79,14.63,14.77,15.07,-37.60,-794.92,682.62,15.97,-7.06,0.36
7369,16.38,14.79,14.63,14.79,15.15,-43.46,-788.57,619.63,-0.63,0.45,-1.11
7400,16.56,14.80,14.64,14.80,15.20,-60.06,-854.00,609.86,-9.81,2.37,-1.73
7431,16.63,14.81,14.64,14.83,15.22,-68.36,-837.40,575.68,-5.93,1.89,1.04
7462,16.58,14.81,14.64,14.87,15.23,-40.53,-827.64,607.42,1.02,-2.37,-2.23
7493,16.49,14.81,14.65,14.89,15.21,-39.06,-844.24,602.05,-2.87,-1.42,-2.68
7524,16.41,14.81,14.65,14.90,15.19,-52.25,-835.45,594.73,-5.37,1.75,-1.19
7555,16.35,14.82,14.65,14.91,15.18,-63.96,-845.21,593.75,-1.38,0.98,-1.34
7586,16.35,14.82,14.65,14.91,15.18,-49.32,-825.20,594.24,-1.27,0.87,0.08
7617,16.37,14.82,14.65,14.91,15.19,-48.83,-812.99,608.40,-2.00,3.53,-2.37
7648,16.37,14.82,14.65,14.92,15.19,-60.55,-849.12,577.64,2.13,-2.66,-1.89
7680,16.36,14.82,14.65,14.93,15.19,-52.73,-827.64,608.40,0.63,-1.71,-0.92
7711,16.37,14.82,14.65,14.93,15.19,-47.36,-830.08,591.31,-0.06,-0.29,-0.90
7742,16.38,14.82,14.65,14.93,15.20,-47.36,-844.73,591.31,0.14,-0.20,-0.91
7773,16.37,14.82,14.66,14.93,15.19,-57.62,-812.99,590.33,-0.45,-0.84,-0.03
7804,16.36,14.83,14.65,14.93,15.19,-52.73,-828.61,603.52,-2.52,2.44,-2.22
7835,16.38,14.83,14.65,14.92,15.19,-64.45,-829.10,568.36,-3.08,1.33,-0.02
7866,16.38,14.83,14.65,14.92,15.19,-53.22,-844.24,582.03,1.42,2.24,-0.18
7897,16.36,14.83,14.65,14.92,15.19,-40.53,-828.61,604.98,1.69,0.73,-3.58
7928,16.35,14.83,14.65,14.91,15.19,-46.39,-827.64,595.21,-1.65,4.03,0.69
7959,16.35,14.83,14.65,14.90,15.18,-41.50,-829.10,595.21,-2.76,0.03,-0.38
7990,16.36,14.83,14.65,14.88,15.18,-48.34,-822.75,602.54,-2.01,-0.31,0.32
8021,16.33,14.82,14.65,14.88,15.17,-87.89,-872.56,526.37,0.50,-4.02,3.12
8052,16.23,14.82,14.65,14.88,15.14,-51.76,-854.49,581.05,-2.45,-3.51,0.57
8082,16.04,14.81,14.64,14.86,15.09,-68.36,-845.21,588.38,-3.53,-4.89,2.34
8113,15.78,14.80,14.64,14.81,15.01,-57.62,-844.73,595.70,-7.02,-4.05,1.44
8143,15.47,14.79,14.63,14.77,14.92,-42.97,-816.41,594.73,-17.05,-1.35,1.80
8173,15.13,14.78,14.63,14.72,14.81,-78.61,-831.54,564.45,-31.59,-1.28,0.33
8204,14.84,14.77,14.62,14.68,14.73,-82.03,-833.50,575.20,-73.69,3.15,-2.45
8234,14.69,14.76,14.62,14.67,14.68,-288.09,-871.58,551.27,-70.47,10.71,41.50
8265,14.65,14.76,14.61,14.65,14.67,-450.20,-1072.75,596.19,23.64,-51.89,-5.69
8296,14.64,14.76,14.61,14.65,14.66,-229.00,-497.56,346.68,-6.60,-59.12,0.89
8327,14.63,14.76,14.61,14.65,14.66,-195.80,-995.12,452.15,-22.87,-23.98,43.73
8357,14.63,14.75,14.61,14.65,14.66,-90.82,-769.04,467.77,8.05,-12.88,28.90
8388,14.62,14.75,14.61,14.65,14.66,-66.89,-764.16,401.37,-2.40,3.34,8.78
8419,14.62,14.75,14.61,14.64,14.66,76.66,-826.66,460.94,-9.02,-0.74,-17.77
8449,14.62,14.75,14.61,14.65,14.66,212.89,-1142.58,412.60,-22.42,38.17,41.42
8480,14.61,14.75,14.61,14.64,14.65,190.92,-772.46,348.63,21.06,39.61,28.92
8511,14.62,14.75,14.61,14.65,14.66,890.14,-1517.09,472.66,73.26,41.20,-64.52
8542,14.67,14.75,14.61,14.66,14.67,-318.85,-809.57,-141.60,48.37,23.27,-40.43
8573,14.76,14.76,14.62,14.68,14.70,92.29,-751.95,740.72,29.37,18.55,-6.24
8604,14.86,14.76,14.62,14.70,14.73,-10.25,-717.77,718.75,33.28,-14.00,-3.05
8635,14.93,14.77,14.62,14.71,14.76,-73.73,-797.85,623.05,7.44,-2.70,-1.55
8666,14.97,14.77,14.62,14.72,14.77,-65.92,-825.68,583.01,3.10,1.82,-2.89
8697,15.03,14.77,14.63,14.73,14.79,-67.38,-864.26,546.39,8.40,3.12,-1.51
8728,15.09,14.78,14.63,14.75,14.81,-55.66,-839.84,598.14,17.11,-6.45,-0.66
8759,15.15,14.78,14.63,14.77,14.83,-64.94,-829.10,593.26,6.70,-2.73,1.15
8790,15.20,14.78,14.63,14.78,14.85,-57.62,-833.98,590.82,9.81,-1.76,-1.76
8821,15.25,14.79,14.63,14.79,14.87,-58.59,-825.68,588.87,9.37,-1.40,-2.18
8852,15.33,14.79,14.63,14.80,14.89,-60.06,-820.31,591.80,2.93,0.28,-1.00
8883,15.39,14.79,14.63,14.80,14.90,-64.45,-818.36,601.07,0.53,-1.12,0.17
8914,15.41,14.79,14.64,14.81,14.91,-68.36,-841.80,605.47,4.00,-1.59,0.92
8945,15.42,14.79,14.64,14.81,14.91,-53.71,-835.45,591.31,1.12,-2.26,-1.55
8976,15.42,14.79,14.64,14.81,14.91,-57.13,-816.41,602.54,-1.79,-1.92,-0.95
9007,15.41,14.79,14.64,14.81,14.91,-59.57,-817.87,602.54,-1.70,0.44,-1.02
9038,15.39,14.79,14.64,14.81,14.91,-61.04,-822.27,616.70,0.18,-0.55,0.48
9069,15.38,14.79,14.64,14.81,14.90,-47.85,-833.98,604.00,1.11,0.44,-2.37
9100,15.37,14.79,14.64,14.81,14.90,-53.22,-824.71,615.23,-1.39,0.10,0.87
9131,15.36,14.79,14.64,14.81,14.90,-59.57,-835.45,604.49,-1.85,1.47,-0.67
9162,15.32,14.79,14.64,14.82,14.89,-48.34,-838.87,578.12,4.09,-2.44,-0.82
9193,15.30,14.79,14.64,14.84,14.89,-52.25,-833.01,617.68,6.24,-4.38,-3.26
9224,15.29,14.79,14.64,14.86,14.90,-57.62,-815.92,606.45,4.57,-1.95,0.83
9255,15.30,14.79,14.64,14.89,14.91,-48.83,-837.89,610.35,4.47,-4.99,-0.90
9286,15.32,14.79,14.64,14.92,14.92,-48.83,-815.43,617.19,7.63,-3.17,-0.66
9317,15.34,14.79,14.64,14.93,14.93,-53.22,-810.55,626.95,1.80,2.05,-1.24
9348,15.37,14.80,14.65,14.94,14.94,-61.52,-818.85,618.16,3.13,1.87,-2.54
9379,15.40,14.80,14.65,14.93,14.94,-57.62,-825.20,616.21,-0.20,1.87,-2.85
9410,15.44,14.80,14.65,14.92,14.95,-61.52,-812.99,609.37,-1.44,4.12,-1.87
9441,15.47,14.80,14.64,14.92,14.96,-66.89,-835.94,597.17,0.48,-1.99,0.50
9472,15.46,14.80,14.65,14.91,14.95,-48.83,-840.33,604.00,-0.34,-2.02,-2.16
9503,15.45,14.80,14.64,14.90,14.95,-60.06,-834.96,600.59,0.15,0.64,-2.49
9534,15.44,14.80,14.64,14.88,14.94,-51.27,-823.73,611.82,-0.49,-2.09,1.40
9565,15.45,14.79,14.64,14.87,14.94,-43.95,-829.10,610.84,0.08,1.27,0.20
9596,15.46,14.79,14.64,14.86,14.94,-39.55,-823.73,612.30,-1.54,1.51,3.24
9627,15.47,14.79,14.64,14.85,14.94,-51.27,-820.80,621.58,0.79,1.37,2.20
9658,15.49,14.79,14.64,14.85,14.94,-53.71,-814.45,627.93,0.98,1.02,-1.63
9689,15.51,14.79,14.64,14.85,14.95,-44.92,-817.87,608.89,2.23,-1.02,0.02
9719,15.54,14.79,14.64,14.84,14.95,-50.78,-820.31,619.63,1.76,1.95,1.39
9749,15.57,14.79,14.64,14.83,14.96,-59.08,-821.29,625.49,-1.74,0.62,0.58
9780,15.63,14.79,14.64,14.84,14.97,-71.29,-847.66,590.33,1.91,-1.60,-1.27
9810,15.69,14.79,14.64,14.85,14.99,-59.57,-829.59,619.14,0.27,1.52,1.53
9841,15.72,14.79,14.64,14.85,15.00,-56.64,-832.03,607.42,3.59,-1.78,2.43
9871,15.76,14.79,14.64,14.86,15.01,-50.78,-822.27,619.63,3.48,-3.44,-0.28
9902,15.80,14.79,14.64,14.89,15.03,-29.79,-827.15,605.96,8.79,-0.80,0.00
9933,15.85,14.79,14.64,14.90,15.05,-48.34,-791.99,636.72,3.94,-2.54,-1.28
9963,15.88,14.79,14.64,14.91,15.06,-48.83,-833.50,599.12,0.11,-2.34,-2.50
9994,15.93,14.80,14.64,14.92,15.07,-53.22,-825.20,624.51,2.84,-0.76,-0.74
10025,15.98,14.80,14.64,14.93,15.09,-44.92,-822.75,616.70,2.02,-0.21,0.45
10056,16.00,14.80,14.64,14.95,15.10,-42.97,-816.89,631.84,5.22,-3.43,-1.21
10086,15.98,14.80,14.65,14.96,15.10,-50.29,-819.34,615.72,2.89,-1.56,0.15
10117,15.97,14.80,14.65,14.97,15.10,-48.34,-807.62,624.02,1.27,-2.08,0.76
10148,15.94,14.80,14.65,14.97,15.09,-53.22,-800.78,642.09,-0.55,0.68,-0.58
10179,15.95,14.80,14.65,14.96,15.09,-45.41,-815.43,631.84,-0.89,1.15,-1.87
10209,15.95,14.80,14.65,14.95,15.09,-51.27,-833.50,615.72,-1.19,0.67,-0.69
10241,15.92,14.80,14.65,14.94,15.08,-43.95,-800.29,613.77,-0.87,1.25,-1.70
10272,15.87,14.80,14.65,14.92,15.06,-40.53,-821.29,617.19,-3.25,2.26,1.55
10302,15.75,14.79,14.64,14.90,15.02,-63.48,-815.43,631.35,-7.71,0.08,-1.55
10333,15.52,14.79,14.64,14.88,14.96,-54.20,-811.04,623.54,-11.26,-0.47,-0.71
10365,15.30,14.78,14.64,14.86,14.90,-38.09,-814.45,614.75,-14.13,0.90,-2.49
10395,15.18,14.78,14.64,14.85,14.86,-33.69,-814.45,615.72,-8.00,2.86,-0.57
10426,15.13,14.78,14.64,14.84,14.85,-62.99,-834.47,582.52,-4.08,0.23,-2.86
10457,15.11,14.78,14.64,14.85,14.84,-44.92,-825.68,605.96,-0.77,2.69,0.14
10488,15.11,14.78,14.64,14.86,14.85,-45.90,-796.39,616.21,2.21,1.22,-1.26
10519,15.12,14.78,14.64,14.87,14.85,-58.11,-840.82,592.77,-0.57,1.65,1.14
10550,15.14,14.78,14.64,14.88,14.86,-60.06,-834.96,584.96,2.30,1.03,-0.44
10581,15.15,14.78,14.64,14.88,14.86,-37.11,-816.89,615.72,1.26,-0.17,-0.80
10612,15.17,14.78,14.64,14.88,14.87,-53.22,-824.22,603.03,-0.05,1.00,0.20
10643,15.18,14.78,14.64,14.87,14.87,-58.11,-826.66,598.14,-0.94,-0.08,-0.62
10674,15.20,14.78,14.64,14.87,14.87,-50.29,-820.31,616.70,-0.85,0.83,-0.93
10705,15.21,14.78,14.64,14.86,14.87,-52.73,-818.36,612.30,0.15,0.95,-1.32
10736,15.24,14.78,14.64,14.85,14.88,-49.32,-831.54,611.33,0.79,2.34,0.40
10767,15.30,14.78,14.64,14.83,14.89,-52.73,-825.20,606.45,0.90,3.34,1.03
10798,15.38,14.78,14.64,14.83,14.91,-62.99,-819.82,619.14,0.89,3.21,1.31
10829,15.45,14.78,14.64,14.83,14.92,-45.41,-812.99,624.02,2.43,1.77,-0.82
10860,15.53,14.78,14.64,14.82,14.94,-42.97,-825.68,615.72,3.27,0.92,0.78
10891,15.64,14.79,14.64,14.82,14.97,-60.06,-804.69,619.63,2.12,2.08,0.44
10922,15.77,14.79,14.64,14.82,15.00,-40.53,-818.85,623.54,-4.24,3.98,-0.67
10953,15.93,14.79,14.63,14.82,15.04,-57.13,-833.98,611.33,-2.63,4.37,0.20
10984,16.11,14.79,14.64,14.83,15.09,-66.89,-818.85,612.30,2.93,0.17,-2.44
11015,16.30,14.79,14.64,14.83,15.14,-79.59,-809.57,629.39,1.71,-0.80,-2.06
11046,16.40,14.80,14.64,14.84,15.17,-66.89,-824.71,606.45,-0.61,3.47,-0.62
11077,16.42,14.80,14.64,14.85,15.18,-50.29,-813.48,610.35,0.83,-0.42,-2.22
11108,16.40,14.80,14.64,14.86,15.17,-56.64,-813.96,615.23,-1.31,-1.52,-2.17
11139,16.39,14.80,14.64,14.86,15.17,-56.15,-795.90,611.82,-0.82,2.73,-0.89
11170,16.38,14.80,14.64,14.85,15.17,-55.66,-827.15,634.77,-1.11,2.55,-1.27
11201,16.39,14.80,14.64,14.84,15.17,-47.85,-830.08,599.12,-3.12,0.80,-2.08
11232,16.42,14.80,14.64,14.84,15.17,-64.94,-812.01,605.96,-1.91,1.40,0.68
11263,16.42,14.80,14.64,14.84,15.17,-49.80,-812.50,604.00,0.08,-2.37,-0.69
11294,16.42,14.80,14.64,14.84,15.17,-52.25,-794.92,608.89,0.21,-1.06,1.56
11325,16.39,14.80,14.64,14.84,15.17,-53.22,-828.61,596.68,-1.48,-1.54,0.79
11356,16.33,14.80,14.64,14.83,15.15,-56.64,-824.22,622.56,-3.55,-0.43,1.76
11387,16.25,14.80,14.64,14.82,15.13,-57.62,-828.61,625.00,-0.55,1.21,-1.01
11417,16.19,14.79,14.64,14.82,15.11,-67.38,-812.01,612.79,-2.16,-1.89,0.03
11448,16.14,14.79,14.64,14.81,15.09,-62.01,-812.99,601.07,1.49,1.47,0.13
11478,16.06,14.79,14.64,14.79,15.07,-55.66,-834.96,618.16,-4.30,0.33,-0.27
11509,15.94,14.79,14.63,14.77,15.03,-60.55,-817.87,616.21,-7.05,2.31,0.13
11541,15.78,14.79,14.63,14.75,14.99,-71.29,-809.08,598.63,-11.07,-0.89,-0.92
11571,15.60,14.78,14.63,14.73,14.94,-53.71,-817.38,604.49,-9.92,-2.66,-0.40
11602,15.42,14.78,14.63,14.70,14.88,-44.92,-817.38,607.91,-15.31,1.89,1.40
11633,15.19,14.77,14.62,14.68,14.82,-88.38,-829.10,597.17,-32.24,7.05,-1.18
11663,14.92,14.76,14.62,14.67,14.74,-69.34,-875.00,548.34,-38.73,-3.92,-4.21
11694,14.73,14.76,14.62,14.65,14.69,-108.40,-911.62,499.51,-60.47,-0.47,-11.57
11725,14.65,14.76,14.61,14.65,14.67,-256.84,-978.03,489.26,-11.93,15.56,-22.88
11755,14.64,14.76,14.61,14.65,14.66,-527.83,-1161.13,520.51,30.06,-6.66,-39.41
11786,14.63,14.76,14.61,14.65,14.66,-614.75,-833.50,506.35,15.69,10.73,2.19
11817,14.63,14.76,14.61,14.64,14.66,-639.16,-852.05,476.07,22.15,26.40,22.31
11848,14.63,14.76,14.61,14.64,14.66,-570.80,-690.43,409.18,15.33,37.84,29.30
11879,14.62,14.76,14.61,14.64,14.66,-544.43,-769.53,465.33,0.80,51.62,38.35
11910,14.62,14.76,14.61,14.64,14.66,-456.54,-842.29,502.93,5.27,49.63,48.74
11941,14.62,14.76,14.61,14.64,14.66,-377.44,-824.22,515.62,4.38,39.79,65.76
11972,14.62,14.76,14.61,14.64,14.66,-290.53,-911.62,523.44,-5.15,27.54,79.71
12003,14.61,14.76,14.61,14.64,14.66,-184.57,-868.65,461.91,-17.12,33.61,84.74
12034,14.62,14.76,14.61,14.64,14.66,-125.49,-952.64,552.25,-29.87,38.24,73.44
12064,14.61,14.76,14.62,14.64,14.66,-125.00,-902.83,560.55,1.59,29.92,76.13
12096,14.61,14.76,14.62,14.64,14.66,-99.12,-895.02,527.83,-8.71,33.61,71.92
12127,14.61,14.76,14.61,14.64,14.66,-59.57,-835.45,506.35,-7.32,23.18,57.42
12157,14.61,14.76,14.61,14.64,14.66,-73.73,-814.45,491.70,-12.04,-2.10,28.46
12188,14.61,14.76,14.62,14.64,14.66,-83.50,-920.41,496.58,-20.63,-9.62,26.05
12220,14.61,14.76,14.62,14.64,14.66,-122.56,-830.08,466.31,-19.18,-4.47,31.72
12250,14.61,14.76,14.62,14.64,14.66,-175.78,-854.49,459.47,-22.60,-12.30,11.24
12281,14.61,14.76,14.62,14.64,14.66,-199.71,-895.51,509.28,-31.71,-21.77,-1.93
12312,14.61,14.76,14.62,14.64,14.66,-286.13,-881.35,543.46,-13.99,-15.89,28.55
12343,14.61,14.76,14.62,14.65,14.66,-325.68,-762.21,526.37,-16.37,-18.42,7.77
12374,14.61,14.76,14.62,14.64,14.66,-376.46,-779.79,496.58,-13.64,-17.92,1.04
12405,14.61,14.76,14.62,14.65,14.66,-294.43,-831.54,503.42,-32.23,-17.10,3.62
12436,14.61,14.76,14.62,14.65,14.66,-360.35,-893.07,567.38,-10.13,-22.27,12.24
12467,14.61,14.76,14.62,14.65,14.66,-412.11,-843.26,516.11,6.24,-15.69,-8.18
12498,14.62,14.76,14.62,14.65,14.66,-452.15,-777.34,530.76,19.66,-2.77,-20.27
12529,14.62,14.76,14.62,14.65,14.66,-559.08,-651.86,490.72,14.53,-0.23,-16.50
12560,14.62,14.76,14.62,14.65,14.66,-602.54,-784.18,458.98,-13.02,9.63,-0.11
12591,14.61,14.76,14.62,14.65,14.66,-494.14,-794.92,479.49,-1.02,5.69,14.42
12622,14.61,14.76,14.62,14.65,14.66,-391.60,-834.47,432.13,-2.25,2.21,12.27
12653,14.61,14.76,14.62,14.65,14.66,-276.86,-842.77,432.62,4.38,3.27,8.99
12684,14.62,14.76,14.62,14.65,14.66,-218.26,-793.46,424.80,2.24,0.40,-5.34
12715,14.63,14.76,14.62,14.65,14.66,-573.24,-770.02,407.71,-0.64,-9.98,-0.83
12746,14.64,14.76,14.62,14.65,14.67,-468.26,-855.96,411.62,-7.50,-10.92,-7.58
12777,14.66,14.76,14.62,14.65,14.67,-451.17,-849.61,408.20,-9.96,-15.08,-4.38
12808,14.68,14.76,14.62,14.65,14.68,-413.57,-897.46,446.29,9.31,-13.36,-5.47
12839,14.70,14.76,14.62,14.65,14.68,-442.38,-723.14,481.93,9.21,-12.09,-6.04
12870,14.72,14.76,14.62,14.65,14.69,-422.36,-758.30,490.23,-11.89,-19.63,0.15
12901,14.73,14.76,14.62,14.65,14.69,-391.60,-878.91,499.02,-5.95,-11.55,-4.62
12932,14.74,14.76,14.62,14.65,14.69,-422.36,-799.80,474.12,4.53,-3.58,-3.21
12963,14.76,14.76,14.62,14.65,14.70,-410.16,-794.43,480.96,-11.40,-11.36,-1.93
12994,14.78,14.76,14.62,14.65,14.70,-437.01,-809.57,451.17,-11.28,-5.98,-6.92
13024,14.80,14.76,14.62,14.65,14.71,-381.84,-818.85,481.45,-8.53,-0.24,-6.22
13055,14.82,14.76,14.62,14.65,14.71,-425.29,-825.20,419.43,-12.66,-5.49,-6.44
13085,14.84,14.76,14.62,14.65,14.72,-415.04,-831.54,425.29,-14.98,-10.07,-5.29
13116,14.86,14.76,14.62,14.65,14.72,-353.52,-855.47,490.72,-15.66,-5.58,-2.14
13146,14.89,14.76,14.62,14.65,14.73,-398.93,-823.24,417.97,-16.31,1.74,-1.60
13176,14.92,14.75,14.62,14.65,14.73,-379.88,-851.07,439.94,-20.90,0.17,-1.21
13207,14.96,14.75,14.62,14.65,14.75,-380.37,-868.65,442.38,-25.26,3.44,3.39
13241,15.01,14.75,14.62,14.65,14.76,-429.20,-835.94,362.30,-17.23,4.72,-1.19
13273,15.05,14.75,14.62,14.65,14.77,-394.04,-879.88,377.44,-21.02,0.24,-0.30
13303,15.10,14.75,14.62,14.65,14.78,-434.57,-804.69,366.21,-17.63,-1.27,-2.44
13334,15.15,14.75,14.62,14.65,14.79,-413.09,-845.70,358.40,-15.75,-4.25,-8.22
13365,15.20,14.75,14.62,14.65,14.81,-362.79,-898.93,382.81,-11.18,2.02,-8.02
13396,15.26,14.75,14.62,14.65,14.82,-425.78,-901.37,304.20,-8.50,-3.82,-9.90
13426,15.32,14.75,14.62,14.65,14.84,-377.44,-874.51,377.93,-1.29,-9.31,-6.08
13457,15.41,14.75,14.62,14.65,14.86,-365.72,-884.28,395.02,-7.29,-4.59,-6.51
13488,15.46,14.75,14.62,14.65,14.87,-380.86,-884.28,367.68,-7.73,-1.28,-12.65
13519,15.51,14.75,14.62,14.66,14.88,-385.25,-887.21,387.70,-4.29,2.60,-8.65
13550,15.58,14.75,14.62,14.66,14.90,-369.63,-870.12,358.40,-14.23,-5.36,-9.78
13581,15.66,14.75,14.62,14.66,14.92,-353.52,-899.90,350.10,-17.18,-0.79,-5.70
13612,15.73,14.75,14.62,14.66,14.94,-367.19,-845.21,354.98,-25.30,-4.88,-9.69
13643,15.83,14.75,14.62,14.66,14.96,-341.80,-958.50,303.22,-21.98,-5.29,-11.66
13674,15.91,14.75,14.62,14.66,14.98,-353.03,-875.49,332.52,-8.68,-1.96,-15.08
13705,15.97,14.75,14.62,14.66,15.00,-339.84,-879.88,326.17,-8.63,-0.18,-19.80
13736,16.02,14.75,14.62,14.66,15.01,-359.86,-892.09,278.32,-4.76,4.03,-28.44
13767,16.08,14.75,14.62,14.66,15.03,-275.88,-1039.55,324.71,-8.93,-2.26,-20.94
13798,16.14,14.75,14.62,14.66,15.04,-293.46,-931.15,343.26,-8.94,-3.91,-8.39
13829,16.20,14.75,14.62,14.66,15.06,-335.45,-924.32,262.21,-20.73,0.57,-9.76
13860,16.24,14.75,14.61,14.66,15.07,-275.88,-910.16,365.72,-19.52,12.18,-11.13
13891,16.27,14.76,14.61,14.67,15.08,-308.11,-953.61,262.21,-26.46,10.59,-6.07
13922,16.28,14.76,14.61,14.66,15.08,-324.71,-919.43,249.02,-12.62,10.62,-12.97
13953,16.25,14.76,14.61,14.67,15.07,-314.45,-901.86,255.86,16.06,8.17,-27.45
13984,16.24,14.76,14.62,14.67,15.07,-221.19,-1080.08,245.12,-2.00,-2.81,-8.85
14015,16.22,14.76,14.62,14.67,15.07,-315.43,-895.02,259.28,5.80,-3.58,-7.09
14046,16.23,14.76,14.62,14.67,15.07,-275.39,-936.04,291.50,16.24,0.07,-19.15
14077,16.26,14.76,14.62,14.67,15.07,-216.80,-999.02,320.31,0.82,-1.98,-8.36
14108,16.28,14.76,14.62,14.66,15.08,-281.25,-914.55,293.46,-6.41,-0.32,-6.77
14139,16.30,14.76,14.61,14.66,15.08,-249.51,-949.22,261.23,3.54,4.26,-15.48
14170,16.32,14.76,14.61,14.67,15.09,-197.27,-990.72,319.34,6.18,1.23,-19.70
14201,16.34,14.76,14.61,14.67,15.09,-296.39,-930.66,251.46,-3.18,4.93,2.92
14232,16.35,14.76,14.61,14.67,15.10,-239.75,-949.71,297.85,-4.85,0.56,-1.94
14263,16.39,14.77,14.62,14.67,15.11,-266.60,-936.52,270.02,0.41,3.08,-7.37
14294,16.42,14.77,14.61,14.67,15.12,-169.92,-1008.79,322.75,-4.62,2.00,-7.23
14325,16.44,14.77,14.61,14.67,15.12,-255.37,-927.25,250.49,2.48,0.47,-6.62
14356,16.48,14.77,14.61,14.67,15.13,-215.33,-970.70,281.25,6.46,1.89,-12.24
14387,16.50,14.77,14.61,14.67,15.14,-188.48,-994.63,314.94,-1.25,0.03,-2.33
14418,16.52,14.77,14.61,14.67,15.14,-189.45,-980.47,308.59,-7.35,-1.11,2.73
14449,16.54,14.77,14.61,14.66,15.15,-272.95,-929.69,250.00,4.69,-0.32,-0.84
14480,16.55,14.77,14.61,14.66,15.15,-203.61,-958.50,321.29,28.72,-7.92,-25.05
14511,16.58,14.77,14.61,14.66,15.16,-222.17,-955.57,273.44,9.74,1.86,-9.31
14542,16.59,14.77,14.61,14.66,15.16,-223.14,-930.66,313.48,20.06,-6.48,-16.49
14573,16.60,14.77,14.61,14.66,15.16,-238.77,-925.29,293.95,27.30,-5.44,-26.73
14604,16.63,14.78,14.61,14.66,15.17,-34.18,-995.61,476.07,9.19,-1.71,-15.23
14635,16.64,14.78,14.61,14.66,15.17,-201.17,-923.34,337.40,2.69,0.56,-9.80
14665,16.65,14.79,14.61,14.66,15.18,-181.64,-953.61,309.08,0.11,5.82,-15.19
14695,16.66,14.79,14.61,14.66,15.18,-141.60,-953.12,354.49,5.71,3.60,-13.13
14726,16.69,14.80,14.61,14.66,15.19,-157.71,-912.11,372.56,-2.64,4.49,-11.38
14756,16.74,14.80,14.61,14.66,15.20,-144.04,-957.03,336.43,-5.09,3.13,-11.93
14787,16.77,14.81,14.61,14.66,15.21,-183.59,-958.98,286.13,-0.47,2.15,-21.72
14817,16.79,14.82,14.61,14.66,15.22,-173.34,-945.80,374.51,-2.98,2.27,-11.17
14848,16.81,14.82,14.61,14.66,15.23,-132.32,-972.17,347.66,-4.18,2.35,-9.04
14879,16.79,14.84,14.61,14.65,15.23,-201.17,-922.85,329.10,14.35,-12.90,-27.27
14910,16.81,14.87,14.61,14.65,15.24,20.02,-1107.91,437.99,16.52,-10.22,-29.19
14940,16.79,14.88,14.61,14.65,15.23,-79.10,-958.01,392.09,7.79,-2.79,-6.26
14971,16.76,14.90,14.61,14.65,15.23,-71.78,-948.73,365.72,13.18,-6.99,-4.46
15002,16.70,14.93,14.61,14.65,15.22,-84.96,-960.94,382.81,37.05,-8.45,-1.71
15032,16.66,14.94,14.61,14.65,15.21,-43.46,-912.60,456.05,40.88,-13.08,-4.47
15063,16.58,14.96,14.61,14.65,15.20,-41.50,-912.60,415.53,39.60,-17.50,-4.63
15094,16.46,14.97,14.62,14.65,15.17,-47.36,-875.98,448.73,20.50,-5.29,-3.74
15125,16.34,14.97,14.62,14.67,15.15,-65.92,-920.90,436.04,32.88,-12.41,-5.31
15156,16.28,14.97,14.62,14.68,15.14,-68.36,-889.65,486.82,8.53,-4.77,0.11
15187,16.23,14.97,14.63,14.70,15.13,-59.08,-885.25,488.28,-0.95,0.11,1.15
15218,16.18,14.98,14.63,14.72,15.13,-69.82,-903.32,474.61,-0.05,-5.24,-2.75
15249,16.16,14.99,14.64,14.73,15.13,-55.66,-922.85,439.94,-3.72,-1.74,-0.17
15280,16.13,15.01,14.64,14.74,15.13,-53.22,-891.11,460.45,-8.44,-0.52,-2.22
15311,16.05,15.03,14.64,14.76,15.12,-74.22,-920.90,428.71,-6.37,-1.95,0.16
15342,15.98,15.03,14.65,14.77,15.11,-56.64,-919.92,459.47,-4.94,2.51,-3.21
15375,15.86,15.04,14.65,14.79,15.08,-43.46,-895.51,466.31,-4.20,-1.84,-2.39
15405,15.75,15.04,14.65,14.80,15.06,-81.54,-937.99,419.43,-3.38,-1.10,0.69
15436,15.65,15.04,14.65,14.82,15.04,-47.85,-923.34,444.34,0.52,-0.66,-0.95
15467,15.58,15.04,14.66,14.85,15.03,-68.36,-911.62,434.57,6.32,-2.85,-2.98
15498,15.54,15.03,14.66,14.90,15.03,-55.18,-902.34,469.24,11.71,-3.39,0.79
15529,15.48,15.02,14.67,14.94,15.03,-62.50,-916.02,445.31,4.40,-0.22,-1.10
15560,15.41,15.01,14.68,14.99,15.02,-33.69,-909.18,468.26,17.74,-3.81,-0.61
15591,15.37,14.99,14.68,15.05,15.02,-26.86,-900.88,507.32,26.47,-9.31,0.65
15622,15.36,14.97,14.69,15.12,15.03,-48.83,-868.65,508.79,17.48,-6.75,0.14
15653,15.32,14.95,14.70,15.21,15.04,-60.06,-926.27,453.12,16.19,-8.69,1.82
15684,15.23,14.91,14.71,15.29,15.03,-41.50,-906.25,522.46,33.19,-16.00,3.25
15715,15.19,14.89,14.72,15.33,15.03,-29.30,-839.36,592.29,21.40,-9.29,0.31
15746,15.19,14.88,14.73,15.35,15.04,-21.48,-872.07,508.79,12.35,-2.37,1.31
15777,15.22,14.88,14.74,15.36,15.05,-60.06,-872.56,522.95,7.59,0.22,0.84
15808,15.19,14.88,14.75,15.33,15.04,-44.92,-863.28,574.71,-1.37,-4.55,-1.43
15839,15.16,14.89,14.76,15.28,15.02,-23.93,-872.07,551.76,-7.63,2.04,-2.41
15871,15.18,14.92,14.75,15.20,15.01,-44.92,-836.43,518.55,-7.50,10.16,-2.74
15901,15.20,14.95,14.75,15.11,15.00,-71.29,-875.00,470.21,-26.50,9.01,-3.91
15932,15.17,14.99,14.74,15.06,14.99,-62.01,-908.20,493.65,-29.04,9.72,-5.67
15963,15.13,15.01,14.75,15.02,14.98,-47.36,-905.27,478.52,-10.51,5.21,-5.37
15994,15.12,15.02,14.75,14.99,14.97,-41.99,-879.39,526.37,-4.51,4.74,-4.35
16025,15.08,15.05,14.75,14.96,14.96,-69.34,-890.14,495.61,-19.69,2.32,-5.39
16056,15.02,15.06,14.76,14.94,14.95,-38.09,-920.90,470.21,-7.72,3.91,-5.32
16087,15.00,15.07,14.76,14.94,14.94,-43.46,-896.97,480.47,-1.37,3.19,-1.31
16118,15.00,15.06,14.77,14.95,14.94,-55.18,-920.90,462.89,6.31,-2.56,1.23
16149,15.02,15.06,14.77,14.96,14.95,-78.61,-916.02,492.68,2.95,-3.70,0.36
16180,15.03,15.05,14.77,14.98,14.96,-36.13,-914.55,479.00,11.27,-1.43,2.36
16211,15.09,15.04,14.77,14.97,14.97,-32.23,-882.81,524.90,21.43,-0.71,2.00
16242,15.20,15.03,14.77,14.97,14.99,-91.31,-896.48,493.16,4.09,1.31,2.68
16273,15.19,15.02,14.79,14.99,15.00,-55.18,-902.34,486.82,2.83,-4.65,-2.21
16303,15.17,15.02,14.81,15.00,15.00,-27.83,-887.21,528.81,6.76,-1.03,-1.30
16334,15.14,15.00,14.83,15.02,15.00,-41.50,-900.39,510.25,7.36,-6.46,-0.12
16364,15.11,14.98,14.84,15.03,14.99,-62.50,-854.49,513.67,-2.24,-1.02,-1.44
16395,15.05,14.97,14.86,15.03,14.98,-91.80,-905.76,501.95,-6.59,-1.23,-2.52
16425,14.98,14.96,14.88,15.03,14.96,-20.02,-905.76,490.23,1.77,-0.16,-4.45
16455,14.95,14.95,14.89,15.03,14.95,-8.79,-850.59,538.09,2.43,-0.62,-1.69
16486,14.91,14.94,14.90,15.04,14.94,-43.46,-860.84,547.85,-1.92,-0.37,-6.32
16517,14.86,14.93,14.91,15.05,14.94,-2.93,-879.39,541.02,0.46,-8.02,-1.76
16548,14.84,14.90,14.92,15.06,14.93,-50.78,-905.76,476.56,16.53,-7.49,0.84
16578,14.85,14.86,14.93,15.08,14.93,-37.60,-844.73,495.61,36.27,-7.38,3.92
16609,14.91,14.84,14.92,15.09,14.94,-25.39,-843.26,571.78,34.80,-10.48,9.50
16640,14.95,14.83,14.91,15.11,14.95,-52.25,-862.79,603.52,8.05,-8.44,4.79
16670,14.90,14.83,14.91,15.10,14.93,-28.32,-872.07,567.38,-12.05,-4.69,-3.57
16701,14.85,14.83,14.91,15.08,14.92,-30.76,-874.51,548.34,-7.70,-2.01,-2.06
16732,14.80,14.82,14.91,15.05,14.90,-49.32,-873.54,549.80,-16.75,-0.27,-2.53
16763,14.75,14.82,14.91,15.02,14.88,-2.93,-825.68,586.91,-27.11,4.47,-5.69
16794,14.70,14.82,14.91,15.01,14.86,-31.74,-896.48,521.97,-25.18,-3.98,-5.85
16825,14.67,14.82,14.91,15.00,14.85,-45.90,-892.09,492.19,-13.33,-4.76,-6.02
16856,14.65,14.81,14.91,14.98,14.84,-18.55,-887.70,559.08,-11.75,-7.77,-8.56
16887,14.64,14.81,14.91,14.96,14.83,-20.51,-881.35,564.45,-14.26,-5.32,-9.50
16918,14.63,14.80,14.91,14.96,14.83,-13.18,-933.11,466.31,-8.85,-8.41,-6.88
16949,14.63,14.80,14.92,14.96,14.82,-29.30,-917.97,527.34,-1.77,-9.25,-14.14
16980,14.62,14.79,14.92,14.95,14.82,7.32,-847.66,547.85,-10.62,-10.84,-14.22
17011,14.61,14.79,14.93,14.93,14.81,13.18,-882.32,508.30,-30.16,-12.03,-12.95
17042,14.61,14.78,14.93,14.92,14.81,7.32,-967.29,458.98,-22.24,-12.77,-15.50
17073,14.60,14.78,14.94,14.91,14.81,40.53,-926.27,462.89,-7.42,-12.11,-19.76
17104,14.60,14.78,14.94,14.91,14.81,59.57,-900.88,479.98,-9.61,-12.76,-15.05
17135,14.60,14.77,14.94,14.90,14.80,56.15,-939.94,463.38,-10.90,-11.47,-14.69
17166,14.59,14.77,14.95,14.89,14.80,52.73,-928.22,460.94,-11.56,-6.78,-18.60
17197,14.59,14.77,14.95,14.88,14.80,57.62,-926.76,476.07,-9.56,-11.17,-24.50
17228,14.59,14.77,14.96,14.87,14.80,115.72,-843.26,540.53,-26.92,-5.69,-25.20
17259,14.59,14.76,14.97,14.86,14.80,94.24,-925.29,421.39,-35.47,-11.65,-17.92
17290,14.59,14.76,14.98,14.85,14.80,99.12,-993.65,346.68,-22.37,-7.31,-22.57
17321,14.59,14.76,14.99,14.85,14.80,120.61,-964.36,389.16,-10.99,-10.51,-29.64
17352,14.59,14.77,14.99,14.84,14.80,89.84,-976.07,438.96,-14.29,-6.32,-35.63
17383,14.59,14.77,14.98,14.84,14.79,183.59,-915.04,411.62,-18.89,-9.74,-36.15
17414,14.59,14.77,14.98,14.83,14.79,142.58,-987.79,400.39,-15.62,-13.17,-36.42
17445,14.59,14.77,14.98,14.81,14.79,192.87,-1002.93,306.64,-2.32,-18.88,-43.15
17476,14.59,14.77,14.97,14.81,14.79,253.42,-908.20,310.06,8.24,-9.53,-43.02
17507,14.59,14.78,14.96,14.81,14.78,260.25,-884.28,367.68,2.66,-9.63,-43.07
17538,14.59,14.77,14.95,14.80,14.78,254.39,-905.27,438.96,-0.67,-11.97,-42.24
17569,14.59,14.78,14.94,14.79,14.77,282.23,-908.69,405.76,-0.69,-11.66,-42.23
17600,14.59,14.77,14.93,14.78,14.77,303.22,-910.64,366.70,0.20,-14.24,-42.79
17631,14.59,14.77,14.92,14.77,14.76,341.80,-916.99,326.66,4.27,-12.05,-41.05
17662,14.59,14.77,14.91,14.76,14.76,366.70,-854.98,333.98,1.56,-9.71,-44.58
17693,14.59,14.78,14.90,14.74,14.75,320.80,-930.66,395.51,3.16,-5.22,-42.70
17724,14.59,14.78,14.90,14.73,14.75,389.65,-842.77,384.77,3.47,-6.02,-45.87
17755,14.59,14.77,14.89,14.73,14.75,393.55,-835.94,386.72,0.92,-11.37,-48.11
17785,14.59,14.77,14.88,14.72,14.74,460.94,-814.94,373.54,-0.95,-9.97,-42.22
17817,14.59,14.77,14.88,14.72,14.74,440.92,-781.74,370.61,-3.76,-11.17,-43.22
17848,14.59,14.77,14.88,14.71,14.74,479.00,-821.29,360.35,2.03,-12.83,-40.47
17879,14.59,14.77,14.88,14.71,14.74,514.16,-742.68,281.25,3.38,-15.53,-42.99
17909,14.59,14.77,14.88,14.71,14.74,503.42,-763.18,338.38,2.20,-7.70,-44.48
17940,14.59,14.77,14.89,14.71,14.74,496.58,-668.95,338.87,1.60,-8.70,-46.92
17970,14.59,14.78,14.90,14.71,14.74,503.42,-811.04,376.46,-0.66,-13.37,-48.10
18001,14.59,14.77,14.90,14.71,14.75,573.73,-704.59,349.61,-2.10,-14.31,-51.27
18031,14.59,14.77,14.90,14.71,14.75,604.49,-743.16,337.40,-2.85,-15.97,-52.38
18062,14.59,14.78,14.91,14.71,14.75,620.12,-801.76,360.84,-12.74,-13.00,-51.65
18092,14.59,14.77,14.91,14.70,14.74,679.20,-648.93,328.12,-0.38,-13.68,-47.38
18123,14.60,14.77,14.90,14.70,14.74,679.69,-655.76,303.22,-3.35,-12.50,-39.48
18154,14.59,14.77,14.89,14.70,14.74,690.92,-610.35,199.71,9.71,-9.39,-37.24
18184,14.59,14.77,14.89,14.70,14.74,717.77,-597.66,232.42,6.81,-2.62,-38.03
18215,14.59,14.77,14.90,14.70,14.74,707.03,-680.66,337.40,-5.23,0.71,-35.47
18246,14.59,14.77,14.90,14.70,14.74,705.57,-646.00,382.32,1.43,-0.05,-35.80
18276,14.60,14.77,14.90,14.70,14.74,722.66,-653.81,340.82,0.79,-5.90,-37.72
18307,14.59,14.77,14.90,14.71,14.74,722.17,-664.55,346.19,0.50,-6.83,-41.99
18338,14.59,14.77,14.91,14.70,14.74,752.93,-630.86,329.10,13.82,-10.50,-46.95
18369,14.59,14.77,14.90,14.70,14.74,822.27,-499.02,284.67,9.09,-6.37,-41.28
18400,14.59,14.77,14.91,14.70,14.74,769.53,-555.18,327.15,3.86,-5.51,-33.53
18431,14.59,14.77,14.90,14.69,14.74,860.84,-542.97,288.09,22.53,-10.92,-35.23
18462,14.59,14.77,14.90,14.69,14.74,783.69,-514.65,289.06,9.88,-0.44,-37.02
18493,14.59,14.77,14.89,14.68,14.73,837.40,-496.58,333.01,7.31,-1.31,-40.69
18524,14.59,14.77,14.87,14.68,14.73,815.43,-413.09,342.77,10.58,0.93,-33.72
18555,14.59,14.77,14.86,14.67,14.72,796.87,-472.17,368.16,15.56,-8.05,-29.58
18586,14.59,14.77,14.85,14.67,14.72,885.74,-423.34,321.78,10.89,-9.98,-32.28
18617,14.59,14.77,14.83,14.67,14.72,816.89,-439.45,324.71,1.73,-8.51,-39.34
18647,14.59,14.76,14.81,14.67,14.71,895.02,-337.40,369.14,-16.80,-9.85,-34.57
18679,14.59,14.76,14.77,14.67,14.70,855.47,-402.83,385.74,-14.56,-13.57,-25.26
18710,14.59,14.75,14.75,14.67,14.69,776.37,-386.23,375.00,-22.04,-21.18,-28.60
18740,14.59,14.75,14.74,14.66,14.69,876.95,-374.02,333.50,4.33,-31.79,-38.11
18771,14.59,14.75,14.73,14.66,14.68,1013.67,-254.39,233.40,-1.37,-23.02,-20.64
18803,14.59,14.74,14.71,14.66,14.68,857.42,-242.19,168.46,0.63,-18.09,-4.12
18833,14.59,14.74,14.71,14.66,14.68,921.39,-272.95,166.02,-13.24,-17.73,-12.02
18864,14.59,14.74,14.70,14.66,14.67,989.26,-398.93,164.06,14.66,-11.82,-1.15
18895,14.59,14.74,14.68,14.65,14.66,953.61,-349.12,157.23,14.66,-2.19,2.05
18926,14.59,14.73,14.67,14.65,14.66,914.06,-349.12,154.30,24.02,1.65,-2.05
18957,14.59,14.73,14.66,14.65,14.66,1058.59,-163.09,71.29,27.74,5.31,5.63
18988,14.59,14.72,14.65,14.64,14.65,1063.96,-189.45,58.11,-11.25,38.89,22.93
19019,14.59,14.72,14.63,14.64,14.65,988.28,-410.16,121.58,-19.25,59.72,32.78
19050,14.59,14.72,14.62,14.64,14.64,1031.74,-375.00,103.03,-19.54,86.19,43.08
19081,14.59,14.72,14.62,14.64,14.64,1045.90,-622.56,103.03,-67.31,114.73,74.40
19112,14.59,14.71,14.62,14.64,14.64,1027.83,-535.64,166.02,-52.88,166.18,124.23
19143,14.58,14.72,14.62,14.64,14.64,939.94,-649.41,207.52,-22.30,155.44,77.63
19174,14.58,14.72,14.62,14.64,14.64,990.23,-420.41,207.03,-13.72,104.03,-60.78
19205,14.58,14.71,14.62,14.64,14.64,973.63,-469.73,238.77,-52.27,86.85,-125.80
19238,14.58,14.71,14.62,14.64,14.64,894.04,-600.10,301.76,-61.40,65.56,-119.31
19269,14.58,14.71,14.62,14.64,14.64,759.28,-426.27,343.26,-73.06,49.68,-115.38
19300,14.58,14.72,14.62,14.64,14.64,639.16,-452.64,451.66,-74.31,2.39,-170.18
19331,14.58,14.72,14.62,14.64,14.64,787.11,-550.29,334.47,-74.72,-25.18,-201.82
19362,14.59,14.72,14.62,14.64,14.64,778.81,-548.83,254.88,-96.24,43.04,-92.27
19393,14.59,14.72,14.62,14.64,14.64,571.29,-515.62,373.05,-120.87,90.47,4.74
19424,14.58,14.72,14.62,14.63,14.64,488.77,-510.25,449.71,-112.69,86.47,9.40
19455,14.58,14.71,14.61,14.64,14.64,475.59,-534.67,466.80,-81.37,79.21,-8.11
19486,14.58,14.71,14.61,14.63,14.64,479.49,-486.82,456.54,-88.54,90.85,-5.21
19517,14.59,14.72,14.61,14.63,14.64,484.37,-649.90,500.49,-106.83,119.15,41.05
19547,14.58,14.72,14.61,14.63,14.64,390.14,-721.19,606.93,-56.11,123.23,97.35
19578,14.58,14.72,14.61,14.63,14.64,432.13,-287.60,606.93,-42.92,128.89,67.51
19608,14.58,14.72,14.61,14.63,14.64,280.27,-578.12,648.44,-64.23,132.86,18.79
19638,14.58,14.72,14.61,14.63,14.64,274.41,-631.35,679.69,-56.52,119.53,21.94
19669,14.58,14.72,14.61,14.63,14.64,243.65,-696.29,783.20,-72.82,113.39,-1.82
19699,14.58,14.72,14.61,14.63,14.64,188.96,-767.58,780.76,-39.28,117.58,-14.34
19730,14.58,14.72,14.61,14.63,14.64,188.48,-755.37,699.71,-31.03,129.55,-27.79
19761,14.58,14.72,14.61,14.63,14.64,129.39,-697.27,658.69,-32.95,120.89,-62.15
19792,14.58,14.72,14.61,14.63,14.64,173.34,-655.76,751.95,-79.13,101.58,-78.74
19822,14.58,14.72,14.61,14.63,14.63,40.04,-1083.50,886.72,-60.98,115.28,-39.29
19853,14.58,14.72,14.61,14.63,14.64,156.74,-648.44,722.66,-10.60,111.19,-50.78
19884,14.58,14.72,14.61,14.63,14.63,95.70,-765.14,675.29,-38.02,132.11,-62.55
19914,14.58,14.72,14.61,14.63,14.64,3.42,-695.31,742.68,-46.05,134.44,-66.05
19945,14.58,14.72,14.61,14.63,14.64,-171.39,-770.51,798.34,-36.24,125.42,-41.31
19976,14.58,14.72,14.61,14.63,14.63,-25.88,-654.79,715.33,-24.28,106.96,-42.55
20007,14.58,14.72,14.61,14.63,14.63,28.81,-720.21,757.81,-39.85,118.77,-43.37
20038,14.58,14.72,14.61,14.63,14.63,0.00,-759.77,804.69,-48.17,118.80,-27.72
20069,14.58,14.72,14.60,14.63,14.63,-96.19,-635.25,698.73,-57.85,80.31,-27.56
20100,14.58,14.72,14.60,14.63,14.63,-125.00,-788.09,664.06,-76.11,44.53,-23.11
20131,14.58,14.72,14.61,14.64,14.64,319.82,-630.37,670.90,-113.78,39.82,-44.41
20162,14.58,14.72,14.61,14.66,14.64,-126.46,-886.23,638.18,-119.60,26.80,17.92
20193,14.58,14.72,14.61,14.68,14.65,-64.45,-1004.88,580.08,-26.62,23.69,25.21
20224,14.58,14.72,14.62,14.71,14.66,-473.14,-1001.95,582.52,108.95,34.28,27.65
20255,14.62,14.71,14.62,14.76,14.68,22.95,-1147.46,489.75,-62.00,-14.27,36.67
20286,14.70,14.72,14.63,14.80,14.71,-125.98,-720.70,704.10,66.41,-18.69,5.23
20317,14.75,14.73,14.63,14.83,14.74,-59.08,-929.69,546.87,13.79,-4.90,4.29
20348,14.77,14.72,14.63,14.87,14.75,16.11,-732.91,693.85,35.92,-25.40,1.69
20379,14.82,14.72,14.64,14.89,14.77,7.32,-801.27,642.58,13.57,-9.08,2.59
20410,14.99,14.73,14.64,14.91,14.81,-84.96,-846.68,572.75,14.25,-0.24,3.84
20441,15.18,14.73,14.64,14.92,14.87,-57.13,-833.01,601.56,11.37,-2.05,3.60
20472,15.34,14.73,14.64,14.93,14.91,-50.78,-779.79,653.32,15.07,-3.85,2.67
20503,15.47,14.73,14.64,14.93,14.94,-13.18,-751.95,686.52,8.88,-0.83,1.63
20534,15.65,14.73,14.64,14.92,14.99,6.35,-782.71,674.32,7.02,2.50,0.98
20565,15.98,14.74,14.64,14.90,15.06,-45.90,-801.76,629.39,3.56,3.55,-0.95
20596,16.41,14.74,14.64,14.86,15.16,-81.05,-792.48,626.46,-22.80,18.36,-0.96
20627,16.71,14.75,14.63,14.83,15.23,-40.53,-853.52,643.07,-19.24,13.50,-2.55
20658,16.83,14.75,14.63,14.79,15.25,-27.83,-802.25,646.48,-17.75,7.47,-1.41
20689,16.90,14.75,14.62,14.76,15.26,-29.30,-782.71,623.05,-25.67,12.92,0.50
20720,16.98,14.76,14.62,14.73,15.27,-35.64,-810.06,638.67,-32.44,10.02,-1.63
20751,17.02,14.77,14.62,14.72,15.28,-57.62,-819.82,586.43,-36.56,12.40,-1.61
20782,17.02,14.77,14.62,14.72,15.28,-57.62,-861.82,581.54,-26.31,11.02,-4.37
20813,17.01,14.78,14.62,14.72,15.28,-52.25,-831.05,588.87,-21.98,12.41,-1.71
20844,17.00,14.79,14.62,14.71,15.28,-54.20,-830.57,582.03,-19.56,13.13,-4.66
20875,17.00,14.80,14.62,14.71,15.28,-52.25,-859.37,572.75,-11.99,6.71,-3.86
20906,17.00,14.81,14.62,14.70,15.28,-50.29,-890.14,515.14,-15.28,10.85,-4.18
20937,17.04,14.82,14.62,14.70,15.30,-55.18,-813.48,570.31,-27.05,15.60,-6.86
20967,17.04,14.84,14.62,14.69,15.30,-49.32,-850.59,492.19,-27.41,15.21,-7.69
20999,17.01,14.87,14.62,14.69,15.30,-39.06,-846.19,532.71,-26.16,15.08,-6.10
21030,16.95,14.89,14.62,14.69,15.29,-57.62,-897.95,500.00,-13.01,10.88,-6.65
21060,16.89,14.92,14.62,14.70,15.28,-48.83,-914.06,496.09,-22.30,11.45,-7.35
21091,16.79,14.95,14.62,14.70,15.27,-86.43,-906.25,475.10,-21.03,9.02,-5.97
21123,16.63,15.00,14.63,14.71,15.24,-62.99,-909.18,476.56,-26.33,9.21,-5.85
21153,16.44,15.06,14.63,14.72,15.21,-40.53,-854.98,506.35,-35.53,9.44,-4.89
21184,16.18,15.12,14.64,14.74,15.17,-63.96,-923.83,472.66,-31.82,4.10,-8.57
21214,15.85,15.17,14.64,14.76,15.11,-69.34,-941.41,445.80,-24.40,-1.70,-7.77
21245,15.43,15.20,14.65,14.80,15.02,-40.53,-917.97,398.44,-26.66,-2.88,-8.89
21275,15.06,15.23,14.66,14.82,14.94,-64.94,-887.21,388.67,-33.35,6.81,-9.83
21306,14.80,15.25,14.67,14.83,14.89,-88.38,-977.54,320.80,-56.21,10.50,-14.47
21336,14.67,15.21,14.67,14.83,14.84,133.79,-855.96,912.60,-60.79,-63.17,-66.78
21367,14.64,15.09,14.68,14.83,14.81,-336.43,-1039.06,304.69,-48.05,-69.95,-62.65
21398,14.63,14.99,14.68,14.79,14.77,-157.23,-1152.83,457.03,-114.44,-43.82,-122.76
21428,14.62,14.90,14.68,14.76,14.74,-116.21,-1161.13,493.65,-180.98,-40.26,-173.40
21459,14.62,14.86,14.67,14.73,14.72,175.78,-1511.72,562.50,-205.99,-39.33,-220.85
21490,14.62,14.83,14.64,14.68,14.69,508.30,-1224.12,-71.29,-250.14,-14.92,-195.87
21520,14.61,14.82,14.61,14.65,14.67,376.46,-1398.44,81.54,-250.14,113.27,-173.44
21551,14.60,14.80,14.61,14.64,14.66,-630.37,-2000.00,193.85,-135.79,110.24,-181.48
21582,14.60,14.79,14.61,14.64,14.66,-106.93,-474.61,124.02,176.09,191.51,18.27
21613,14.59,14.78,14.61,14.63,14.65,-468.26,-857.42,11.23,219.21,238.19,79.15
21644,14.59,14.77,14.61,14.63,14.65,-497.56,-701.66,-152.83,246.50,159.96,41.41
21675,14.59,14.77,14.61,14.63,14.65,-503.42,-645.02,-263.67,200.58,93.46,68.31
21706,14.59,14.77,14.61,14.63,14.65,-385.25,-493.16,-218.75,93.50,40.82,116.30
21737,14.59,14.77,14.61,14.63,14.65,-287.60,-683.59,-30.76,-22.02,32.73,178.27
21768,14.59,14.77,14.61,14.64,14.65,-108.40,-1039.06,135.74,-33.08,31.25,184.91
21799,14.59,14.77,14.61,14.64,14.65,22.95,-1052.73,239.75,-0.82,57.07,171.52
21830,14.59,14.77,14.61,14.64,14.65,-41.99,-1252.44,316.89,23.89,76.25,127.21
21861,14.59,14.77,14.61,14.64,14.65,232.42,-1471.19,516.11,37.55,55.18,114.53
21892,14.59,14.77,14.61,14.64,14.65,676.27,-1120.12,564.94,-21.59,101.18,166.66
21923,14.59,14.77,14.62,14.64,14.65,732.42,-1223.63,815.43,-80.98,139.40,121.14
21954,14.59,14.77,14.61,14.64,14.65,684.57,-1277.34,797.85,-53.61,135.24,34.47
21985,14.59,14.77,14.61,14.64,14.65,894.53,-1350.10,674.32,-81.41,125.80,17.07
22016,14.59,14.77,14.62,14.64,14.65,981.93,-993.65,733.40,-48.32,144.93,100.29
22047,14.59,14.78,14.62,14.63,14.65,946.78,-805.18,693.85,9.53,44.96,41.59
22077,14.59,14.78,14.61,14.64,14.65,896.00,-2000.00,432.62,13.98,-55.83,-131.25
22109,14.74,14.78,14.61,14.65,14.70,-1044.92,-1448.73,386.23,123.41,-218.93,-82.40
22140,15.28,14.79,14.61,14.65,14.83,111.82,-109.86,1654.30,62.58,-151.60,-222.13
22170,15.90,14.82,14.61,14.64,14.99,44.43,-527.83,334.96,167.20,-1.89,-124.73
22201,16.21,14.82,14.62,14.66,15.08,-19.04,-357.91,287.60,87.47,-3.23,-23.73
22233,16.47,14.81,14.63,14.71,15.15,-95.70,-703.12,729.98,80.08,-22.61,-3.98
22263,16.67,14.81,14.63,14.73,15.21,-4.39,-779.79,666.99,21.75,6.03,-0.90
22294,16.67,14.81,14.64,14.75,15.22,-7.32,-848.63,563.96,10.86,0.46,2.09
22325,16.59,14.82,14.64,14.77,15.20,-48.83,-863.77,555.18,5.37,-6.23,0.00
22356,16.48,14.81,14.64,14.79,15.18,-57.62,-860.84,591.80,4.21,-1.78,-1.26
22387,16.32,14.82,14.64,14.83,15.15,-39.55,-823.73,610.84,-0.07,5.65,-4.48
22418,16.13,14.82,14.65,14.85,15.11,-40.53,-834.47,570.80,-5.95,0.79,-2.38
22449,16.00,14.83,14.66,14.88,15.09,-38.57,-849.12,573.24,-2.98,-0.06,-2.20
22480,15.92,14.83,14.66,14.91,15.08,-44.43,-852.54,576.17,-0.16,-3.43,-1.92
22511,15.86,14.85,14.67,14.94,15.08,-30.27,-827.64,598.14,2.33,0.18,-1.40
22542,15.81,14.85,14.67,14.98,15.08,-36.13,-838.87,584.47,2.95,1.24,-2.10
22573,15.71,14.86,14.69,15.04,15.07,-28.32,-823.24,592.29,9.30,-8.08,-3.69
22604,15.54,14.86,14.70,15.10,15.05,-36.62,-856.45,584.96,2.60,-6.08,-0.82
22635,15.37,14.87,14.71,15.16,15.03,-41.50,-854.49,594.73,0.48,-5.63,-4.66
22666,15.19,14.87,14.73,15.23,15.00,-54.20,-860.84,611.82,-4.68,-4.63,-4.39
22697,15.00,14.86,14.75,15.30,14.98,-12.21,-853.03,582.52,-0.45,-7.76,-8.83
22728,14.82,14.85,14.78,15.36,14.95,3.91,-888.18,613.77,-2.80,-13.38,-15.35
22759,14.70,14.84,14.80,15.39,14.93,-36.62,-786.62,637.21,0.42,-13.63,-12.33
22790,14.63,14.82,14.82,15.40,14.92,-44.43,-921.39,646.97,-19.72,-17.18,-13.06
22820,14.62,14.81,14.84,15.35,14.90,-43.95,-917.97,641.60,-29.17,-44.27,-32.53
22851,14.61,14.79,14.86,15.23,14.87,-102.05,-1117.19,660.64,-86.76,-51.13,-65.45
22881,14.60,14.79,14.83,15.06,14.82,-246.58,-1362.79,611.82,-128.38,-66.46,-111.51
22911,14.60,14.79,14.77,14.92,14.77,-146.48,-1974.12,618.65,-56.74,-36.21,-198.19
22942,14.60,14.78,14.70,14.83,14.73,-89.36,-1885.74,617.68,53.69,-65.07,-250.14
22973,14.60,14.77,14.65,14.72,14.69,-0.98,-2000.00,705.08,48.16,-61.45,-250.14
23004,14.59,14.76,14.61,14.66,14.66,-117.68,-1759.77,517.58,165.50,-95.50,-250.14
23034,14.59,14.76,14.61,14.65,14.65,-197.27,-128.42,-112.30,201.30,-98.34,-199.27
23065,14.59,14.75,14.61,14.65,14.65,-31.25,-183.11,249.02,76.79,-47.73,8.79
23097,14.59,14.75,14.61,14.65,14.65,-154.79,-676.27,139.65,-9.35,28.61,139.93
23128,14.59,14.75,14.61,14.65,14.65,-8.79,-657.71,298.34,23.86,25.91,161.89
23159,14.59,14.75,14.61,14.65,14.65,112.79,-555.66,314.94,30.04,28.68,161.78
23190,14.59,14.75,14.61,14.64,14.65,102.54,-662.11,356.93,12.62,36.90,172.26
23221,14.59,14.75,14.61,14.64,14.65,137.70,-689.94,409.18,16.20,33.37,175.76
23252,14.59,14.75,14.62,14.64,14.65,146.97,-740.23,428.71,26.61,13.56,161.18
23283,14.59,14.75,14.62,14.64,14.65,229.00,-757.81,468.75,34.12,0.37,139.39
23314,14.59,14.76,14.62,14.64,14.65,312.01,-614.75,462.89,42.65,27.28,149.44
23345,14.59,14.76,14.62,14.64,14.65,179.69,-650.39,467.29,9.37,43.15,150.67
23376,14.59,14.76,14.62,14.65,14.65,186.52,-731.93,494.63,6.20,33.25,158.92
23406,14.59,14.76,14.62,14.64,14.65,268.07,-797.85,565.43,-12.14,35.83,171.08
23438,14.59,14.76,14.63,14.65,14.66,383.79,-898.93,635.74,-22.27,39.19,177.40
23469,14.59,14.76,14.62,14.65,14.65,305.18,-908.20,640.62,-30.91,65.34,171.01
23499,14.59,14.76,14.62,14.65,14.65,233.40,-1003.42,703.61,-38.05,70.38,147.44
23530,14.59,14.76,14.62,14.65,14.65,172.36,-1042.48,697.27,-28.86,79.19,133.08
23562,14.59,14.76,14.63,14.65,14.66,83.01,-1174.32,724.12,-34.90,83.52,131.98
23592,14.59,14.76,14.62,14.65,14.66,202.64,-1052.73,483.40,-0.17,24.39,99.24
23623,14.59,14.76,14.62,14.65,14.66,672.85,-1127.93,370.12,-67.98,28.50,59.60
23654,14.59,14.76,14.63,14.65,14.66,687.99,-934.57,488.77,-64.17,31.70,20.76
23685,14.92,14.75,14.62,14.65,14.74,1013.18,1999.94,-170.90,250.13,-250.14,-3.17
23716,15.88,14.75,14.64,14.66,14.98,226.56,-2000.00,1999.94,-233.26,-230.14,-225.73
23747,16.66,14.77,14.63,14.66,15.18,110.35,-1707.52,790.53,250.13,112.90,-184.75
23778,16.84,14.79,14.63,14.66,15.23,456.54,-1649.41,194.34,-70.50,-84.50,-140.28
23809,17.40,14.81,14.63,14.65,15.37,-305.18,-861.82,27.34,144.13,-30.21,1.74
23840,17.48,14.81,14.63,14.66,15.39,114.75,-826.17,297.36,21.19,22.48,-5.58
23871,17.44,14.81,14.62,14.66,15.38,16.60,-915.53,512.70,-45.73,14.33,-4.79
23902,17.36,14.81,14.62,14.67,15.36,-60.55,-862.30,506.35,-27.61,10.38,-1.27
23933,17.25,14.82,14.62,14.67,15.34,-55.18,-854.98,503.91,-44.39,24.90,0.85
23964,17.11,14.82,14.62,14.68,15.31,-36.62,-880.86,514.65,-23.52,11.69,-1.31
23995,16.99,14.84,14.62,14.68,15.28,-32.71,-893.07,525.39,-13.89,2.35,-0.49
24026,16.93,14.85,14.62,14.69,15.27,-51.76,-898.93,514.16,-20.85,8.09,-2.37
24057,16.87,14.87,14.62,14.69,15.26,-52.25,-887.70,487.79,-7.18,6.02,-2.95
24088,16.83,14.88,14.63,14.71,15.26,-41.99,-895.51,517.58,-2.73,2.05,-5.56
24119,16.74,14.90,14.63,14.72,15.25,-79.59,-907.71,468.75,-9.03,-0.33,-2.81
24150,16.65,14.92,14.64,14.74,15.24,-48.83,-888.18,484.86,0.22,3.94,-4.63
24181,16.56,14.95,14.64,14.76,15.23,-31.25,-878.91,503.42,6.19,-0.12,-5.17
24212,16.44,14.98,14.65,14.77,15.21,-64.45,-904.79,465.82,-13.24,4.27,-3.78
24243,16.22,15.01,14.66,14.79,15.17,-57.13,-917.48,476.07,-12.68,3.32,-4.92
24274,15.98,15.03,14.66,14.81,15.12,-44.92,-928.22,451.17,-6.94,3.51,-4.64
24305,15.78,15.05,14.67,14.84,15.09,-39.06,-900.88,497.56,2.96,1.60,-5.96
24336,15.58,15.08,14.68,14.85,15.05,-35.16,-903.81,482.91,3.45,-0.27,-6.95
24367,15.39,15.10,14.69,14.87,15.01,-47.85,-906.74,477.54,-10.30,5.65,-2.25
24397,15.19,15.12,14.70,14.90,14.98,-59.08,-909.67,461.43,-8.02,-0.53,-7.35
24428,15.00,15.13,14.71,14.93,14.94,-22.95,-905.27,465.33,-4.53,-3.21,-5.83
24458,14.87,15.13,14.72,14.94,14.91,-24.90,-885.74,500.00,-9.79,0.99,-7.47
24489,14.75,15.14,14.73,14.93,14.89,-43.95,-904.79,514.65,-29.75,-0.88,-10.03
24519,14.67,15.15,14.73,14.91,14.86,-91.31,-898.44,562.50,-57.14,-24.63,-13.26
24550,14.64,15.13,14.73,14.87,14.84,-71.78,-1021.48,417.48,-82.32,-41.18,-30.40
24581,14.62,15.07,14.72,14.83,14.81,-0.49,-1105.47,425.78,-133.38,-43.19,-43.81
24611,14.62,14.97,14.73,14.83,14.78,-140.62,-1310.55,533.69,-81.97,-18.03,-65.75
24642,14.62,14.88,14.74,14.80,14.76,-363.28,-1255.86,452.64,-141.40,-26.36,-165.80
24673,14.62,14.83,14.71,14.77,14.73,23.44,-1283.69,593.75,-119.63,-66.89,-250.14
24703,14.61,14.81,14.67,14.71,14.70,320.31,-1123.05,347.66,-109.32,-64.34,-250.14
24734,14.61,14.80,14.63,14.66,14.68,438.96,-1219.73,265.14,-80.52,-54.24,-222.83
24765,14.60,14.80,14.61,14.65,14.66,-156.74,-1078.13,40.53,5.95,-46.40,-210.61
24795,14.59,14.79,14.61,14.64,14.66,-570.80,-1876.46,367.68,99.53,-22.69,-82.09
24826,14.59,14.78,14.61,14.64,14.66,-341.80,-564.94,-177.25,199.32,45.14,62.11
24857,14.59,14.77,14.61,14.64,14.65,-404.30,-767.58,-164.06,175.53,90.79,111.08
24888,14.59,14.77,14.61,14.64,14.65,-308.11,-857.42,-286.62,196.18,73.60,131.19
24919,14.59,14.77,14.61,14.64,14.65,-243.65,-885.74,-259.77,155.50,35.21,129.66
24950,14.59,14.77,14.61,14.64,14.65,-92.77,-831.54,-187.01,68.53,-14.00,161.15
24981,14.59,14.77,14.61,14.64,14.65,-21.97,-1116.70,-39.06,-17.02,-26.31,218.37
25012,14.59,14.77,14.62,14.64,14.65,51.27,-1435.06,8.79,-4.85,-66.02,228.67
25043,14.59,14.77,14.61,14.64,14.65,266.11,-1404.79,-32.71,3.45,-85.02,218.47
25074,14.59,14.77,14.61,14.64,14.65,358.89,-1421.39,23.44,-19.02,-79.24,188.44
25105,14.59,14.77,14.62,14.64,14.65,342.77,-1453.13,63.48,-31.92,-64.10,163.00
25136,14.58,14.77,14.61,14.64,14.65,450.20,-1394.04,86.43,-27.47,-39.86,138.66
25167,14.59,14.77,14.61,14.64,14.65,462.40,-1229.00,147.46,-29.49,-4.48,91.53
25198,14.59,14.77,14.61,14.64,14.65,152.34,-549.32,280.27,165.64,-57.21,12.58
25229,14.59,14.77,14.61,14.64,14.65,431.15,-1243.16,445.31,7.94,39.84,14.31
25260,14.59,14.77,14.61,14.64,14.65,754.39,-1148.93,361.82,0.67,86.50,37.47
25291,14.59,14.77,14.61,14.64,14.65,862.30,-906.74,559.08,7.78,105.47,-3.50
25322,14.59,14.77,14.61,14.64,14.65,779.79,-991.70,572.27,27.70,98.41,-49.85
25353,14.59,14.77,14.61,14.63,14.65,628.42,-1061.04,683.11,82.81,72.59,-50.10
25384,14.63,14.77,14.61,14.63,14.66,236.33,-810.55,829.59,-17.34,29.02,-77.56
25415,14.89,14.77,14.61,14.64,14.73,-253.42,-652.34,619.14,-156.83,-113.77,-70.99
25446,15.21,14.79,14.61,14.64,14.81,-91.31,-927.25,1853.52,174.73,-117.43,-40.97
25477,15.47,14.79,14.61,14.65,14.88,35.64,-857.42,214.36,19.47,-0.59,4.79
25508,15.67,14.79,14.62,14.66,14.93,-45.41,-926.76,443.36,50.01,-13.08,-1.49
25539,15.95,14.78,14.62,14.68,15.01,-62.99,-861.82,586.43,49.93,-11.36,-1.92
25570,16.23,14.79,14.62,14.69,15.08,-39.06,-860.84,523.44,24.41,-0.89,-1.34
25601,16.51,14.79,14.62,14.70,15.16,-80.08,-865.72,506.35,18.08,-3.96,-2.97
25632,16.69,14.80,14.62,14.71,15.21,-58.59,-853.52,557.62,15.13,-0.51,-0.82
25663,16.75,14.80,14.62,14.72,15.22,-62.50,-868.65,541.50,4.95,2.06,-0.54
25694,16.77,14.80,14.62,14.72,15.23,-43.46,-844.24,560.55,5.80,1.33,-1.15
25725,16.77,14.80,14.62,14.72,15.23,-50.29,-862.79,558.11,1.12,-2.24,0.60
25756,16.76,14.80,14.62,14.72,15.23,-72.75,-849.12,573.24,1.18,2.69,-1.11
25787,16.76,14.80,14.62,14.73,15.23,-64.45,-870.12,540.53,7.62,-0.69,-1.25
25818,16.78,14.80,14.63,14.74,15.24,-37.11,-850.10,583.98,3.64,2.97,-2.52
25849,16.77,14.81,14.63,14.75,15.24,-54.20,-854.49,595.21,-2.97,4.11,-2.66
25880,16.71,14.81,14.63,14.76,15.23,-41.50,-852.54,555.18,6.60,-3.05,-3.86
25911,16.65,14.81,14.63,14.77,15.22,-35.16,-849.61,562.01,1.71,1.07,-1.55
25942,16.57,14.82,14.64,14.77,15.20,-57.62,-843.26,558.11,-5.57,4.60,-5.71
25973,16.51,14.83,14.64,14.77,15.19,-37.11,-825.20,610.84,-6.44,10.63,-7.15
26003,16.41,14.84,14.64,14.76,15.16,-29.30,-844.73,571.78,-11.05,11.07,-6.39
26033,16.26,14.85,14.64,14.75,15.13,-53.22,-863.77,552.25,8.05,-0.24,-9.82
26064,16.12,14.86,14.64,14.74,15.09,-59.57,-861.33,557.62,-8.11,3.42,-7.57
26094,15.85,14.86,14.64,14.72,15.02,-51.27,-846.68,571.78,-17.20,8.98,-5.81
26125,15.71,14.86,14.63,14.70,14.97,29.79,-844.73,543.95,-11.35,12.07,-3.88
26155,15.57,14.86,14.63,14.67,14.93,-47.36,-909.67,494.63,-11.05,2.48,-3.39
26186,15.32,14.84,14.63,14.67,14.86,-55.66,-846.19,503.91,-7.75,5.73,-8.88
26220,15.37,14.84,14.62,14.66,14.87,-53.22,-814.94,664.55,5.79,12.59,-5.87
26250,15.36,14.83,14.62,14.65,14.87,23.93,-895.51,568.85,7.98,31.02,-18.94
26281,15.30,14.82,14.62,14.65,14.85,135.74,-833.50,654.30,13.05,65.51,-40.73
26311,15.37,14.82,14.62,14.65,14.86,-292.97,-946.78,389.16,7.02,57.31,-30.50
26342,15.38,14.82,14.62,14.65,14.86,-82.03,-897.46,488.28,2.36,12.44,-13.71
26373,15.38,14.82,14.62,14.64,14.86,25.88,-819.82,646.97,-0.40,23.44,-11.34
26404,15.43,14.82,14.62,14.64,14.88,-95.21,-879.39,511.72,-1.99,22.74,-12.74
26435,15.42,14.82,14.61,14.64,14.87,-32.23,-864.75,531.74,5.10,14.27,-8.66
26466,15.37,14.81,14.61,14.64,14.86,-55.66,-860.84,576.17,8.42,15.24,-12.72
26497,15.31,14.80,14.61,14.64,14.84,-43.95,-861.33,540.04,9.24,22.11,-17.50
26528,15.28,14.80,14.61,14.65,14.84,-72.75,-847.66,560.06,2.15,28.46,-22.47
26559,15.25,14.80,14.62,14.65,14.83,34.67,-834.96,632.32,6.10,20.62,-18.47
26590,15.25,14.80,14.61,14.64,14.83,33.20,-837.89,592.77,-9.22,37.63,-21.27
26621,15.23,14.80,14.61,14.64,14.82,-36.62,-873.05,548.83,-6.82,44.30,-28.53
26652,15.18,14.80,14.61,14.64,14.81,33.69,-879.39,532.71,4.04,39.73,-26.48
26683,15.17,14.79,14.61,14.64,14.80,-16.11,-822.75,627.93,-1.19,49.47,-20.66
26714,15.16,14.79,14.61,14.64,14.80,-105.47,-932.13,490.72,-8.48,45.82,-23.32
26745,15.14,14.79,14.61,14.63,14.79,-69.82,-944.34,560.55,0.28,27.65,-8.62
26776,15.11,14.78,14.61,14.64,14.78,-119.63,-871.58,596.19,-43.45,10.45,32.68
26807,15.07,14.78,14.61,14.63,14.77,-139.16,-874.51,529.30,-0.82,9.86,17.79
26837,14.99,14.78,14.61,14.63,14.75,-76.17,-984.86,509.28,-10.63,10.73,15.49
26868,14.88,14.77,14.61,14.63,14.72,-28.32,-1498.54,326.17,24.22,16.27,51.79
26899,14.80,14.77,14.61,14.64,14.70,-134.77,-1280.27,264.65,114.37,33.76,59.27
26932,14.72,14.77,14.61,14.63,14.68,-81.05,-617.19,-32.71,47.01,135.98,67.24
26963,14.67,14.76,14.61,14.63,14.67,-545.90,-1134.77,126.95,-52.46,213.34,80.32
26994,14.64,14.77,14.61,14.63,14.66,-974.61,-999.51,106.45,-52.61,239.09,73.59
27025,14.63,14.77,14.61,14.63,14.66,-1259.77,-1306.15,55.66,-32.30,204.33,74.37
27056,14.62,14.77,14.61,14.63,14.66,-1224.61,-1248.05,135.25,-64.54,223.50,74.24
27087,14.62,14.77,14.61,14.63,14.66,-1333.50,-1251.95,177.73,-48.06,240.20,63.29
27118,14.62,14.77,14.61,14.63,14.66,-1422.36,-1022.46,48.34,-51.39,222.38,46.66
27149,14.62,14.76,14.61,14.63,14.66,-1254.39,-867.19,1.95,-85.34,185.89,67.18
27180,14.61,14.76,14.61,14.63,14.66,-1057.13,-781.25,68.36,-122.56,153.52,74.51
27211,14.61,14.76,14.61,14.64,14.65,-822.75,-874.51,158.69,-126.34,123.33,75.00
27242,14.61,14.76,14.61,14.64,14.65,-546.39,-771.97,248.05,-125.60,123.44,70.27
27273,14.61,14.76,14.61,14.63,14.65,-418.46,-720.21,164.55,-85.89,115.33,42.34
27304,14.61,14.76,14.61,14.63,14.65,-375.00,-805.18,109.37,-90.20,100.01,31.89
27335,14.61,14.76,14.61,14.63,14.65,-330.57,-582.52,21.97,-88.05,73.50,24.11
27366,14.61,14.76,14.61,14.64,14.65,-284.18,-487.30,-59.08,-95.01,39.21,16.87
27397,14.61,14.76,14.61,14.63,14.65,-281.25,-588.87,-235.84,-76.95,18.44,6.23
27428,14.61,14.76,14.61,14.63,14.65,-277.34,-527.83,-272.95,-87.91,50.46,-14.95
27459,14.61,14.76,14.61,14.63,14.65,-491.21,-506.35,-197.27,-67.24,52.91,-34.85
27490,14.61,14.76,14.61,14.64,14.65,-525.88,-353.03,-115.72,-58.71,50.56,-22.33
27521,14.61,14.76,14.61,14.64,14.65,-504.39,-412.60,-242.68,-32.47,0.22,-34.50
27551,14.61,14.76,14.61,14.63,14.65,-384.77,-371.09,-499.02,-34.03,-19.75,-31.37
27583,14.61,14.76,14.61,14.64,14.65,-382.81,-313.48,-517.09,-21.11,-5.79,-55.85
27613,14.61,14.76,14.61,14.63,14.65,-429.69,-312.01,-502.44,-12.68,-13.40,-86.05
27643,14.61,14.76,14.61,14.63,14.65,-427.73,-325.20,-429.69,-13.24,-2.65,-78.60
27674,14.61,14.76,14.61,14.64,14.65,-574.71,-337.89,-399.41,-9.38,-9.08,-77.02
27704,14.61,14.76,14.61,14.63,14.65,-418.95,-366.21,-350.10,3.67,-14.90,-76.67
27735,14.61,14.76,14.61,14.63,14.65,-513.18,-510.74,-308.11,29.56,-15.50,-92.99
27765,14.61,14.76,14.61,14.63,14.65,-639.16,-455.08,-417.97,34.17,-23.27,-86.83
27796,14.61,14.76,14.61,14.63,14.65,-605.96,-517.09,-413.09,26.73,-31.66,-83.18
27827,14.61,14.76,14.61,14.64,14.65,-755.37,-514.16,-496.09,32.75,-40.86,-76.67
27858,14.61,14.76,14.61,14.64,14.65,-631.35,-640.62,-554.69,27.63,-35.76,-68.84
27888,14.61,14.76,14.61,14.64,14.65,-712.89,-698.24,-568.36,39.11,-23.04,-75.19
27919,14.61,14.76,14.61,14.64,14.65,-844.24,-727.54,-743.16,35.79,-22.44,-58.43
27950,14.61,14.76,14.61,14.64,14.65,-764.16,-777.83,-1146.00,29.02,-27.13,-55.71
27980,14.61,14.76,14.61,14.63,14.65,-534.67,-979.00,-1279.79,5.10,29.39,-65.73
28011,14.61,14.76,14.61,14.64,14.65,-704.59,-688.48,-771.97,-29.04,50.60,-45.92
28042,14.61,14.76,14.61,14.64,14.65,-690.43,-651.86,-437.01,-48.86,-27.70,-8.71
28073,14.61,14.76,14.61,14.63,14.65,-206.54,-702.15,-361.33,-64.52,-31.79,-26.44
28104,14.61,14.76,14.61,14.63,14.65,-174.32,-817.38,-407.71,8.07,30.80,-50.70
28135,14.61,14.76,14.61,14.63,14.65,-411.13,-692.87,-556.64,26.47,51.38,-53.15
28166,14.61,14.76,14.61,14.63,14.65,-365.72,-793.95,-666.02,-0.50,9.07,-41.95
28197,14.61,14.76,14.61,14.63,14.65,-160.16,-908.20,-673.34,-11.01,13.02,-29.11
28228,14.60,14.76,14.61,14.63,14.65,-127.93,-910.64,-525.88,-9.09,27.44,-40.33
28259,14.60,14.76,14.61,14.63,14.65,-223.14,-781.25,-484.86,2.56,32.31,-38.89
28290,14.60,14.76,14.61,14.63,14.65,-202.64,-797.36,-580.08,2.49,14.50,-37.68
28321,14.60,14.76,14.61,14.63,14.65,-163.09,-805.18,-660.64,-4.66,12.33,-36.15
28352,14.61,14.76,14.61,14.63,14.65,-202.64,-800.29,-650.39,-12.27,9.83,-27.59
28383,14.61,14.76,14.61,14.63,14.65,-194.34,-747.56,-627.44,-24.66,-10.22,-25.89
28414,14.60,14.76,14.61,14.63,14.65,-140.14,-766.60,-612.30,-22.40,-12.50,-27.55
28445,14.60,14.76,14.61,14.63,14.65,-166.02,-788.57,-580.57,-12.78,4.37,-20.18
28476,14.60,14.76,14.61,14.63,14.65,-201.66,-712.40,-609.86,-10.08,1.15,-21.54
28507,14.61,14.76,14.61,14.63,14.65,-178.71,-787.11,-679.20,-14.43,-3.13,-16.34
28537,14.60,14.76,14.61,14.63,14.65,-151.37,-757.81,-663.09,-20.37,-2.92,-13.85
28569,14.60,14.76,14.61,14.63,14.65,-140.62,-761.72,-607.91,-19.15,4.47,-5.92
28600,14.60,14.76,14.61,14.63,14.65,-106.45,-745.61,-608.40,-16.34,-1.67,-12.90
28631,14.60,14.76,14.61,14.63,14.65,-97.66,-745.12,-635.74,-8.82,-0.56,-14.21
28661,14.60,14.76,14.61,14.63,14.65,-75.68,-772.95,-673.83,-14.89,6.09,-7.60
28693,14.60,14.76,14.61,14.63,14.65,-115.23,-717.29,-665.04,-10.57,1.15,-10.37
28723,14.60,14.75,14.61,14.63,14.65,-142.09,-786.62,-693.36,-11.75,-6.86,-14.34
28754,14.60,14.76,14.61,14.63,14.65,-81.54,-746.58,-697.75,-13.45,-3.26,-3.24
28785,14.60,14.76,14.61,14.63,14.65,-89.36,-723.63,-669.92,-16.28,-1.09,-6.11
28816,14.60,14.76,14.61,14.63,14.65,-118.16,-708.98,-639.16,-7.75,-3.25,-9.80
28847,14.60,14.76,14.61,14.63,14.65,-69.34,-742.68,-648.93,-9.02,-8.16,-8.96
28878,14.60,14.76,14.61,14.63,14.65,-94.73,-686.52,-697.75,-3.67,3.86,-1.25
28910,14.60,14.76,14.61,14.63,14.65,-116.21,-699.71,-719.24,-6.19,-4.37,-8.40
28941,14.60,14.76,14.61,14.63,14.65,-83.50,-716.31,-697.27,-8.02,-14.48,-8.15
28972,14.60,14.76,14.61,14.63,14.65,-64.94,-721.19,-712.40,-6.53,-1.60,1.47
29003,14.60,14.76,14.61,14.63,14.65,-99.12,-666.50,-693.85,-7.25,1.63,-3.11
29033,14.60,14.76,14.61,14.63,14.65,-101.07,-675.29,-670.90,-3.68,-8.60,-7.07
29065,14.60,14.76,14.61,14.63,14.65,-88.38,-702.64,-698.24,-1.76,-3.34,2.18
29095,14.60,14.76,14.61,14.63,14.65,-87.40,-687.99,-724.12,-1.85,-3.95,-1.91
29126,14.60,14.76,14.61,14.63,14.65,-93.75,-642.09,-716.31,1.65,-5.51,-8.05
29157,14.60,14.76,14.61,14.63,14.65,-50.29,-729.98,-690.43,-1.81,-11.77,-2.78
29188,14.60,14.76,14.61,14.63,14.65,-87.40,-700.20,-690.43,-5.41,-5.18,2.22
29218,14.60,14.76,14.61,14.63,14.65,-99.12,-692.87,-705.57,-1.52,-3.14,-1.31
29249,14.60,14.76,14.61,14.63,14.65,-112.30,-696.29,-708.50,2.85,-6.53,0.93
29279,14.60,14.76,14.61,14.63,14.65,-114.26,-687.01,-702.64,-0.24,-3.36,8.01
29310,14.60,14.76,14.61,14.63,14.65,-99.12,-707.03,-689.45,-0.71,-4.17,1.00
29340,14.60,14.76,14.61,14.63,14.65,-118.16,-712.40,-706.05,3.92,-0.94,1.24
29370,14.60,14.76,14.61,14.63,14.65,-121.09,-702.15,-703.12,1.38,-1.25,0.32
29402,14.60,14.76,14.61,14.63,14.65,-118.16,-701.66,-737.30,-1.09,-0.44,-1.19
29432,14.60,14.76,14.61,14.63,14.65,-152.34,-701.17,-727.05,-4.09,-0.03,-5.18
29463,14.60,14.76,14.61,14.63,14.65,-125.00,-699.71,-682.13,-8.08,-1.56,-6.51
29494,14.60,14.76,14.61,14.63,14.65,-88.87,-724.61,-690.92,0.42,-0.76,-1.47
29524,14.60,14.76,14.61,14.63,14.65,-85.45,-703.12,-688.48,0.67,5.79,-7.26
29555,14.60,14.76,14.61,14.63,14.65,-115.72,-679.20,-679.20,6.50,2.87,-8.10
29586,14.60,14.75,14.61,14.63,14.65,-101.56,-714.84,-708.50,1.48,-1.71,0.69
29616,14.60,14.76,14.61,14.63,14.65,-100.10,-696.29,-727.05,3.15,-0.32,2.15
29647,14.60,14.76,14.61,14.64,14.65,-89.84,-691.89,-716.31,-0.22,-3.40,-2.40
29678,14.60,14.76,14.61,14.63,14.65,-120.12,-682.13,-699.22,-2.82,-2.21,-2.19
29709,14.60,14.76,14.61,14.63,14.65,-134.77,-675.78,-738.28,-0.40,-2.02,2.85
29740,14.60,14.75,14.61,14.63,14.65,-120.61,-718.26,-723.63,-1.31,-0.31,-1.73
29771,14.60,14.75,14.61,14.63,14.65,-114.26,-679.20,-687.01,-4.77,0.53,-1.61
29802,14.60,14.76,14.61,14.63,14.65,-109.86,-722.66,-690.43,-1.44,-3.06,1.95
29833,14.60,14.75,14.61,14.63,14.65,-111.33,-716.31,-704.10,-0.31,3.60,1.44
29864,14.60,14.75,14.61,14.63,14.65,-112.30,-699.71,-715.33,-0.10,-1.78,-1.96
29895,14.60,14.76,14.61,14.63,14.65,-85.45,-711.43,-708.01,-2.66,-1.73,-0.11
29926,14.60,14.76,14.61,14.63,14.65,-105.96,-691.89,-690.43,-2.97,-0.70,3.25
29957,14.60,14.76,14.61,14.63,14.65,-106.45,-689.94,-716.31,1.04,-0.02,0.95
29988,14.60,14.75,14.61,14.63,14.65,-116.21,-700.20,-699.22,1.28,-1.07,-5.69
30019,14.60,14.76,14.61,14.63,14.65,-91.31,-724.61,-700.68,-0.96,2.77,0.78
30050,14.60,14.76,14.61,14.63,14.65,-150.39,-706.05,-720.70,0.23,-1.36,-0.15
30081,14.60,14.75,14.61,14.63,14.65,-110.35,-675.29,-730.96,1.02,-3.93,-2.38
30112,14.60,14.76,14.61,14.63,14.65,-110.84,-702.64,-696.78,-3.89,-0.27,-3.37
30143,14.60,14.75,14.61,14.63,14.65,-114.75,-696.78,-703.12,1.60,1.03,1.39
30174,14.60,14.75,14.61,14.63,14.65,-129.88,-690.92,-714.84,0.02,0.24,-0.30
30205,14.60,14.75,14.61,14.63,14.65,-116.70,-669.43,-734.86,-4.78,-7.09,-5.04
30236,14.60,14.75,14.61,14.63,14.65,-126.46,-685.55,-688.96,-6.19,-4.03,1.25
30267,14.60,14.75,14.61,14.63,14.65,-111.33,-681.64,-713.38,-4.55,-1.73,0.41
30298,14.60,14.75,14.61,14.63,14.65,-135.74,-675.78,-717.77,-1.03,0.78,-4.85
30329,14.60,14.75,14.61,14.63,14.65,-112.79,-681.64,-703.12,-0.79,-0.07,-5.60
30360,14.60,14.76,14.61,14.63,14.65,-82.52,-728.52,-697.75,2.66,5.43,0.83
30391,14.60,14.75,14.61,14.63,14.65,-145.51,-660.64,-731.93,-2.61,-0.37,1.58
