currTime,s1,s2,s3,s4,s,AccX,AccY,AccZ,GyroX,GyroY,GyroZ,GRF
26,780.05,771.03,775.96,768.60,773.91,131.35,-949.22,374.02,1.28,1.67,0.34,78.19
60,780.12,771.17,775.96,768.60,773.96,128.42,-952.64,369.63,0.09,1.75,1.05,76.79
94,780.14,771.06,775.98,768.57,773.94,128.42,-937.50,357.42,-1.76,4.16,1.69,78.62
127,780.11,771.04,776.00,768.54,773.92,129.39,-943.36,373.05,0.60,2.32,3.12,80.01
161,780.28,771.04,775.89,768.48,773.92,116.70,-938.96,362.79,1.50,-0.62,1.79,77.51
195,780.45,770.96,775.82,768.39,773.90,119.14,-950.68,373.05,1.18,-0.59,2.55,77.21
229,780.48,770.99,775.81,768.32,773.90,144.04,-930.18,364.75,-0.18,2.98,1.51,77.50
263,780.69,770.94,775.70,768.32,773.91,140.62,-952.15,374.02,0.90,1.27,-0.04,74.51
297,780.84,770.87,775.68,768.31,773.92,111.82,-948.24,370.12,0.66,3.95,2.64,74.23
331,781.19,770.79,775.61,768.07,773.92,109.37,-944.34,357.42,1.72,0.85,-1.77,75.46
365,781.63,770.70,775.40,767.95,773.92,126.95,-937.50,365.23,1.43,1.82,-1.37,71.20
401,782.14,770.58,775.22,767.81,773.94,131.35,-930.66,368.16,0.98,1.51,1.15,68.04
435,782.37,770.42,775.17,767.62,773.89,123.05,-939.45,365.72,-1.24,-0.34,0.60,69.97
470,782.69,770.38,774.97,767.56,773.90,142.58,-947.75,376.46,1.25,1.55,1.06,65.04
504,783.05,770.32,774.83,767.48,773.92,129.88,-956.05,360.84,0.88,1.69,1.80,62.12
538,783.30,770.22,774.78,767.33,773.91,128.42,-936.04,364.75,1.08,-0.64,2.02,62.89
572,783.44,770.25,774.65,767.27,773.90,112.79,-940.43,375.98,-1.15,1.45,-1.07,59.83
606,783.46,770.26,774.68,767.23,773.91,117.19,-932.62,364.75,1.85,3.63,-1.32,61.20
640,783.63,770.25,774.60,767.20,773.92,119.14,-939.45,363.28,-1.37,2.21,1.44,59.13
675,783.78,770.17,774.60,767.27,773.95,117.19,-944.34,364.26,0.38,0.41,-1.87,58.23
709,783.99,770.13,774.54,767.16,773.95,119.14,-938.96,365.23,-0.56,0.33,1.11,57.95
743,784.19,770.08,774.46,767.16,773.97,119.14,-940.92,364.75,-0.40,1.32,0.24,55.63
777,784.50,769.97,774.37,767.02,773.97,108.89,-940.43,373.54,1.75,2.64,-0.72,55.22
813,784.59,769.87,774.36,766.92,773.93,127.44,-943.85,360.84,-1.93,1.92,0.85,56.86
847,784.85,769.86,774.27,766.88,773.97,137.70,-934.57,361.33,-0.27,2.62,1.07,54.30
881,784.95,769.78,774.21,766.86,773.95,124.02,-937.99,375.49,0.24,-0.27,2.97,53.70
917,785.00,769.71,774.21,766.86,773.94,121.58,-945.31,378.91,1.20,0.30,-0.98,54.00
951,785.05,769.78,774.12,766.78,773.93,127.44,-934.57,377.44,-1.29,3.11,2.52,52.10
985,785.03,769.86,774.19,766.83,773.98,125.49,-940.43,359.86,1.31,2.05,2.56,52.50
1019,785.08,769.86,774.21,766.78,773.98,121.09,-943.36,369.63,-1.42,-0.57,-0.57,53.61
1053,785.02,769.96,774.16,766.76,773.98,115.23,-943.36,370.12,-2.50,0.37,-0.30,52.08
1087,784.91,769.96,774.22,766.81,773.97,117.19,-936.04,370.12,3.33,0.76,0.05,53.27
1121,784.72,769.97,774.20,766.91,773.95,121.58,-937.50,369.14,0.21,2.02,0.20,51.81
1156,784.49,770.00,774.33,766.93,773.94,119.63,-927.25,360.35,1.54,1.84,1.96,55.33
1190,784.30,770.01,774.34,766.96,773.90,129.88,-945.80,355.96,1.15,-0.66,1.54,55.66
1226,784.27,770.13,774.43,767.03,773.97,124.51,-949.22,353.03,0.44,2.91,-2.92,55.87
1260,784.32,770.17,774.43,767.10,774.01,130.37,-947.75,370.12,0.07,1.73,-1.32,54.62
1294,784.46,770.18,774.45,767.10,774.05,120.61,-946.78,369.14,1.46,3.62,-0.85,54.34
1328,784.48,770.30,774.47,767.22,774.12,106.93,-938.96,347.66,-1.04,3.21,0.46,52.12
1362,784.20,770.25,774.45,767.21,774.03,124.51,-949.71,369.63,-0.21,2.34,0.14,53.11
1396,783.84,770.28,774.51,767.21,773.96,123.54,-946.29,351.56,-2.37,2.02,0.57,55.83
1430,783.35,770.35,774.48,767.29,773.86,118.65,-934.57,350.10,0.11,1.41,1.18,54.92
1464,782.64,770.39,774.53,767.22,773.70,126.95,-938.48,359.37,1.98,2.12,1.02,59.27
1498,781.96,770.44,774.54,767.17,773.53,131.35,-918.95,382.32,0.02,0.81,2.89,62.32
1531,781.52,770.52,774.61,766.95,773.40,131.84,-959.47,360.35,-1.92,0.93,1.02,67.99
1565,781.13,770.60,774.54,767.08,773.34,110.84,-925.29,363.28,3.05,0.60,-0.21,65.07
1598,780.92,770.66,774.65,767.13,773.34,121.58,-932.62,360.84,-1.70,-0.68,0.44,67.37
1634,780.34,770.75,774.76,767.14,773.25,126.95,-949.71,360.35,-2.17,1.79,-1.18,71.23
1668,779.82,770.93,774.72,767.24,773.18,116.70,-939.45,357.91,0.47,1.47,1.48,69.05
1702,779.18,771.02,774.78,767.25,773.06,120.61,-938.48,352.05,2.96,-0.14,1.55,71.73
1736,778.56,771.02,774.91,767.40,772.97,114.75,-963.38,349.61,-1.91,4.55,-1.02,74.99
1770,778.20,771.03,775.03,767.48,772.94,127.44,-941.41,379.88,1.91,5.01,0.60,78.01
1803,777.85,771.13,775.11,767.56,772.91,114.75,-947.27,367.19,-2.35,0.13,1.17,79.22
1839,777.64,771.21,775.14,767.55,772.88,130.86,-943.36,357.91,2.10,3.80,-1.47,80.28
1873,777.41,771.33,775.18,767.60,772.88,101.56,-936.52,367.19,0.83,-1.15,1.55,80.46
1907,777.22,771.35,775.27,767.65,772.87,127.93,-944.82,358.40,0.64,0.37,-1.64,82.29
1941,777.03,771.50,775.38,767.80,772.93,116.70,-943.36,358.89,1.50,2.31,1.32,82.19
1975,776.65,771.61,775.35,767.77,772.85,118.65,-951.66,350.59,0.95,-0.23,0.33,82.44
2011,776.37,771.58,775.50,767.80,772.81,114.75,-952.15,348.63,0.11,0.92,-0.21,86.95
2045,776.06,771.59,775.51,767.79,772.74,121.09,-930.66,374.51,0.08,-0.14,1.49,88.16
2079,775.71,771.64,775.50,767.78,772.66,116.70,-956.05,359.86,1.00,-0.09,-0.63,88.88
2113,775.38,771.59,775.53,767.85,772.59,117.19,-950.68,370.61,3.18,2.82,-0.42,90.19
2147,775.21,771.61,775.61,767.80,772.56,118.16,-933.11,384.28,3.92,2.21,0.02,93.37
2181,775.10,771.62,775.56,767.84,772.53,117.68,-941.41,349.12,2.63,0.31,0.19,91.65
2215,774.83,771.62,775.63,767.87,772.49,122.56,-944.82,349.12,-0.02,1.50,0.98,93.95
2250,774.74,771.65,775.60,767.91,772.48,107.91,-924.32,350.59,0.96,2.76,2.49,92.75
2284,774.71,771.66,775.63,767.95,772.49,111.33,-936.52,357.42,1.87,1.49,1.52,93.00
2318,774.78,771.66,775.67,767.93,772.51,114.75,-947.75,355.96,0.47,-0.20,1.71,93.89
2352,774.79,771.68,775.68,768.00,772.54,119.63,-945.80,365.23,0.23,1.98,-1.13,92.96
2386,774.83,771.71,775.67,768.04,772.56,125.49,-941.89,356.93,1.26,-0.51,1.27,91.78
2422,774.71,771.76,775.73,768.04,772.56,117.68,-932.13,361.33,-0.12,1.64,-0.86,93.17
2456,774.73,771.79,775.77,768.11,772.60,122.07,-937.99,356.45,-0.28,2.03,0.15,92.94
2490,774.77,771.77,775.77,768.15,772.62,107.42,-941.89,348.14,-0.85,1.02,-0.22,92.47
2524,774.73,771.89,775.81,768.11,772.64,117.19,-943.85,350.59,0.47,2.11,-1.15,93.07
2559,774.80,771.93,775.85,768.21,772.70,131.35,-936.04,362.79,-0.73,0.76,-0.61,92.18
2593,774.90,772.00,775.91,768.22,772.76,101.56,-947.27,352.54,-0.27,2.17,1.73,92.68
2627,775.00,772.13,775.94,768.30,772.84,114.26,-948.24,349.12,-0.35,0.54,-0.42,90.71
2661,775.04,772.08,775.87,768.26,772.81,109.37,-946.78,370.61,1.23,0.45,2.98,89.87
2695,775.18,772.15,775.95,768.25,772.88,112.79,-952.15,357.91,-1.38,0.12,-2.63,90.88
2729,775.40,772.17,775.95,768.18,772.92,115.72,-946.29,361.33,0.90,1.27,1.50,91.02
2763,775.54,772.24,775.95,768.27,773.00,109.86,-942.38,356.45,-0.81,0.37,-1.40,88.57
2799,775.71,772.25,775.91,768.25,773.03,124.02,-938.48,363.28,0.83,0.37,0.81,87.48
2835,775.90,772.33,775.91,768.15,773.07,126.46,-951.17,352.05,-0.52,0.22,1.99,87.58
2869,775.97,772.32,775.99,768.13,773.10,110.35,-944.82,348.14,-1.65,0.62,1.65,89.60
2904,776.10,772.36,775.89,768.11,773.11,117.19,-936.04,356.45,2.16,1.54,0.29,86.83
2938,776.15,772.32,775.91,768.13,773.13,128.42,-941.89,364.75,2.18,-0.60,0.22,87.19
2972,776.13,772.30,775.88,768.08,773.10,124.02,-943.36,347.66,0.57,3.63,3.23,87.20
3006,776.18,772.33,775.86,768.14,773.13,118.65,-945.31,356.45,0.24,-1.06,1.22,85.45
3040,776.19,772.27,775.90,768.17,773.13,108.89,-950.20,302.25,1.07,-1.21,0.48,86.40
3074,776.18,772.26,775.83,768.13,773.10,130.37,-967.77,369.14,-1.51,0.59,-1.60,85.45
3108,776.17,772.24,775.84,768.04,773.07,97.66,-976.07,336.43,-0.29,2.98,-0.54,87.00
3142,776.10,772.34,775.80,768.04,773.07,128.42,-936.52,362.79,0.79,4.24,2.35,85.65
3176,776.09,772.17,775.78,767.97,773.00,124.51,-905.76,377.44,-3.19,-1.85,1.44,87.43
3209,776.00,772.21,775.82,768.02,773.01,105.47,-941.41,330.08,-1.13,-1.66,2.20,87.78
3244,775.88,772.13,775.85,768.05,772.98,115.72,-938.96,357.42,-0.18,4.25,1.65,89.27
3278,775.77,772.17,775.79,768.06,772.95,116.21,-935.55,368.65,0.69,3.97,2.60,87.61
3312,775.65,772.18,775.82,768.08,772.93,132.32,-978.03,329.59,-2.05,1.42,1.50,88.34
3346,775.41,772.07,775.92,768.18,772.90,125.49,-942.38,353.52,2.40,1.30,2.66,91.10
3380,775.28,772.12,775.94,768.12,772.87,75.68,-928.22,382.32,1.34,2.24,-0.64,92.59
3413,775.01,772.13,775.93,768.16,772.81,47.85,-818.36,412.60,-2.05,-7.64,-0.21,92.44
3447,774.78,772.24,776.00,768.27,772.82,-18.55,-837.89,422.36,-3.33,-13.34,0.70,92.59
3481,774.71,772.14,776.05,768.27,772.79,112.30,-919.92,379.88,-8.35,-9.37,-1.34,94.71
3515,774.80,772.15,776.04,768.34,772.83,141.11,-970.21,322.75,-7.10,3.38,-1.18,93.05
3549,774.77,772.20,775.98,768.25,772.80,117.68,-937.50,377.93,0.18,2.73,0.15,92.77
3583,774.80,772.19,776.01,768.30,772.83,129.88,-945.80,359.37,1.73,2.45,-1.83,92.73
3617,774.86,772.25,776.06,768.31,772.87,121.09,-966.31,351.56,-0.24,3.81,0.23,93.07
3653,774.83,772.22,776.01,768.36,772.86,122.07,-953.61,359.37,1.76,1.81,0.59,91.52
3687,774.75,772.21,776.06,768.34,772.84,114.26,-939.45,353.03,1.68,-0.07,-0.93,93.43
3723,774.75,772.12,776.08,768.36,772.83,81.05,-912.11,342.29,-2.59,0.36,-0.83,94.20
3757,774.79,772.15,776.03,768.24,772.80,140.14,-929.69,365.23,1.15,2.73,0.87,94.56
3791,774.66,772.08,776.01,768.24,772.75,128.91,-942.38,361.82,0.21,-0.75,1.25,95.04
3825,774.58,772.10,776.00,768.19,772.72,119.63,-940.43,354.00,-0.69,2.07,2.14,95.63
3859,774.52,771.93,775.93,768.14,772.63,125.00,-939.94,364.26,1.50,1.67,1.27,96.14
3893,774.27,771.92,775.89,768.06,772.54,124.51,-947.27,370.12,0.11,1.35,-0.76,97.17
3928,774.01,771.82,775.83,767.97,772.41,123.54,-942.38,360.35,1.66,0.68,-2.27,98.79
3962,773.72,771.62,775.78,768.00,772.28,106.93,-951.66,359.37,0.31,-1.02,2.08,99.57
3996,773.36,771.51,775.64,767.82,772.08,110.35,-946.78,355.96,-0.57,1.47,0.87,100.80
4030,773.15,771.49,775.68,767.79,772.03,124.02,-960.45,338.87,2.68,1.59,-1.66,103.37
4066,773.18,771.58,775.74,767.82,772.08,122.07,-940.92,379.88,1.92,1.25,-1.12,103.49
4100,773.39,771.69,775.82,767.98,772.22,119.63,-945.80,365.23,-0.02,-1.78,1.37,101.44
4134,773.68,771.83,775.92,768.13,772.39,100.59,-940.92,353.52,-0.58,0.00,1.25,99.59
4168,773.93,771.83,775.94,768.21,772.48,110.35,-943.85,356.93,1.35,1.40,-0.92,98.19
4202,774.16,771.99,775.95,768.30,772.60,123.54,-947.75,365.23,0.13,0.06,0.50,94.80
4237,774.35,772.02,775.98,768.38,772.68,120.61,-952.64,347.66,-2.56,1.73,1.39,93.77
4271,774.37,772.10,775.99,768.38,772.71,125.49,-915.53,378.91,1.37,0.31,2.10,93.27
4305,774.04,772.08,775.96,768.35,772.61,97.66,-964.84,344.73,2.15,1.46,2.49,94.33
4339,773.77,772.03,775.96,768.31,772.52,108.40,-937.01,357.42,-3.16,2.47,0.31,96.16
4373,773.75,772.11,775.96,768.28,772.53,121.09,-938.96,361.82,-1.19,-1.39,-0.63,96.09
4407,773.89,772.24,775.95,768.36,772.61,107.42,-934.57,343.26,-2.99,0.53,-0.04,93.04
4441,774.64,772.27,776.02,768.37,772.83,112.30,-938.96,347.66,1.20,-1.92,-0.66,91.80
4477,776.13,772.31,775.93,768.33,773.17,111.82,-959.96,369.14,-0.02,-0.69,-3.19,84.71
4511,779.20,772.36,775.86,768.32,773.93,104.00,-939.94,355.47,-0.93,-0.89,-0.73,72.25
4545,784.65,772.58,775.82,768.59,775.41,107.91,-937.99,366.70,1.68,0.41,-4.82,46.65
4580,793.34,772.99,775.85,768.90,777.77,128.42,-932.13,352.05,-0.99,-2.85,-0.65,9.89
4614,802.48,773.42,776.06,769.49,780.36,119.63,-942.87,350.59,-0.72,-2.17,-1.37,-28.32
4649,808.47,773.70,776.16,769.82,782.04,129.88,-946.78,361.33,-0.94,0.21,-0.45,-53.66
4684,810.36,773.71,776.21,769.96,782.56,125.49,-955.08,329.10,-0.21,0.81,-0.36,-61.00
4718,809.40,773.55,776.27,770.03,782.31,122.07,-947.27,339.84,1.62,2.54,1.96,-56.07
4752,807.50,773.21,776.30,769.97,781.75,125.98,-948.73,346.19,0.47,3.47,0.45,-44.98
4785,806.06,773.18,776.25,769.98,781.37,113.77,-944.34,364.26,0.82,2.53,-1.69,-41.10
4819,805.51,773.09,776.30,770.04,781.23,113.28,-932.13,361.33,1.51,1.36,-1.24,-38.18
4853,805.42,773.11,776.51,770.24,781.32,126.95,-933.59,366.70,0.87,0.92,0.53,-35.63
4888,805.17,773.22,776.91,770.79,781.52,134.77,-929.69,355.47,1.51,1.07,-0.35,-34.03
4921,804.25,773.42,777.36,771.27,781.58,118.65,-950.68,356.45,-0.19,3.10,-0.47,-28.42
4955,802.10,773.69,777.99,772.02,781.45,126.46,-951.66,342.29,0.66,2.10,0.15,-18.40
4989,798.91,773.86,778.99,773.04,781.20,122.07,-960.45,351.07,2.74,2.07,2.05,1.17
5023,793.42,774.33,780.23,774.18,780.54,125.98,-941.89,373.54,2.30,3.91,0.13,30.36
5057,784.08,774.72,782.01,775.66,779.12,138.18,-954.10,333.98,-1.14,5.63,2.64,81.82
5091,769.96,774.88,784.68,777.68,776.80,138.18,-989.26,328.61,1.51,8.59,6.77,165.53
5124,757.47,773.73,788.94,780.08,775.05,131.35,-1042.97,282.23,10.73,8.98,9.73,288.46
5158,752.80,770.01,792.49,780.63,773.98,85.45,-960.45,312.01,81.68,38.44,60.91,414.74
5192,752.07,765.44,793.19,775.16,771.47,504.88,-2000.00,347.17,-57.47,47.15,113.78,551.90
5226,751.76,763.37,787.22,766.42,767.19,140.14,-1222.17,217.77,76.53,66.71,173.38,549.48
5262,751.65,762.30,771.02,762.57,761.89,103.03,-1281.74,40.53,142.06,80.11,171.11,211.45
5296,751.66,761.99,763.64,760.83,759.53,1323.24,-1034.18,-376.46,250.13,159.21,77.33,55.63
5331,751.52,761.66,763.50,760.44,759.28,674.32,-1411.62,-507.32,77.74,227.79,-79.89,61.08
5365,751.44,761.37,763.25,760.25,759.08,336.91,-705.08,-428.22,38.30,250.13,-92.88,60.21
5399,751.44,761.16,763.21,760.11,758.98,309.57,-875.00,-318.36,16.82,250.13,-125.45,62.97
5433,751.39,761.14,763.11,760.00,758.91,329.59,-929.69,-292.48,18.27,231.28,-144.45,62.49
5467,751.42,761.07,763.11,759.98,758.90,262.21,-1023.93,-306.64,13.98,196.10,-168.51,63.08
5501,751.37,761.09,763.11,759.84,758.85,199.22,-1089.84,-339.84,12.33,167.92,-189.95,65.20
5535,751.31,761.03,763.13,759.77,758.81,152.83,-1163.09,-348.63,0.11,147.89,-201.98,67.48
5571,751.32,761.08,763.14,759.69,758.81,52.73,-1323.73,-315.92,-15.76,123.31,-200.31,68.54
5605,751.17,761.11,763.21,759.65,758.78,-28.81,-1438.48,-256.35,-34.44,92.89,-202.02,71.20
5639,751.01,760.99,763.20,759.62,758.70,-112.30,-1551.76,-201.17,-41.09,74.36,-170.75,72.71
5675,751.03,760.94,762.93,759.65,758.64,-730.96,-1777.34,22.46,-80.55,44.70,-145.63,66.02
5709,750.92,760.93,762.98,759.60,758.61,-1156.25,-1706.54,125.49,-21.57,38.88,-157.68,68.54
5744,751.20,760.92,762.78,759.56,758.61,-1755.86,-1357.91,98.63,18.94,39.30,-122.64,63.13
5778,753.20,760.91,762.60,759.53,759.06,-1396.48,-398.44,-617.19,250.13,123.38,26.66,52.37
5812,772.88,761.17,762.56,759.56,764.04,-325.68,-438.96,792.97,250.13,159.84,119.00,-18.70
5846,804.05,762.61,763.01,759.72,772.35,-445.80,-1959.47,1063.96,-54.65,-23.53,175.53,-128.37
5880,808.76,764.86,767.56,760.78,775.49,1017.09,-233.40,1857.42,226.63,-62.80,-7.72,-65.03
5914,805.46,768.78,772.17,762.95,777.34,66.41,-550.78,625.00,52.25,1.62,11.76,-2.10
5948,804.10,771.99,776.78,765.67,779.63,147.95,-857.91,390.14,44.24,-5.73,10.99,51.56
5983,803.26,773.95,780.72,769.17,781.77,93.26,-907.23,364.75,8.50,-4.97,3.86,85.46
6017,799.19,775.80,783.74,771.92,782.66,121.09,-929.20,381.35,-12.22,-2.15,3.41,119.52
6051,793.58,777.37,786.82,774.28,783.01,131.35,-968.26,357.91,-8.28,0.56,4.76,167.99
6087,788.00,778.12,788.80,776.34,782.82,132.32,-955.57,367.68,-3.73,4.54,2.00,200.12
6121,782.50,778.38,790.28,777.44,782.15,111.82,-946.78,368.16,-2.72,-0.05,3.41,237.57
6155,777.82,778.45,791.40,778.30,781.49,107.91,-955.57,352.05,-0.50,3.40,1.62,268.45
6189,773.75,778.54,792.36,779.04,780.92,90.33,-929.20,375.98,0.82,5.72,3.95,294.60
6223,769.76,778.98,793.78,780.04,780.64,103.52,-963.38,357.42,1.75,3.91,4.23,325.43
6257,766.59,779.81,795.80,781.59,780.95,98.63,-937.99,362.79,5.73,5.00,2.76,357.31
6292,763.50,781.18,798.95,784.01,781.91,101.56,-946.78,359.86,7.74,6.07,6.11,399.55
6326,760.46,782.70,803.52,787.13,783.45,109.37,-998.05,348.63,11.73,4.53,8.34,465.89
6359,757.60,783.86,809.09,790.70,785.31,102.54,-981.45,343.26,20.05,5.53,17.00,552.75
6393,754.83,784.76,814.93,794.26,787.19,75.20,-942.38,411.62,22.38,9.57,17.08,647.87
6426,752.51,785.03,820.05,797.69,788.82,123.05,-970.70,416.02,12.73,7.22,24.11,730.89
6460,751.91,783.61,822.48,800.31,789.58,56.64,-956.05,460.94,4.18,4.47,27.79,766.37
6497,751.61,779.19,824.74,799.28,788.71,131.35,-1023.44,395.02,-6.51,61.23,67.04,874.20
6530,751.47,773.43,826.43,794.81,786.53,185.06,-1263.67,434.08,-49.48,55.33,100.20,1028.68
6565,751.32,768.60,826.86,787.76,783.63,110.35,-1308.59,310.55,-33.52,47.55,153.34,1182.53
6598,751.24,765.71,824.14,779.12,780.05,0.98,-1362.79,268.07,26.11,42.26,202.81,1265.29
6632,751.20,763.77,812.89,772.98,775.21,-203.12,-1375.00,404.79,31.59,30.60,239.50,1091.15
6666,750.94,762.60,788.17,765.68,766.85,-487.79,-1357.91,326.66,7.50,11.98,248.29,593.12
6700,750.85,761.95,763.19,761.31,759.32,622.56,-2000.00,398.93,-34.40,-74.73,190.71,40.47
6734,750.70,761.44,763.41,760.68,759.06,519.53,-1752.44,-235.84,233.43,97.60,-53.73,59.73
6768,750.79,761.28,763.08,760.37,758.88,286.13,-376.95,-184.08,103.63,69.98,-87.19,57.06
6802,750.75,761.09,763.01,760.21,758.76,373.05,-528.32,-132.32,25.53,63.89,-44.16,59.64
6836,750.81,760.98,762.98,760.07,758.71,460.45,-596.19,-75.68,15.84,52.12,-106.50,61.38
6870,750.73,760.95,762.97,759.96,758.65,303.71,-436.52,-39.06,-9.85,29.60,-152.84,63.23
6906,750.77,760.96,762.94,759.90,758.64,297.36,-653.32,37.60,-39.05,4.26,-184.88,63.23
6940,750.73,760.90,763.15,759.73,758.63,195.31,-858.89,153.81,-50.40,-14.11,-219.83,71.67
6974,750.79,760.94,763.11,759.73,758.64,72.75,-1024.41,220.21,-43.60,-39.39,-229.92,70.18
7008,750.72,761.00,763.20,759.57,758.62,127.93,-1245.12,190.92,-58.92,-43.31,-218.58,74.60
7042,750.65,761.00,763.29,759.60,758.63,37.11,-1485.35,114.26,-89.31,-3.63,-221.32,76.41
7076,750.65,761.01,763.35,759.57,758.64,-679.20,-1679.69,440.92,-128.28,48.80,-213.16,78.36
7111,750.55,760.95,763.17,759.47,758.54,-1468.75,-2000.00,608.40,-66.89,46.65,-177.69,76.08
7145,750.51,760.93,763.09,759.47,758.50,-1822.75,-1660.16,378.42,25.30,46.37,-121.95,74.34
7179,752.82,760.84,762.78,759.50,758.98,-2000.00,-2000.00,1234.86,-142.06,41.25,89.12,59.02
7213,774.11,760.85,762.78,759.45,764.30,1778.32,-300.29,1222.66,137.44,164.70,80.08,-13.38
7247,797.65,761.50,762.87,759.56,770.40,-169.92,-1283.69,-16.60,165.14,7.34,224.11,-98.56
7281,807.63,763.23,763.37,759.79,773.50,10.74,-1257.81,156.74,54.62,29.82,121.37,-137.80
7317,809.20,766.55,766.18,760.60,775.63,14.65,-704.10,624.02,50.76,6.85,15.18,-111.65
7351,807.32,769.83,770.26,762.45,777.46,114.75,-892.09,445.31,52.28,8.85,12.27,-57.21
7385,805.36,772.52,774.29,764.75,779.23,86.43,-858.40,441.89,11.78,-0.59,5.51,-5.38
7421,803.16,775.10,777.75,767.20,780.80,127.93,-939.45,401.37,-10.87,-4.42,7.31,31.75
7455,801.10,777.02,779.16,769.48,781.69,131.35,-948.73,358.40,-7.38,-4.21,3.37,24.71
7490,797.72,778.34,780.26,771.66,782.00,123.54,-939.45,395.02,-1.49,0.25,3.23,21.16
7524,793.50,779.12,781.65,773.03,781.82,123.05,-927.73,378.91,-2.85,1.95,6.13,43.79
7558,789.07,779.52,782.66,774.01,781.31,126.46,-946.78,379.88,-5.09,-2.44,4.98,66.50
7592,784.40,779.95,783.45,774.69,780.62,115.72,-926.76,379.39,-6.16,0.63,4.43,88.80
7626,780.15,780.76,784.51,775.46,780.22,104.98,-925.29,388.67,-4.53,-0.25,7.22,111.89
7660,777.17,781.66,785.82,776.55,780.30,96.68,-918.46,375.00,0.44,1.13,5.73,131.61
7694,775.04,783.08,787.59,778.18,780.97,119.63,-928.22,363.77,1.37,3.94,2.34,147.64
7730,772.58,784.71,790.00,780.31,781.90,113.28,-954.10,365.72,4.76,3.27,3.67,171.69
7764,770.06,786.65,792.97,782.93,783.15,99.61,-956.54,359.86,4.18,3.22,5.61,200.34
7799,767.06,788.48,796.62,786.16,784.58,103.52,-940.43,371.58,11.35,4.08,8.98,239.24
7833,761.70,789.72,801.59,790.25,785.81,114.75,-1001.95,326.17,19.27,7.52,3.37,311.24
7867,755.30,789.09,808.53,795.04,786.99,98.14,-1139.16,437.01,47.56,13.95,33.49,440.67
7901,752.40,786.31,815.43,798.76,788.23,67.38,-861.33,435.06,36.31,14.27,38.35,590.14
7935,751.96,780.56,820.78,798.42,787.93,352.54,-1189.45,920.90,-94.93,44.32,73.05,776.01
7968,751.70,773.60,822.98,793.81,785.52,55.18,-966.80,557.62,-71.41,51.18,109.80,955.31
8002,751.49,768.66,823.99,786.33,782.62,123.05,-1360.35,334.96,-22.03,77.98,175.40,1131.09
8035,751.39,765.79,820.61,777.06,778.71,177.73,-1744.14,212.40,-5.56,44.95,244.82,1206.62
8069,751.17,764.03,801.18,771.25,771.91,-277.83,-1467.77,344.73,21.65,11.39,250.13,822.88
8102,750.93,762.81,773.33,764.09,762.79,-141.11,-1687.01,520.51,-102.02,-57.04,250.13,245.19
8138,750.90,762.10,763.13,761.10,759.31,1077.64,-1419.92,-854.49,63.36,30.39,182.52,40.68
8172,750.83,761.74,762.91,760.55,759.01,845.21,-1035.64,-94.73,83.35,105.17,-77.53,46.46
8206,750.80,761.41,762.78,760.28,758.82,465.82,-346.19,-119.14,48.79,124.82,-112.40,50.00
8240,750.82,761.20,762.78,760.08,758.72,414.55,-608.89,-95.21,18.00,97.82,-165.12,54.63
8274,750.77,761.13,762.64,759.93,758.62,218.75,-692.87,-69.82,27.15,76.24,-214.11,53.87
8308,750.65,761.09,762.65,759.86,758.56,83.01,-843.75,-66.41,8.50,50.29,-240.84,55.94
8343,750.74,761.15,762.63,759.81,758.58,-60.06,-1099.12,-5.37,4.27,23.62,-250.14,55.46
8377,750.67,761.15,762.83,759.68,758.58,-159.18,-1250.00,-83.50,5.99,12.97,-241.57,62.47
8411,750.66,761.19,762.80,759.61,758.56,-224.12,-1468.26,-74.22,-24.60,20.55,-215.56,62.66
8445,750.58,761.08,762.67,759.63,758.49,-555.66,-1780.27,-84.47,-52.98,39.25,-185.50,60.12
8479,750.58,761.02,762.49,759.58,758.42,-1250.00,-1951.17,-3.91,-61.75,86.14,-172.90,56.86
8515,750.50,761.00,762.44,759.51,758.36,-1463.87,-1659.18,59.57,-18.37,102.95,-163.13,57.04
8549,750.55,760.97,762.53,759.58,758.41,-1625.98,-1242.68,159.67,-23.89,98.82,-85.44,58.45
8584,751.16,760.95,762.39,759.57,758.52,-2000.00,-989.75,352.05,42.82,121.48,35.40,53.22
8618,756.58,761.08,762.38,759.51,759.89,-225.10,-1054.69,820.31,84.75,45.46,114.64,34.09
8652,771.55,762.43,762.51,759.60,764.02,427.25,-170.90,-41.02,-1.78,30.09,92.81,-26.18
8686,784.74,764.16,765.75,760.99,768.91,-1196.78,-2000.00,1999.94,250.13,-67.50,25.37,-25.12
8720,785.79,767.05,770.56,762.88,771.57,102.54,-1130.86,437.01,90.34,7.31,13.54,40.14
8754,786.67,769.89,777.07,765.12,774.69,108.40,-931.15,355.47,23.57,0.44,8.73,143.47
8788,790.81,771.77,784.20,767.67,778.61,113.28,-922.85,398.93,5.39,-1.37,5.76,254.40
8823,794.08,773.31,789.40,770.10,781.72,130.86,-902.83,394.04,-4.21,-3.52,2.34,324.72
8857,794.09,774.23,793.36,771.86,783.38,142.09,-952.15,375.00,-11.46,-0.82,5.53,390.16
8891,790.79,774.54,795.24,772.76,783.33,133.79,-957.03,390.14,-0.60,-1.31,4.21,432.51
8927,786.50,774.49,796.22,773.38,782.65,128.91,-922.85,393.07,3.85,3.18,3.98,462.78
8961,783.02,774.17,796.15,773.62,781.74,135.25,-936.04,385.74,-3.47,4.19,1.43,472.03
8995,780.54,773.81,796.23,773.78,781.09,130.37,-927.25,368.65,3.47,3.62,1.42,483.04
9029,779.85,773.90,796.56,773.99,781.07,136.72,-905.76,396.00,1.38,3.49,-0.67,489.77
9063,779.17,774.50,797.04,774.70,781.35,126.46,-943.36,370.61,-2.00,1.57,2.46,489.00
9097,777.74,775.77,798.01,775.89,781.85,148.93,-942.38,360.35,-1.24,0.59,4.17,490.22
9131,774.88,777.13,798.96,777.54,782.13,149.90,-958.50,383.30,-0.15,0.76,2.53,488.56
9166,770.47,777.53,799.22,778.78,781.50,138.18,-946.78,301.76,-3.17,1.83,5.56,488.61
9200,764.47,776.07,798.35,779.05,779.48,147.46,-994.14,344.73,7.24,5.02,3.51,495.34
9234,755.69,772.06,795.51,777.78,775.26,173.34,-1199.71,229.49,26.27,8.14,18.68,505.47
9270,751.84,765.83,791.14,773.63,770.61,400.39,-1480.47,695.80,-20.66,-20.11,52.90,521.14
9304,751.33,762.82,784.18,765.32,765.91,820.31,-2000.00,443.85,44.37,74.86,182.64,495.75
9340,751.27,761.77,769.11,761.70,760.96,498.05,-1875.98,676.76,121.71,48.72,185.54,182.33
9374,751.22,761.46,763.69,760.57,759.24,772.46,-401.86,-354.49,223.38,126.97,95.41,66.47
9408,751.21,761.34,763.47,760.41,759.11,672.85,-344.24,-113.28,-26.62,26.06,-27.78,64.42
9442,751.26,761.25,763.31,760.29,759.03,625.98,-556.64,-114.75,11.53,66.40,-45.42,62.70
9476,751.18,761.29,763.22,760.17,758.97,527.34,-474.12,-67.38,-46.76,26.26,-101.24,62.10
9510,751.15,761.16,763.21,760.07,758.90,267.09,-606.93,158.69,-55.21,16.20,-122.06,64.69
9543,751.07,761.26,763.21,759.90,758.86,60.55,-1019.53,303.22,-32.89,-26.81,-135.34,66.48
9577,750.95,761.37,763.09,759.77,758.79,-34.67,-1168.46,269.04,-20.20,-62.80,-144.98,65.02
9611,750.95,761.36,763.12,759.79,758.80,-285.64,-1104.49,381.35,-49.98,-66.30,-104.69,65.50
9644,750.90,761.34,763.05,759.76,758.76,-389.65,-1208.98,636.72,-42.67,-90.35,-71.99,64.54
9678,750.88,761.28,763.11,759.72,758.75,-268.07,-1217.77,653.81,-38.63,-121.63,-40.72,67.36
9712,750.91,761.14,763.07,759.70,758.70,-179.20,-1032.23,544.92,-22.12,-113.59,-9.53,67.49
9747,750.89,761.15,762.96,759.74,758.68,52.73,-915.53,363.28,-15.34,-91.37,-1.41,64.16
9781,750.81,761.04,763.03,759.65,758.63,310.06,-815.43,353.52,-36.69,-72.70,-14.94,68.28
9815,750.72,761.07,763.12,759.60,758.63,206.05,-945.31,568.36,-56.02,-62.54,-19.45,71.45
9849,750.77,761.00,763.12,759.67,758.64,-21.00,-1097.66,457.03,-1.88,-44.95,9.56,70.85
9883,750.78,761.03,763.14,759.61,758.64,288.09,-1662.11,453.61,-25.81,-32.07,32.24,71.82
9917,751.55,761.07,763.04,759.58,758.81,-355.96,-1210.45,273.44,-13.72,17.45,52.61,66.94
9951,754.22,761.12,763.07,759.63,759.51,231.45,-1031.25,32.71,-37.95,64.04,86.13,57.25
9985,756.67,761.42,763.07,759.59,760.19,92.29,-1019.04,283.20,63.94,84.76,64.40,47.04
10019,762.37,761.48,763.11,759.72,761.67,-93.75,-756.84,609.86,115.53,24.76,47.34,26.22
10053,767.40,762.12,764.30,759.75,763.39,-570.80,-2000.00,835.94,-84.78,21.50,40.73,32.93
10087,771.12,762.40,768.28,760.33,765.53,50.78,-821.78,929.20,-33.75,-12.77,0.98,108.55
10121,771.87,763.11,774.47,761.21,767.67,60.06,-901.37,382.32,-6.56,-2.30,3.85,241.48
10157,773.31,763.92,779.62,762.14,769.75,135.25,-955.57,384.77,3.85,0.36,1.31,344.69
10193,776.57,764.85,783.66,763.33,772.10,150.39,-923.83,362.79,4.95,-5.82,3.62,409.11
10227,782.01,765.60,785.98,764.36,774.49,111.33,-952.64,376.46,5.39,-2.77,-0.84,427.21
10261,789.97,766.34,787.24,765.22,777.19,146.00,-932.13,377.44,9.88,0.22,0.06,412.74
10295,798.43,767.08,788.76,766.29,780.14,120.12,-929.20,400.88,12.69,0.20,-0.39,399.76
10330,804.85,767.81,790.01,767.13,782.45,130.37,-919.92,401.86,5.75,-0.69,-0.46,390.72
10364,808.04,768.32,790.58,767.51,783.61,135.25,-952.64,394.04,4.74,-3.73,0.18,384.21
10398,807.08,768.44,791.12,767.97,783.65,142.09,-934.08,398.93,3.56,1.42,1.70,393.39
10432,805.71,768.15,791.25,767.99,783.28,130.86,-931.64,412.11,1.31,3.31,-1.08,403.23
10466,804.73,767.83,790.75,767.77,782.77,128.42,-921.87,414.06,1.26,1.32,2.72,400.05
10500,804.66,767.51,790.03,767.31,782.38,113.77,-927.25,407.71,-0.93,0.05,0.59,391.67
10534,804.62,767.31,789.73,766.93,782.15,124.02,-906.25,398.93,-5.82,0.84,1.65,391.54
10570,806.03,767.29,789.62,766.75,782.42,123.05,-921.39,413.57,-3.54,-3.79,2.18,386.81
10604,807.83,767.36,789.47,766.44,782.77,135.25,-914.55,414.06,-6.93,-3.11,0.27,380.81
10638,809.69,767.30,789.36,766.09,783.11,122.56,-915.53,390.62,-5.46,-5.77,1.92,377.36
10673,811.32,767.39,789.35,765.84,783.48,124.51,-930.18,391.60,-7.06,-4.71,1.92,374.45
10707,812.07,767.48,789.29,765.55,783.60,118.16,-926.27,385.25,-4.43,-1.60,5.09,373.98
10741,811.68,767.35,788.99,765.24,783.32,108.89,-927.25,373.54,-8.52,-4.47,5.27,373.35
10775,810.91,767.26,788.57,764.82,782.89,125.00,-940.43,369.14,-7.06,-0.31,2.04,372.42
10809,809.10,767.02,787.99,764.47,782.15,111.82,-948.73,375.98,-5.22,2.95,0.02,371.31
10843,804.47,766.50,787.31,764.03,780.58,131.84,-938.96,349.12,-1.10,2.35,2.89,380.91
10878,793.98,765.67,786.06,763.44,777.28,144.04,-966.31,346.19,-2.74,5.79,2.77,401.12
10912,782.70,764.94,784.40,762.85,773.72,139.16,-955.57,384.77,5.05,9.69,3.26,413.00
10946,773.17,764.33,782.14,762.30,770.48,121.09,-941.41,387.70,0.95,6.79,-0.97,402.48
10982,765.33,763.99,780.11,761.99,767.85,169.43,-1045.90,373.54,-0.52,12.04,2.18,385.85
11016,759.83,763.72,779.46,762.13,766.28,132.81,-1093.75,278.81,53.55,14.47,31.78,388.70
11050,755.56,763.44,778.69,762.32,765.00,-274.41,-684.57,163.09,80.56,23.92,34.11,383.67
11084,753.58,763.14,777.05,762.06,763.96,106.45,-1347.17,317.38,-50.32,-160.24,31.56,355.87
11119,752.81,762.67,774.44,761.77,762.92,93.26,-1266.60,301.76,-12.28,-120.12,46.46,301.40
11153,752.55,762.30,771.68,761.35,761.97,78.12,-1081.54,310.06,-11.28,-137.72,46.56,242.78
11186,752.64,762.04,769.36,761.05,761.27,137.70,-923.83,334.47,2.20,-141.97,44.52,191.32
11220,752.97,762.09,768.17,761.06,761.07,297.36,-733.40,518.55,50.15,-84.17,47.24,159.74
11254,753.38,762.19,767.68,761.09,761.08,423.34,-695.80,734.37,29.12,-47.72,28.96,145.03
11288,753.39,762.28,767.95,761.22,761.21,36.62,-538.57,498.54,12.37,14.91,-6.79,148.97
11322,753.63,762.79,768.40,761.31,761.53,142.58,-897.46,463.87,-61.64,-21.40,-21.35,154.15
11357,754.91,763.70,769.55,761.62,762.44,254.88,-1416.02,528.81,-58.08,-15.83,1.92,166.37
11391,756.35,764.15,771.05,762.04,763.40,111.33,-975.59,350.10,31.98,4.35,1.76,189.12
11425,757.35,764.74,772.40,762.88,764.34,134.77,-910.16,398.44,4.59,-2.01,1.04,202.14
11459,757.01,765.18,773.07,763.48,764.69,125.00,-958.50,359.86,-11.48,-3.27,0.26,207.76
11492,755.85,765.87,773.35,764.44,764.88,135.74,-949.22,365.72,-5.95,0.07,3.27,199.03
11527,754.84,766.36,773.18,765.16,764.88,130.37,-934.08,366.21,1.82,8.81,-2.26,183.61
11561,754.03,766.99,773.59,766.09,765.18,180.18,-931.64,416.50,-8.89,9.16,0.62,178.01
11595,753.94,767.86,774.52,767.06,765.84,79.10,-881.35,385.74,-4.69,13.33,-3.30,180.15
11629,754.39,768.48,775.25,768.05,766.54,62.01,-927.73,390.14,-0.74,25.37,-5.58,177.07
11663,755.48,769.38,775.78,768.88,767.38,41.02,-939.45,287.60,8.59,20.96,-4.95,167.23
11697,756.69,770.26,776.07,769.69,768.18,139.16,-977.05,381.84,29.09,4.33,0.59,151.40
11731,757.59,770.92,776.31,770.52,768.84,116.70,-957.03,362.79,7.45,0.67,-2.89,136.75
11767,757.40,771.83,776.81,770.95,769.25,95.70,-930.18,372.07,-8.09,3.21,1.82,136.06
11802,755.97,772.77,777.71,771.89,769.58,148.44,-929.69,381.35,-9.04,2.64,3.54,142.12
11836,754.50,773.58,778.69,772.87,769.91,261.72,-890.14,435.06,-22.67,13.03,1.31,150.73
11870,753.90,774.01,779.12,773.07,770.03,215.82,-903.81,475.59,-17.34,60.69,-15.96,157.13
11904,754.40,774.25,779.14,772.56,770.09,63.48,-930.66,370.12,-3.89,83.96,-27.02,161.36
11938,758.30,774.34,778.21,771.55,770.60,-41.99,-1093.26,-61.52,1.98,50.61,-23.90,139.24
11973,768.84,772.74,775.24,769.54,771.59,166.50,-934.57,463.87,97.41,13.56,-2.63,71.23
12008,780.42,771.28,773.25,767.59,773.13,176.27,-883.79,392.09,12.59,-15.76,-3.50,22.29
12042,786.04,769.83,771.45,766.12,773.36,107.42,-946.78,372.07,-10.53,-3.07,-4.21,-8.40
12077,789.35,768.97,769.90,765.02,773.31,127.93,-954.10,366.70,-8.44,1.07,-0.75,-35.23
12111,793.05,768.71,769.27,764.49,773.88,125.49,-937.99,386.72,-2.52,3.17,-1.29,-53.89
12145,795.93,768.54,769.07,764.15,774.42,147.46,-916.99,364.75,1.77,2.34,-0.21,-62.35
12181,797.31,768.41,769.02,763.99,774.68,130.37,-932.62,397.46,-0.13,1.79,0.78,-65.00
12215,797.90,768.28,768.82,763.91,774.73,123.54,-946.29,379.88,2.00,-0.23,-2.35,-69.74
12249,798.35,768.22,768.59,763.83,774.75,131.35,-926.27,391.60,-3.10,-2.48,0.15,-75.19
12283,798.48,768.18,768.34,763.73,774.68,129.39,-937.50,364.75,0.14,1.61,1.93,-80.18
12317,798.29,768.29,768.23,763.66,774.62,136.72,-955.08,375.00,-2.07,0.05,-0.07,-82.01
12351,798.57,768.10,768.15,763.41,774.56,117.68,-935.55,388.67,0.39,1.21,1.56,-79.77
12385,798.70,768.00,767.96,763.17,774.46,129.39,-934.08,382.32,-1.95,3.69,0.14,-80.82
12420,798.56,768.10,767.86,762.98,774.37,125.98,-930.66,371.58,-1.29,-0.75,-0.43,-80.69
12454,798.09,768.17,768.01,762.80,774.27,124.02,-950.20,378.91,-2.88,-2.12,0.53,-73.40
12488,797.41,768.21,768.26,762.76,774.16,130.37,-938.96,371.09,-3.22,-4.02,1.54,-64.65
12522,797.04,768.15,768.34,762.75,774.07,117.68,-940.43,373.54,-1.54,-0.73,-0.25,-60.72
12556,796.61,768.16,768.54,762.74,774.01,117.19,-933.11,373.05,1.64,-1.94,1.28,-53.99
12592,796.38,768.15,768.60,762.75,773.97,117.68,-933.59,370.12,2.10,2.64,1.11,-51.82
12626,796.16,768.09,768.66,762.65,773.89,129.88,-943.36,385.74,0.48,2.57,-0.92,-47.54
12660,796.01,768.01,768.68,762.60,773.82,118.65,-931.64,370.12,2.74,4.47,-1.46,-45.14
12694,795.97,767.62,768.51,762.45,773.64,115.72,-932.13,382.81,1.86,2.63,-0.54,-43.97
12727,796.41,766.97,768.13,762.13,773.41,103.03,-943.85,386.72,4.57,2.58,-1.37,-45.12
12761,796.80,766.55,767.76,761.84,773.24,123.54,-898.93,399.41,6.76,5.76,-1.64,-47.99
12795,796.58,766.26,767.46,761.72,773.01,130.37,-938.96,387.70,3.00,3.46,-2.48,-50.75
12828,796.43,766.03,767.17,761.75,772.85,119.14,-937.50,390.62,3.69,1.81,-2.93,-55.86
12862,796.04,765.93,767.07,761.85,772.72,125.49,-930.18,388.67,1.94,3.51,2.72,-57.68
12896,795.72,765.91,767.13,761.71,772.61,123.05,-945.80,368.65,3.69,1.40,0.44,-52.97
12930,795.52,766.01,767.18,761.78,772.62,127.44,-921.39,381.84,0.72,1.40,1.21,-52.70
12965,794.63,766.11,767.43,761.87,772.51,138.18,-941.89,394.04,0.35,0.52,0.56,-45.60
13050,789.70,767.03,768.68,762.44,771.96,125.98,-932.62,393.55,-5.79,2.19,1.89,-13.55
13086,788.04,767.35,769.52,762.97,771.97,114.26,-933.59,364.75,-7.22,-1.05,0.63,2.78
13147,786.98,767.64,770.11,763.35,772.02,122.07,-938.48,366.70,-6.49,1.20,2.28,13.40
13205,787.02,767.96,770.41,763.42,772.20,121.09,-951.66,376.46,-4.53,-3.50,0.59,17.03
13248,787.35,768.27,770.51,763.45,772.40,115.23,-950.68,349.61,-3.66,-1.59,-0.60,15.41
13282,787.46,768.62,770.51,763.55,772.54,126.46,-937.99,356.93,-2.27,-1.68,-0.19,10.84
13316,787.42,768.90,770.72,763.72,772.69,137.21,-962.89,345.70,-0.39,-1.41,-0.05,11.50
13352,786.92,769.25,770.85,763.90,772.73,124.51,-951.17,355.47,0.39,2.36,1.22,10.86
13386,786.68,769.44,770.98,764.06,772.79,116.70,-937.50,369.14,-0.05,1.25,0.59,11.09
13420,786.16,769.53,771.18,764.21,772.77,123.54,-942.87,354.98,2.03,2.50,0.27,15.04
13454,785.60,769.53,771.32,764.40,772.71,114.75,-943.85,354.00,2.62,1.95,-2.94,17.45
13488,785.70,769.64,771.40,764.51,772.81,106.93,-937.01,356.93,0.08,2.15,-2.79,16.76
13522,786.36,769.64,771.49,764.55,773.01,122.07,-935.06,365.23,-0.04,-1.02,-1.56,16.10
13556,787.26,769.75,771.43,764.53,773.24,106.45,-934.08,352.54,-0.17,-0.89,-0.18,10.93
13591,787.62,769.68,771.46,764.54,773.32,127.44,-936.52,354.49,1.53,-0.73,0.47,10.78
13625,787.24,769.66,771.36,764.48,773.19,125.98,-942.38,363.77,0.60,0.04,0.91,10.75
13659,786.85,769.65,771.37,764.40,773.07,114.75,-946.29,354.49,-1.15,0.80,1.79,13.62
13693,786.74,769.59,771.40,764.33,773.01,134.28,-937.99,354.98,-0.74,1.18,-1.15,16.26
13727,786.69,769.71,771.40,764.40,773.05,122.07,-941.41,368.65,0.69,1.66,0.88,14.26
13763,786.64,769.83,771.45,764.39,773.08,114.75,-950.20,350.59,-0.40,1.66,1.15,15.04
13797,786.40,769.86,771.45,764.50,773.05,108.89,-937.50,359.86,0.09,0.24,2.30,13.82
13831,786.10,769.96,771.54,764.57,773.05,125.00,-933.59,359.86,0.50,1.59,-0.49,15.36
13865,785.63,770.13,771.68,764.64,773.02,125.00,-937.99,354.98,0.32,2.63,3.66,17.98
13899,785.03,770.24,771.67,764.76,772.92,118.16,-945.80,369.63,-2.69,2.02,-0.57,17.36
13934,784.58,770.31,771.78,764.81,772.87,120.61,-936.52,353.03,-0.95,1.01,2.98,20.26
13969,784.10,770.35,771.83,764.86,772.79,115.72,-946.29,357.42,-0.31,0.91,2.82,22.07
14004,783.56,770.51,771.98,764.97,772.76,116.70,-958.98,359.86,-0.21,-0.29,1.81,24.80
14038,783.14,770.67,772.04,765.12,772.74,116.21,-937.50,349.61,-1.26,1.56,1.70,24.18
14072,782.84,770.69,772.09,765.04,772.67,115.23,-944.82,353.52,-1.87,1.83,0.74,27.46
14106,782.65,770.71,772.17,765.19,772.68,127.44,-944.82,348.63,0.37,0.94,-0.20,27.76
14140,782.51,770.84,772.31,765.26,772.73,108.40,-934.57,358.89,-0.60,1.52,1.69,29.69
14176,782.49,770.85,772.30,765.24,772.72,126.95,-950.20,353.03,-0.21,-0.37,0.34,29.58
14210,782.10,770.82,772.32,765.27,772.63,126.46,-937.99,354.00,1.49,2.18,-0.56,31.16
14244,781.49,770.72,772.32,765.24,772.44,117.68,-962.40,355.47,2.50,1.68,1.53,34.63
14278,781.34,770.66,772.36,765.25,772.40,113.28,-954.59,368.65,0.17,2.77,-1.31,36.49
14312,781.85,770.70,772.39,765.24,772.54,105.47,-939.45,356.93,0.36,-0.64,-0.91,35.20
14347,782.57,770.66,772.41,765.34,772.75,108.40,-936.52,359.37,0.91,1.08,-0.27,32.14
14381,782.66,770.79,772.43,765.34,772.81,118.16,-946.78,361.33,-0.91,0.24,-1.94,31.22
14414,782.33,770.78,772.41,765.25,772.69,111.33,-956.54,359.86,-2.28,2.82,2.85,33.44
14448,781.76,770.73,772.48,765.29,772.57,126.46,-946.29,352.05,2.02,2.49,0.15,36.73
14482,781.31,770.73,772.53,765.31,772.47,120.12,-960.94,341.31,0.54,2.04,-0.05,39.48
14515,781.20,770.75,772.56,765.35,772.46,107.42,-936.04,364.26,0.34,2.08,-1.63,39.80
14549,781.28,770.79,772.50,765.41,772.50,112.30,-935.06,358.40,1.62,2.44,-0.94,36.90
14584,781.45,770.81,772.62,765.35,772.56,130.86,-941.41,355.96,-1.27,2.02,-0.21,39.98
14618,781.46,770.74,772.54,765.32,772.51,116.70,-944.82,355.96,-0.60,-1.02,-0.84,38.89
14652,781.37,770.76,772.55,765.32,772.50,108.40,-944.82,354.49,2.10,1.81,-1.66,39.39
14686,781.38,770.70,772.57,765.41,772.51,115.72,-951.17,352.05,-0.30,1.27,-0.78,38.82
14720,781.37,770.60,772.52,765.36,772.46,115.23,-934.57,358.89,1.76,3.33,-0.69,39.19
14753,781.48,770.62,772.52,765.43,772.51,127.44,-948.24,349.61,0.95,-0.58,1.29,37.63
14787,781.75,770.55,772.55,765.45,772.58,114.75,-951.66,346.19,-1.00,2.21,0.67,37.75
14821,782.01,770.62,772.46,765.54,772.66,116.21,-948.24,372.56,0.92,0.42,1.11,32.70
14858,782.16,770.59,772.49,765.35,772.65,109.86,-937.50,368.16,0.90,1.83,-0.31,36.10
14893,782.23,770.56,772.46,765.39,772.66,112.79,-946.78,354.00,0.37,-0.80,0.38,34.60
14927,782.16,770.52,772.45,765.36,772.62,125.49,-945.31,364.75,0.52,0.15,-0.90,35.63
14962,782.08,770.45,772.38,765.29,772.55,115.23,-944.82,366.21,-1.46,2.15,-1.26,35.39
14997,782.11,770.35,772.33,765.25,772.51,132.81,-951.66,351.56,1.51,-0.13,-1.52,35.69
15031,782.42,770.31,772.34,765.19,772.56,114.26,-954.59,354.00,-0.34,0.19,0.06,35.89
15065,782.64,770.28,772.32,765.16,772.60,128.91,-947.75,351.07,-0.20,1.97,2.53,35.37
15099,782.82,770.34,772.31,765.11,772.64,123.05,-932.62,350.59,-0.14,1.74,0.60,34.66
15133,782.95,770.28,772.23,765.13,772.65,109.37,-941.89,357.91,3.60,0.55,-0.07,32.55
15167,783.06,770.28,772.25,765.10,772.67,126.46,-944.34,343.75,0.13,2.53,-2.63,33.24
15201,783.30,770.15,772.21,765.01,772.66,121.09,-949.71,352.54,1.51,2.93,3.05,33.62
15236,783.66,770.02,772.18,764.87,772.68,107.91,-949.71,364.75,2.15,1.53,0.09,34.83
15270,783.98,770.01,772.02,764.82,772.71,118.65,-940.43,358.89,0.08,0.18,-0.53,30.56
15304,784.11,769.84,771.88,764.75,772.65,130.86,-936.04,356.93,0.53,1.44,1.10,29.06
15338,784.34,769.80,771.77,764.65,772.64,124.02,-935.55,352.54,0.89,2.95,-1.20,27.20
15374,784.49,769.69,771.81,764.54,772.63,117.19,-928.22,361.82,-1.08,1.25,0.12,30.12
15408,784.69,769.67,771.73,764.58,772.67,122.56,-943.85,343.26,0.69,2.01,0.18,27.05
15442,784.72,769.63,771.77,764.53,772.66,104.00,-946.78,365.72,2.35,1.69,1.70,29.04
15477,785.06,769.62,771.77,764.55,772.75,112.79,-938.48,357.42,-0.84,0.89,-1.18,27.75
15511,785.17,769.65,771.73,764.53,772.77,115.23,-931.64,369.14,2.31,2.60,-0.81,26.22
15545,785.30,769.59,771.67,764.55,772.78,123.05,-941.41,358.89,-1.63,0.37,2.90,24.69
15579,785.36,769.66,771.66,764.51,772.80,129.39,-928.71,354.49,0.76,1.56,3.82,24.08
15613,785.38,769.62,771.71,764.45,772.79,115.23,-943.85,359.37,2.29,1.26,2.55,26.48
15647,785.26,769.67,771.65,764.44,772.75,125.00,-941.41,351.56,-0.73,4.52,0.23,25.18
15681,785.18,769.61,771.65,764.43,772.72,120.12,-938.96,355.47,2.15,2.53,-1.02,26.00
15716,785.24,769.69,771.71,764.50,772.79,111.33,-933.11,362.79,-0.64,-1.14,-1.64,25.86
15750,785.20,769.63,771.68,764.53,772.76,122.07,-937.50,356.45,0.14,1.34,-1.13,25.09
15787,785.20,769.63,771.64,764.56,772.76,120.12,-944.34,354.49,-1.59,0.60,0.59,23.81
15821,785.13,769.62,771.68,764.55,772.75,116.21,-957.03,367.68,0.02,-0.87,0.04,25.24
15855,785.03,769.55,771.71,764.54,772.71,117.68,-947.27,357.42,-0.81,0.19,-0.57,27.12
15890,784.88,769.66,771.82,764.54,772.73,123.54,-950.68,359.86,0.87,0.63,-0.27,29.22
15924,784.81,769.64,771.78,764.64,772.72,120.61,-930.66,352.05,-1.21,1.95,-0.07,27.34
15958,784.73,769.71,771.87,764.60,772.72,120.61,-942.38,360.35,-1.53,-0.16,1.27,29.85
15992,784.72,769.71,771.79,764.62,772.71,107.42,-937.50,354.49,-1.27,0.94,-1.47,27.48
16026,784.67,769.79,771.82,764.73,772.75,124.51,-944.82,353.03,-0.27,3.31,1.06,26.33
16060,784.62,769.84,771.92,764.73,772.78,116.21,-949.71,362.79,-0.30,1.08,-0.09,28.58
16093,784.43,769.85,771.89,764.65,772.71,123.05,-928.22,350.59,0.63,-0.85,0.40,29.65
16127,784.29,769.84,771.98,764.77,772.72,125.00,-947.27,341.80,0.71,2.05,0.79,30.51
16160,784.28,769.89,771.92,764.77,772.72,124.51,-934.08,352.54,1.10,1.57,0.69,28.57
16196,784.24,769.99,772.00,764.82,772.76,125.98,-952.64,359.37,0.43,0.03,-0.62,29.14
16229,784.30,770.04,772.01,764.83,772.79,111.82,-936.52,355.96,1.80,0.34,1.95,28.85
16264,784.28,769.96,772.06,764.93,772.81,118.16,-952.15,363.77,1.34,1.02,0.76,29.34
16298,784.16,769.99,772.05,764.97,772.79,136.23,-942.38,354.00,-1.40,0.77,-1.64,28.79
16331,784.15,770.04,772.00,764.85,772.76,118.16,-954.59,350.10,-0.34,1.85,1.58,28.82
16365,784.15,769.99,772.11,764.89,772.78,118.16,-956.05,358.89,2.00,1.00,-0.80,31.19
16399,784.26,770.06,772.06,764.90,772.82,126.46,-955.08,355.96,0.26,0.79,-0.65,28.98
16433,784.34,770.14,772.07,764.89,772.86,118.16,-931.15,356.45,-1.39,1.15,-0.31,28.60
16467,784.40,770.13,772.05,764.85,772.86,117.68,-929.69,369.63,-0.63,1.02,0.12,28.41
16501,784.29,770.13,772.07,764.88,772.84,113.77,-944.34,376.46,0.27,2.79,-0.44,29.02
16535,784.20,770.10,772.01,764.74,772.76,126.46,-937.50,366.70,1.26,3.53,0.11,29.84
16569,784.05,770.09,771.90,764.78,772.70,125.49,-949.22,362.79,1.03,2.40,-0.27,27.11
16605,784.02,770.06,771.97,764.76,772.70,108.40,-943.36,350.10,0.11,4.46,2.98,29.54
16639,784.03,770.16,771.89,764.85,772.73,126.95,-938.96,357.42,1.79,4.10,2.35,25.39
16673,783.98,770.16,772.05,764.88,772.77,113.77,-938.48,350.59,-0.05,-0.10,0.03,29.18
16709,783.88,770.11,772.02,764.88,772.72,119.14,-940.43,365.72,0.63,1.34,0.11,29.10
16743,783.88,770.10,772.00,764.91,772.72,113.28,-942.87,362.79,0.43,1.67,0.73,28.21
16777,783.95,770.09,771.96,764.86,772.71,101.07,-940.43,363.28,0.89,2.40,1.34,27.86
16811,783.95,770.17,771.92,764.78,772.70,139.65,-950.68,359.86,1.46,0.21,0.44,27.29
16845,784.04,770.08,771.94,764.75,772.70,118.65,-937.99,354.98,1.68,-1.34,0.81,28.63
16880,783.82,770.09,771.98,764.79,772.67,115.72,-937.99,353.03,1.18,1.39,0.66,29.86
16914,783.67,770.12,771.89,764.84,772.63,129.39,-956.05,355.47,-0.47,1.34,-0.24,27.23
16948,783.44,770.19,771.88,764.82,772.58,132.81,-946.29,355.47,-1.73,2.24,1.30,27.30
16982,783.09,770.21,771.91,764.88,772.52,117.68,-933.11,352.05,-0.79,-1.28,-1.42,28.37
17018,782.93,770.20,771.96,764.85,772.48,132.81,-945.80,364.26,1.41,2.10,0.89,30.60
17052,782.90,770.25,772.03,765.01,772.55,128.42,-939.94,361.82,2.11,1.37,2.26,29.86
17086,783.06,770.34,772.04,764.98,772.61,126.95,-933.59,357.91,-1.05,3.80,-3.27,29.19
17120,783.12,770.41,772.16,765.11,772.70,122.07,-948.24,356.45,-0.52,1.95,0.24,29.43
17154,783.24,770.43,772.22,765.19,772.77,119.14,-951.66,364.26,-0.73,0.59,-1.60,29.18
17188,783.11,770.40,772.18,765.18,772.72,129.39,-943.85,352.54,0.89,0.22,3.21,29.01
17223,782.89,770.49,772.26,765.25,772.72,104.00,-954.10,356.45,1.57,1.65,-0.01,30.06
17257,782.90,770.49,772.24,765.19,772.70,109.37,-950.68,355.96,0.11,2.69,-1.08,30.51
17291,783.07,770.55,772.25,765.17,772.76,109.86,-945.31,363.77,-0.37,0.81,-0.38,29.94
17325,783.36,770.55,772.22,765.24,772.84,127.93,-948.73,362.79,0.31,0.08,4.18,27.09
17359,783.62,770.65,772.19,765.20,772.92,111.82,-935.55,342.29,1.40,2.11,-0.63,25.10
17393,783.68,770.70,772.18,765.20,772.94,127.93,-957.52,352.05,-1.66,3.24,2.85,24.39
17429,783.61,770.70,772.18,765.12,772.90,123.05,-948.73,352.54,-0.84,1.53,0.81,25.79
17463,783.76,770.73,772.25,765.22,772.99,132.32,-945.80,352.54,1.82,-0.53,0.91,25.37
17498,783.92,770.78,772.22,765.22,773.03,103.03,-932.62,352.05,0.37,2.49,-0.07,23.52
17532,784.10,770.81,772.32,765.19,773.11,112.30,-951.66,351.07,1.25,1.59,1.07,25.70
17566,784.14,770.93,772.34,765.23,773.16,118.65,-950.20,363.28,-0.02,1.73,1.88,24.46
17600,783.96,770.88,772.40,765.31,773.14,117.68,-942.38,365.72,0.83,0.85,-0.22,25.96
17636,783.80,770.96,772.41,765.32,773.13,107.42,-939.45,354.00,0.12,-0.66,-0.74,25.94
17670,783.78,771.05,772.43,765.38,773.16,128.42,-944.82,355.47,0.41,2.66,2.29,24.86
17703,783.98,771.22,772.54,765.44,773.30,128.91,-946.78,362.79,-0.85,2.70,0.95,24.70
17737,783.65,771.25,772.50,765.47,773.22,111.82,-950.68,363.28,1.20,1.30,-0.32,23.99
17771,783.54,771.20,772.53,765.44,773.18,108.40,-942.87,361.33,-1.39,2.13,0.49,26.13
17804,783.56,771.20,772.60,765.50,773.21,115.23,-954.59,350.59,-0.21,1.44,0.75,26.91
17839,783.53,771.29,772.64,765.53,773.25,131.35,-943.36,357.42,0.78,0.20,-0.95,26.72
17873,783.47,771.31,772.61,765.68,773.27,102.54,-932.62,358.89,1.46,1.47,-0.31,23.94
17907,783.42,771.43,772.68,765.61,773.28,111.82,-947.75,367.19,-1.03,1.07,1.79,25.80
17941,783.39,771.46,772.76,765.60,773.30,122.07,-945.31,364.75,-2.53,3.06,-1.47,27.76
17975,783.33,771.44,772.81,765.62,773.30,112.30,-939.94,359.37,0.24,1.01,1.52,29.09
18009,783.32,771.46,772.79,765.67,773.31,113.28,-955.57,365.72,-1.19,0.04,0.31,27.81
18043,783.38,771.46,772.80,765.63,773.32,107.91,-943.36,364.26,3.22,2.37,1.47,28.44
18076,783.36,771.44,772.74,765.67,773.30,126.46,-926.76,356.93,0.82,1.87,1.31,26.64
18110,783.42,771.54,772.65,765.59,773.30,136.23,-953.61,348.63,1.79,0.43,0.21,24.63
18144,783.46,771.45,772.73,765.65,773.32,112.30,-944.34,362.30,-0.25,3.50,-1.70,26.25
18179,783.51,771.55,772.72,765.59,773.34,111.82,-933.11,356.93,0.67,0.89,1.16,25.78
18214,783.57,771.47,772.71,765.61,773.34,117.19,-952.15,349.12,-0.08,3.48,1.15,25.92
18248,783.63,771.40,772.72,765.59,773.33,125.00,-948.24,353.52,1.57,0.68,0.51,26.76
18283,783.77,771.46,772.67,765.63,773.38,128.91,-938.48,363.77,2.28,2.31,-1.03,23.87
18317,783.85,771.37,772.67,765.59,773.37,128.91,-947.75,360.35,-0.79,-0.27,1.85,24.89
18351,784.00,771.35,772.71,765.60,773.41,120.61,-940.92,356.45,-0.87,1.82,2.01,25.55
18385,784.01,771.37,772.75,765.59,773.43,117.19,-939.45,368.65,0.76,1.94,0.95,26.29
18419,784.04,771.31,772.65,765.55,773.39,115.23,-944.82,351.56,0.10,0.80,2.37,24.82
18453,784.00,771.19,772.67,765.53,773.35,130.37,-936.04,371.09,0.81,2.29,1.40,26.79
18487,784.00,771.22,772.61,765.49,773.33,125.49,-943.36,364.26,1.51,1.37,-2.12,25.63
18522,783.95,771.14,772.57,765.52,773.30,118.65,-949.71,364.75,0.13,1.76,0.41,24.76
18557,783.92,771.07,772.57,765.56,773.28,116.21,-945.31,353.52,-0.28,2.79,0.41,25.01
18591,783.81,771.07,772.59,765.44,773.23,122.56,-952.64,354.00,1.05,0.92,-1.52,27.43
18627,783.76,771.06,772.55,765.48,773.21,120.61,-945.80,356.45,-0.43,1.00,-0.32,26.28
18661,783.80,771.02,772.56,765.47,773.21,117.19,-940.92,364.75,1.16,-0.08,2.98,26.95
18695,783.75,771.01,772.51,765.45,773.18,113.28,-940.92,353.03,-0.27,2.25,1.92,26.20
18730,783.76,770.96,772.49,765.46,773.17,119.14,-938.48,358.89,1.76,2.57,-0.05,25.87
18764,783.83,770.95,772.49,765.42,773.17,122.56,-950.20,354.98,0.21,1.45,-0.13,26.47
18798,783.87,770.93,772.45,765.36,773.15,134.28,-948.24,360.35,0.24,0.24,3.66,26.16
18832,783.98,770.89,772.46,765.34,773.17,115.72,-937.01,349.61,-1.21,-1.65,-1.67,26.76
18866,784.05,770.83,772.42,765.35,773.16,120.12,-953.12,367.19,-0.02,1.24,1.38,25.86
18900,783.99,770.83,772.46,765.31,773.15,126.46,-939.45,354.49,-0.21,2.95,1.43,27.65
18934,783.84,770.75,772.37,765.34,773.07,114.26,-948.73,352.05,0.82,0.58,0.54,26.06
18969,783.74,770.74,772.40,765.37,773.06,123.54,-940.92,350.59,0.09,0.93,2.64,26.96
19003,783.83,770.78,772.45,765.34,773.10,128.42,-929.69,354.98,-0.79,-0.13,0.20,27.94
19038,783.84,770.88,772.43,765.32,773.12,125.00,-937.99,357.91,3.67,2.12,-0.85,26.99
19073,783.81,770.80,772.47,765.37,773.11,113.28,-945.31,351.07,1.36,0.98,1.23,27.88
19107,783.65,770.90,772.53,765.49,773.14,112.30,-938.96,362.79,-1.01,1.40,0.99,27.46
19141,783.48,770.91,772.54,765.51,773.11,145.02,-948.24,355.47,0.05,-0.35,-1.70,27.64
19175,783.38,771.07,772.51,765.51,773.12,120.12,-940.92,357.42,1.20,2.40,-1.67,26.20
19209,783.55,771.08,772.62,765.67,773.23,119.14,-939.94,372.07,2.73,2.34,2.39,25.83
19243,783.44,771.11,772.61,765.70,773.22,125.98,-954.10,357.42,-0.55,3.35,0.47,25.30
19277,783.40,771.21,772.74,765.72,773.27,131.35,-946.78,364.75,-2.74,1.96,0.89,27.68
19311,783.31,771.24,772.77,765.81,773.28,114.75,-950.20,349.61,-0.34,3.96,-0.94,26.91
19345,783.21,771.34,772.79,765.82,773.29,119.14,-952.64,354.49,1.07,2.19,-2.22,26.78
19378,783.17,771.37,772.80,765.84,773.30,107.42,-951.17,355.96,-1.50,1.10,0.69,26.81
19412,783.13,771.36,772.88,765.99,773.34,111.33,-932.13,353.03,0.60,1.27,1.69,26.79
19447,783.01,771.41,772.89,765.98,773.33,125.49,-962.89,364.26,-0.40,2.66,0.34,27.26
19482,782.91,771.42,772.99,766.07,773.35,112.30,-926.76,359.86,0.45,0.82,-0.57,28.65
19516,782.85,771.46,772.93,766.07,773.33,116.70,-952.15,355.47,0.59,1.02,-1.35,27.00
19550,782.95,771.43,772.88,766.04,773.33,128.91,-953.61,358.40,-2.05,3.91,1.12,26.22
19584,783.02,771.25,772.95,766.02,773.31,138.67,-951.66,366.21,0.85,0.30,0.44,29.45
19618,783.06,771.24,772.88,765.86,773.26,123.05,-940.92,340.33,2.18,1.39,-0.62,29.87
19652,783.18,771.14,772.75,765.85,773.23,125.00,-930.66,354.00,0.73,0.08,0.42,27.27
19686,783.48,771.10,772.72,765.77,773.27,119.63,-945.80,363.28,0.05,1.47,-0.29,26.96
19719,784.03,770.91,772.64,765.62,773.30,112.30,-947.27,360.84,-0.17,0.38,-0.16,26.88
19754,784.80,770.74,772.53,765.44,773.38,134.28,-943.36,350.59,-1.32,0.65,-1.79,25.39
19788,785.57,770.49,772.37,765.33,773.44,124.51,-934.08,358.40,-0.98,2.28,-1.59,22.48
19822,786.10,770.25,772.31,765.13,773.45,120.12,-948.73,362.79,-0.82,3.11,-1.63,23.85
19858,786.51,770.02,772.05,764.99,773.39,113.77,-935.06,355.47,1.77,-1.30,-0.48,20.09
19892,786.74,769.87,771.94,764.89,773.36,118.16,-938.48,354.49,0.34,0.24,-0.63,19.09
19926,786.80,769.57,771.84,764.74,773.24,125.49,-936.04,357.42,1.85,1.27,0.02,20.94
19960,786.85,769.49,771.66,764.60,773.15,130.86,-943.85,361.33,-0.12,2.73,2.31,19.25
19994,787.09,769.27,771.45,764.41,773.06,114.26,-938.48,350.10,1.56,0.75,-1.82,17.66
20028,787.35,769.13,771.18,764.42,773.02,131.35,-938.96,363.28,-0.70,1.64,-3.07,10.86
20063,787.68,768.98,770.88,764.40,772.99,132.32,-934.57,351.07,-3.31,-0.78,-0.37,3.81
20097,788.08,768.97,770.72,764.38,773.04,131.35,-922.85,358.40,0.31,3.11,0.71,-1.10
20131,788.22,768.90,770.50,764.46,773.02,140.62,-956.54,347.66,-0.15,1.88,1.94,-7.68
20165,788.21,768.97,770.18,764.59,772.99,125.98,-937.50,362.30,-0.78,1.95,-0.85,-18.04
20199,788.09,768.92,769.93,764.69,772.91,136.72,-949.71,358.40,-0.29,2.56,-0.71,-25.11
20233,787.96,768.92,769.63,764.73,772.81,122.07,-947.27,360.84,-0.19,4.13,-1.81,-32.62
20269,787.83,769.00,769.66,764.73,772.80,126.95,-950.20,364.26,0.54,0.49,2.17,-32.19
20303,787.83,768.94,769.84,764.77,772.85,127.93,-946.29,368.65,0.51,0.84,1.18,-27.71
20337,787.81,768.91,770.00,764.70,772.86,125.49,-938.96,351.56,3.13,-0.91,-1.07,-22.31
20373,787.60,769.01,770.40,764.46,772.87,125.00,-950.20,361.33,2.16,-0.29,1.63,-8.92
20407,787.17,769.00,770.67,764.46,772.82,126.95,-940.43,354.98,2.48,0.53,-0.64,-0.73
20442,786.86,769.04,770.87,764.45,772.81,121.58,-938.96,357.42,0.79,0.81,0.55,5.31
20476,786.47,769.18,770.92,764.55,772.78,118.65,-937.50,358.89,-0.25,0.51,0.76,5.27
20510,786.21,769.31,770.96,764.57,772.76,128.91,-934.57,363.28,0.55,-1.50,2.65,5.78
20544,785.95,769.38,771.12,764.59,772.76,120.61,-950.20,360.35,1.66,0.34,3.28,9.82
20578,785.56,769.54,771.25,764.73,772.77,112.30,-951.66,352.54,1.85,-0.16,-0.31,10.96
20612,785.34,769.72,771.32,764.83,772.80,128.91,-934.57,366.21,0.82,2.31,-0.17,10.67
20646,785.21,769.86,771.46,764.96,772.87,118.16,-955.08,355.47,-0.99,-0.92,-1.47,11.42
20682,785.04,769.90,771.56,765.03,772.88,118.65,-939.94,354.49,-0.23,1.24,2.64,13.17
20716,784.85,770.03,771.70,765.10,772.92,116.70,-958.98,359.37,-0.19,3.65,3.13,15.21
20751,784.57,770.20,771.81,765.19,772.94,125.00,-951.17,358.40,0.28,1.95,0.25,16.35
20785,784.35,770.26,771.83,765.30,772.94,126.95,-948.73,367.68,2.19,1.90,0.40,15.56
20819,784.13,770.29,771.92,765.34,772.92,107.42,-942.38,349.12,-0.01,2.14,0.08,17.45
20853,784.09,770.31,771.89,765.44,772.93,123.05,-943.36,354.98,-0.01,4.89,-2.77,15.30
20887,784.03,770.35,771.99,765.41,772.94,116.21,-951.66,355.47,-0.31,0.08,-2.86,18.15
20921,784.11,770.28,771.95,765.48,772.96,105.96,-943.36,362.79,0.81,-0.14,-0.89,16.55
20955,784.14,770.29,771.99,765.50,772.98,111.33,-944.34,354.00,1.60,0.88,0.50,17.00
20988,784.22,770.29,772.01,765.39,772.98,122.07,-940.92,367.19,0.54,0.31,-1.73,18.81
21022,784.39,770.20,772.00,765.39,772.99,114.75,-957.03,375.98,0.08,0.52,2.85,18.62
21056,784.44,770.09,771.91,765.38,772.96,119.14,-940.92,365.23,2.24,-0.11,0.18,17.36
21091,784.74,770.12,771.96,765.29,773.03,125.00,-949.71,358.40,1.66,4.62,-0.99,18.59
21125,785.03,770.07,771.88,765.25,773.06,121.58,-937.99,364.75,2.11,1.08,-1.46,16.84
21159,785.31,770.04,771.77,765.15,773.07,130.86,-950.20,353.52,-0.42,1.03,-1.47,14.74
21193,785.63,769.96,771.74,765.14,773.12,140.14,-950.20,364.26,0.91,3.27,-0.85,13.51
21226,786.05,769.94,771.65,765.07,773.18,106.93,-953.12,357.42,-0.08,2.56,-1.37,10.99
21260,786.35,769.83,771.61,764.98,773.19,116.21,-952.64,368.16,0.85,0.27,1.95,11.17
21294,786.63,769.78,771.72,764.98,773.28,115.23,-954.10,360.84,-0.44,3.96,1.07,13.58
21329,786.80,769.68,771.57,764.94,773.25,112.30,-944.82,365.23,-0.76,1.85,3.35,10.50
21363,786.94,769.63,771.62,764.92,773.28,127.44,-943.85,360.35,-0.71,1.85,1.61,12.10
21397,787.14,769.65,771.52,764.80,773.28,119.14,-938.96,358.40,0.79,1.58,0.53,10.31
21432,787.29,769.56,771.42,764.75,773.26,123.54,-941.41,360.84,-0.80,0.51,0.82,8.75
21467,787.31,769.53,771.45,764.79,773.27,120.12,-947.27,353.52,1.99,3.90,-0.10,9.27
21501,787.27,769.45,771.36,764.76,773.21,125.49,-948.24,355.47,1.20,1.89,1.34,8.03
21536,787.38,769.46,771.45,764.68,773.24,123.05,-941.89,342.29,-1.27,0.94,-1.06,11.14
21570,787.52,769.36,771.42,764.65,773.24,124.51,-935.55,362.30,1.58,-0.67,0.57,11.30
21604,787.47,769.41,771.35,764.62,773.21,124.02,-941.89,352.05,0.35,1.58,1.46,9.71
21638,787.42,769.39,771.35,764.56,773.18,131.84,-950.20,351.07,-0.57,0.95,3.03,10.75
21672,787.48,769.35,771.35,764.63,773.20,125.98,-930.18,364.26,0.29,2.59,0.25,9.85
21706,787.51,769.40,771.35,764.55,773.20,126.46,-937.50,352.05,0.99,2.97,-2.40,10.71
21740,787.34,769.47,771.31,764.58,773.18,130.37,-947.75,365.23,1.40,2.95,-1.92,9.14
21775,787.27,769.38,771.36,764.58,773.15,117.68,-951.66,360.84,0.51,2.56,-0.60,11.41
21809,787.29,769.36,771.33,764.62,773.15,120.61,-941.89,374.02,0.93,2.83,0.20,10.06
21843,787.27,769.37,771.36,764.64,773.16,127.93,-944.34,357.42,1.44,0.48,0.77,10.55
21879,787.32,769.44,771.31,764.61,773.17,123.05,-948.73,358.89,-0.57,2.27,-1.98,8.91
21913,787.31,769.34,771.33,764.65,773.15,115.23,-948.73,349.61,-2.18,2.11,-0.28,9.75
21947,787.30,769.33,771.32,764.62,773.14,120.61,-956.54,348.63,-1.68,-0.64,-0.19,10.09
21981,787.14,769.33,771.34,764.63,773.11,123.05,-943.85,354.98,-1.19,2.55,-0.87,10.96
22015,787.13,769.39,771.27,764.66,773.11,105.47,-944.34,357.42,0.43,1.12,2.96,8.28
22049,787.17,769.32,771.37,764.59,773.11,115.72,-940.92,359.86,-0.29,-0.66,-2.97,12.13
22084,787.26,769.32,771.24,764.62,773.11,118.65,-942.87,355.47,-0.01,0.98,-0.80,8.28
22118,787.36,769.24,771.22,764.60,773.10,121.09,-950.20,360.84,-1.02,1.47,-0.65,8.34
22152,787.39,769.21,771.34,764.58,773.13,126.95,-947.75,346.19,-1.60,3.40,-0.49,11.94
22186,787.38,769.17,771.23,764.56,773.09,127.93,-944.82,363.77,0.11,3.61,1.66,9.84
22220,787.36,769.17,771.29,764.56,773.09,139.65,-945.31,355.47,0.20,0.30,-1.34,11.24
22256,787.26,769.19,771.26,764.52,773.06,121.58,-948.24,356.45,0.41,-0.07,-0.59,11.29
22292,787.21,769.23,771.25,764.56,773.06,114.75,-957.52,363.77,1.09,1.58,-1.12,10.50
22326,787.15,769.22,771.36,764.54,773.07,132.81,-947.75,356.45,0.93,0.64,-1.96,13.59
22360,787.13,769.22,771.33,764.62,773.08,129.39,-941.89,365.72,0.24,2.30,0.16,11.86
22394,787.15,769.27,771.29,764.64,773.09,128.42,-953.12,354.98,0.22,0.74,1.35,10.07
22428,787.12,769.40,771.34,764.65,773.13,114.75,-948.73,351.56,0.82,1.50,1.21,10.31
22462,787.09,769.36,771.41,764.57,773.11,113.28,-944.82,358.40,-0.60,1.56,0.36,13.43
22497,787.16,769.30,771.37,764.68,773.13,126.95,-937.50,373.54,0.41,1.91,-0.62,11.04
22531,787.10,769.40,771.42,764.72,773.16,108.89,-943.85,347.17,-0.60,2.98,-0.18,11.22
22565,787.07,769.48,771.46,764.78,773.20,122.56,-954.10,368.16,2.95,0.03,-1.44,10.74
22598,786.94,769.48,771.50,764.77,773.17,123.05,-964.84,360.84,1.58,0.62,0.35,12.25
22632,786.91,769.56,771.46,764.73,773.17,125.49,-941.41,350.10,-0.81,0.63,0.56,11.43
22666,786.81,769.58,771.48,764.84,773.18,117.68,-934.08,349.61,1.81,2.38,2.05,10.61
22701,786.57,769.64,771.59,764.82,773.16,121.09,-952.64,358.40,-2.31,0.71,3.85,13.73
22734,786.49,769.66,771.68,764.94,773.19,121.09,-936.04,354.98,1.40,0.82,2.57,14.48
22768,786.32,769.73,771.68,765.04,773.19,129.39,-934.57,353.52,-1.45,1.01,0.11,12.94
22802,786.09,769.77,771.69,765.04,773.15,123.05,-935.06,352.54,-1.74,0.92,1.21,13.78
22836,785.83,769.81,771.72,765.08,773.11,123.54,-947.27,356.93,0.85,0.69,0.65,14.37
22870,785.76,769.71,771.79,765.08,773.08,113.28,-950.68,357.42,0.47,3.01,-0.83,17.18
22904,785.56,769.75,771.85,765.13,773.07,121.58,-952.64,348.63,2.92,3.31,0.83,18.38
22938,785.64,769.80,771.83,765.05,773.08,118.16,-919.43,364.75,0.26,0.94,0.97,18.40
22971,785.49,769.80,771.92,765.09,773.07,133.79,-952.15,364.75,0.13,2.67,0.82,20.67
23005,785.50,769.89,771.99,765.11,773.12,126.95,-940.92,351.07,-2.21,1.62,1.87,21.14
23039,785.54,769.76,771.91,765.06,773.07,120.12,-957.52,358.89,1.67,2.66,0.07,20.80
23073,785.39,769.84,771.88,765.19,773.07,134.28,-967.77,361.33,0.82,3.59,-0.13,18.06
23109,785.38,769.85,771.92,765.16,773.08,126.46,-917.97,363.77,-2.85,1.41,0.40,19.56
23143,785.33,769.85,771.95,765.12,773.06,124.02,-953.61,369.63,-0.71,-1.35,-2.36,20.91
23177,785.40,769.84,771.91,765.17,773.08,122.56,-944.34,364.75,1.44,0.85,-0.95,19.16
23213,785.36,769.86,771.88,765.13,773.06,125.00,-943.85,352.54,1.66,2.01,0.25,18.80
23247,785.32,769.86,772.01,765.09,773.07,123.05,-937.01,354.49,-0.67,0.38,-0.49,22.75
23281,785.40,769.82,771.98,765.07,773.07,145.51,-945.31,353.03,-0.60,1.66,-0.17,22.56
23316,785.50,769.83,771.92,765.04,773.07,115.23,-940.43,361.82,-0.27,1.18,-0.63,21.01
23350,785.66,769.90,771.89,765.00,773.11,114.26,-939.45,371.58,0.98,0.53,1.06,19.77
23384,785.74,769.87,771.89,765.04,773.13,131.84,-949.22,355.96,-0.66,0.88,1.55,19.29
23418,785.85,769.94,771.90,765.04,773.18,124.02,-950.20,352.05,0.01,3.53,0.90,18.45
23452,785.95,769.83,771.84,765.03,773.16,119.63,-935.06,368.16,-0.07,2.73,-1.47,17.66
23486,785.91,769.83,771.90,764.95,773.15,123.05,-943.36,363.28,2.15,0.90,-0.18,20.37
23522,785.99,769.87,771.84,764.98,773.17,129.39,-947.75,361.82,1.62,2.40,1.71,18.03
23556,786.17,769.88,771.89,764.94,773.22,126.46,-956.54,354.49,0.26,1.25,0.76,19.17
23590,786.30,769.87,771.91,765.01,773.27,114.26,-950.20,348.14,0.23,0.20,-1.82,18.03
23624,786.32,769.94,771.89,765.04,773.30,132.32,-952.64,357.91,-0.66,0.89,1.11,16.56
23659,786.32,769.84,771.84,764.92,773.23,114.75,-953.12,351.56,-1.05,2.65,2.38,18.00
23693,786.29,769.84,771.78,764.89,773.20,125.49,-938.48,369.63,1.46,0.37,-0.66,16.97
23727,786.40,769.77,771.74,764.77,773.17,124.02,-943.85,359.86,1.70,2.68,0.40,17.99
23761,786.41,769.82,771.78,764.82,773.21,107.91,-958.50,355.96,-0.25,2.51,-0.66,17.73
23795,786.42,769.72,771.73,764.84,773.18,121.09,-954.59,366.70,-0.52,3.77,-0.31,17.06
23829,786.33,769.74,771.71,764.66,773.11,125.98,-944.82,354.49,0.23,1.41,-0.53,19.28
23863,785.96,769.70,771.73,764.71,773.03,136.23,-941.89,367.19,-0.02,0.88,1.11,20.75
23898,785.81,769.64,771.63,764.66,772.93,131.35,-940.43,359.86,-0.19,1.42,-0.66,19.86
23934,785.74,769.63,771.66,764.64,772.92,127.93,-951.17,359.37,0.82,3.50,-1.32,21.02
23968,785.77,769.62,771.68,764.58,772.91,116.21,-948.73,370.12,-0.02,2.44,1.44,22.57
24002,785.74,769.54,771.67,764.68,772.91,125.00,-938.48,361.82,2.48,3.23,0.40,21.51
24036,785.79,769.64,771.66,764.67,772.94,111.82,-942.38,362.30,-0.49,1.43,2.66,20.54
24070,785.80,769.60,771.74,764.66,772.95,135.25,-950.68,338.38,1.94,-0.93,-0.83,22.84
24104,785.81,769.58,771.73,764.77,772.97,116.21,-951.17,347.66,-1.89,-0.81,0.21,21.14
24140,785.97,769.56,771.74,764.81,773.02,124.02,-941.41,369.14,1.45,-0.92,-0.05,20.31
24174,786.02,769.60,771.75,764.82,773.05,123.05,-938.96,354.00,0.36,0.96,0.25,20.05
24208,786.15,769.59,771.69,764.82,773.06,120.61,-945.80,365.72,-2.58,0.08,-1.28,18.09
24241,786.18,769.57,771.71,764.75,773.05,120.61,-951.66,357.42,-0.05,3.07,0.63,19.82
24275,786.27,769.62,771.63,764.79,773.08,131.84,-950.68,363.28,0.24,0.98,-2.22,16.53
24309,786.34,769.55,771.65,764.71,773.06,127.44,-946.29,349.12,1.34,-0.25,0.70,18.62
24344,786.49,769.53,771.64,764.75,773.10,125.49,-948.73,362.30,1.21,1.11,-0.11,17.34
24377,786.55,769.64,771.65,764.74,773.15,121.09,-946.29,352.54,0.59,0.30,-1.83,16.50
24412,786.61,769.64,771.63,764.78,773.16,122.07,-927.25,372.07,0.73,1.93,-0.19,15.22
24446,786.77,769.59,771.69,764.79,773.21,127.93,-952.64,367.68,-0.70,2.70,-3.18,16.43
24479,786.88,769.58,771.73,764.74,773.23,130.37,-938.96,371.09,-2.38,1.63,3.05,17.83
24513,786.93,769.60,771.73,764.80,773.27,133.79,-943.36,346.19,-0.53,-1.63,-0.61,16.69
24547,786.74,769.54,771.69,764.72,773.17,122.56,-947.27,338.87,0.79,1.42,-1.10,18.00
24581,786.57,769.59,771.64,764.77,773.14,115.23,-945.80,337.89,1.87,1.80,1.18,16.27
24615,786.46,769.52,771.68,764.72,773.09,118.16,-947.75,359.37,0.59,3.22,0.25,19.00
24649,786.51,769.52,771.64,764.65,773.08,130.86,-937.01,362.30,0.24,2.45,0.83,18.76
24683,786.73,769.40,771.58,764.65,773.09,130.37,-945.31,363.28,0.22,0.81,0.78,17.50
24719,787.01,769.45,771.61,764.61,773.17,119.63,-945.31,356.93,2.01,1.29,3.02,17.53
24753,787.08,769.36,771.56,764.64,773.16,118.16,-938.48,354.00,0.18,2.60,1.63,16.18
24787,787.22,769.34,771.48,764.56,773.15,121.09,-940.92,344.73,-0.09,2.59,0.55,15.18
24821,787.33,769.18,771.48,764.58,773.14,116.70,-945.80,355.96,0.50,0.89,-1.61,15.69
24855,787.44,769.14,771.51,764.40,773.12,125.98,-942.38,370.12,1.60,1.13,-0.60,18.89
24889,787.70,769.07,771.42,764.33,773.13,120.61,-943.85,352.05,3.25,0.31,-1.39,17.61
24924,787.75,768.99,771.33,764.34,773.11,129.88,-957.52,348.14,-0.18,3.11,-0.53,15.56
24958,787.89,768.94,771.28,764.32,773.11,125.98,-942.38,357.42,0.01,3.58,1.74,14.80
24992,787.88,769.03,771.22,764.25,773.10,128.91,-937.01,352.05,0.66,-0.51,0.30,13.51
25026,787.99,768.87,771.27,764.15,773.07,127.93,-948.73,360.84,-0.30,1.06,-0.44,17.13
25062,788.00,768.91,771.24,764.25,773.10,123.54,-950.68,361.33,0.84,2.56,1.03,14.57
25096,788.10,768.86,771.23,764.21,773.10,123.54,-932.13,357.91,-0.14,1.50,1.47,14.85
25132,787.96,768.87,771.20,764.24,773.07,116.70,-948.24,362.79,0.57,1.24,0.34,14.21
25166,787.87,768.97,771.22,764.28,773.08,127.44,-940.43,370.61,0.27,2.23,3.11,13.51
25200,787.82,769.01,771.30,764.33,773.11,127.44,-949.22,373.54,-0.08,1.73,-1.23,14.67
25234,787.70,769.00,771.32,764.37,773.10,119.14,-953.61,354.98,-0.62,2.31,0.08,14.99
25268,787.61,769.07,771.32,764.37,773.09,115.72,-936.52,347.17,3.73,1.68,-0.23,14.84
25302,787.63,769.03,771.34,764.40,773.10,124.02,-949.71,370.12,-1.13,1.80,1.79,14.86
25336,787.69,769.02,771.38,764.38,773.12,119.63,-947.27,363.77,1.58,0.98,1.66,16.23
25370,787.68,769.05,771.41,764.45,773.15,117.68,-957.03,359.37,-0.95,2.46,-1.69,15.88
25405,787.69,768.98,771.29,764.52,773.12,130.86,-940.43,355.47,1.05,0.72,-1.48,12.24
25439,787.72,768.95,771.31,764.40,773.10,119.14,-944.34,354.00,-0.21,2.71,0.11,14.70
25473,787.70,769.05,771.32,764.30,773.09,115.72,-958.01,344.73,0.34,0.95,-4.76,15.61
25507,787.77,769.01,771.28,764.28,773.08,127.93,-945.80,354.98,-0.02,4.59,2.09,15.07
25543,787.80,768.95,771.28,764.29,773.08,126.46,-946.29,359.37,1.06,1.67,2.73,15.22
25577,787.80,768.92,771.33,764.30,773.09,133.79,-939.45,345.70,1.70,0.11,-0.06,16.57
25611,787.90,768.98,771.23,764.28,773.10,142.58,-933.11,352.05,-0.15,-2.11,2.92,13.60
25645,787.84,768.95,771.30,764.36,773.11,125.00,-942.38,371.58,1.76,-0.50,-2.20,14.54
25679,787.87,769.09,771.34,764.30,773.15,127.44,-936.52,357.42,-0.21,2.66,-0.02,15.31
25714,787.73,769.03,771.31,764.37,773.11,125.98,-947.75,362.79,1.60,3.84,0.40,14.41
25748,787.73,769.07,771.35,764.41,773.14,120.12,-947.75,354.00,1.73,0.08,3.42,14.56
25782,787.63,769.03,771.31,764.37,773.08,121.09,-951.66,374.51,1.08,1.44,0.91,14.63
25816,787.63,769.07,771.29,764.40,773.10,129.88,-937.99,361.82,0.31,1.55,0.37,13.57
25850,787.62,769.04,771.30,764.37,773.08,117.68,-943.85,364.26,-0.23,0.71,-1.24,14.51
25883,787.47,769.13,771.40,764.34,773.08,118.65,-955.08,347.66,0.50,1.96,2.31,17.12
25917,787.50,769.16,771.39,764.42,773.12,125.49,-943.85,346.68,-4.02,0.92,0.95,15.43
25952,787.43,769.22,771.43,764.46,773.14,120.61,-937.01,357.91,0.08,1.18,2.11,15.48
25987,787.55,769.21,771.39,764.54,773.17,110.84,-930.18,361.33,1.18,1.98,0.08,13.18
26021,787.60,769.21,771.48,764.60,773.22,122.07,-934.08,358.40,-0.05,1.72,-1.08,14.38
26055,787.52,769.18,771.37,764.59,773.17,136.72,-939.94,363.28,-0.20,0.91,0.22,12.24
26089,787.33,769.13,771.48,764.63,773.14,118.16,-937.99,364.75,-1.31,3.53,1.61,15.40
26123,787.28,769.15,771.41,764.66,773.13,121.09,-948.73,357.42,0.02,0.63,-0.08,13.40
26157,787.19,769.11,771.49,764.63,773.11,105.96,-941.41,360.84,1.89,3.05,0.30,16.47
26190,787.20,769.20,771.46,764.59,773.11,117.68,-943.85,351.56,-1.73,0.11,0.36,15.28
26224,787.31,769.19,771.54,764.63,773.17,126.46,-938.48,362.30,0.17,1.36,-1.78,16.66
26258,787.20,769.35,771.58,764.80,773.23,125.49,-949.22,350.59,-1.27,1.29,0.73,14.12
26292,786.94,769.38,771.52,764.71,773.14,119.63,-927.73,369.63,0.83,0.68,1.34,14.55
26326,786.70,769.36,771.62,764.81,773.12,134.28,-955.08,348.14,1.79,2.39,1.92,16.62
26362,786.40,769.54,771.64,764.83,773.10,122.56,-936.04,330.08,-1.33,-0.23,-0.53,16.36
26396,786.16,769.71,771.76,764.92,773.14,128.91,-945.80,355.47,0.46,2.33,3.85,17.41
26430,785.99,769.67,771.84,764.99,773.12,124.51,-942.87,356.93,1.00,-0.39,2.27,19.24
26465,785.90,769.75,771.84,765.12,773.15,124.02,-940.92,352.54,-0.68,1.34,0.97,17.04
26499,785.76,769.78,771.92,765.12,773.15,113.77,-943.85,346.19,1.28,2.73,2.75,19.45
26533,785.54,769.79,771.98,765.16,773.12,129.39,-953.61,355.96,-0.92,0.89,-0.94,20.84
26567,785.37,769.88,771.89,765.24,773.09,104.49,-951.66,366.21,1.50,3.40,1.82,17.46
26601,785.17,769.87,771.92,765.21,773.04,126.95,-946.78,365.23,-0.77,2.79,0.95,19.40
26635,785.27,769.82,771.96,765.20,773.06,114.75,-953.12,366.21,1.19,0.52,0.65,20.34
26669,785.33,769.87,771.95,765.29,773.11,135.25,-942.87,372.07,-1.40,0.78,1.37,18.50
26704,785.49,769.92,771.90,765.28,773.15,125.49,-943.85,350.10,0.06,0.95,-0.15,16.19
26738,785.54,769.92,772.01,765.30,773.19,120.61,-942.38,359.37,-0.14,2.41,-1.23,18.48
26773,785.63,769.95,771.96,765.24,773.20,119.14,-939.94,361.82,0.18,0.35,-3.72,17.54
26808,785.66,769.94,772.00,765.30,773.22,114.75,-942.38,358.40,-0.01,-1.71,0.57,17.71
26842,785.62,769.98,772.02,765.22,773.21,125.98,-948.24,356.93,0.40,2.15,0.77,19.06
26876,785.53,770.01,771.90,765.15,773.15,113.77,-957.03,373.54,-0.60,3.00,-0.53,17.40
26912,785.50,769.99,771.94,765.07,773.12,116.70,-946.78,357.91,0.13,1.16,0.41,19.78
26946,785.53,769.97,771.92,765.10,773.13,124.02,-955.57,354.98,-2.55,1.32,-1.22,19.01
26980,785.68,769.95,772.00,765.06,773.17,113.77,-929.69,347.66,1.29,0.88,2.00,21.19
27014,785.78,769.87,771.85,765.02,773.13,117.68,-940.92,350.59,-0.29,2.33,1.11,18.27
27049,785.92,769.75,771.84,764.97,773.12,121.09,-943.36,350.10,1.69,3.44,-2.33,19.15
27083,786.04,769.74,771.75,764.94,773.12,133.30,-947.27,368.65,0.02,1.04,-0.25,17.23
27117,786.18,769.74,771.79,764.90,773.16,126.46,-960.45,353.52,1.93,1.71,1.20,18.22
27151,786.23,769.74,771.76,764.85,773.15,141.60,-955.08,362.79,1.06,0.62,0.02,18.07
27187,786.17,769.68,771.73,764.84,773.10,108.89,-957.03,333.98,-0.66,0.24,0.93,18.25
27221,786.25,769.65,771.68,764.79,773.09,127.44,-939.94,354.98,1.53,0.50,-0.52,17.53
27255,786.20,769.70,771.65,764.77,773.08,125.00,-947.75,360.84,0.06,-0.73,3.04,16.93
27289,786.23,769.63,771.69,764.70,773.06,115.23,-940.43,360.35,-1.05,0.75,-0.98,19.35
27323,786.26,769.63,771.68,764.73,773.08,125.49,-934.57,361.82,0.61,0.00,-2.73,18.48
27358,786.22,769.57,771.62,764.80,773.05,126.95,-939.45,350.10,0.70,2.22,-0.47,16.68
27392,786.33,769.56,771.63,764.82,773.09,132.32,-940.92,345.21,-0.62,0.77,-1.02,16.44
27426,786.33,769.64,771.69,764.73,773.10,129.88,-938.96,349.12,2.04,1.53,-2.76,18.49
27460,786.37,769.56,771.71,764.79,773.11,123.54,-948.24,352.05,2.02,2.47,-0.15,18.52
27494,786.46,769.59,771.65,764.78,773.12,122.56,-944.82,362.79,-0.02,2.61,0.40,16.69
27527,786.51,769.55,771.62,764.75,773.11,125.98,-946.29,354.98,0.64,2.22,1.76,16.46
27561,786.49,769.52,771.64,764.75,773.10,120.61,-943.36,352.54,-0.37,0.69,2.71,17.37
27596,786.57,769.38,771.65,764.76,773.09,116.21,-940.92,352.05,2.25,0.08,1.69,18.32
27629,786.50,769.42,771.66,764.83,773.10,112.30,-937.99,358.89,3.52,2.09,2.66,17.56
27663,786.47,769.43,771.68,764.78,773.09,127.44,-943.85,359.86,0.84,0.22,2.66,18.82
27697,786.45,769.44,771.63,764.80,773.08,131.35,-949.71,355.96,-1.24,0.65,-1.50,17.28
27731,786.41,769.43,771.67,764.71,773.06,136.72,-944.82,357.42,0.40,0.74,0.67,19.72
27765,786.51,769.41,771.65,764.73,773.07,129.39,-944.34,348.14,-0.39,0.45,1.02,18.80
27799,786.47,769.45,771.63,764.71,773.06,127.44,-945.31,359.37,-2.08,1.33,-1.82,18.31
27833,786.40,769.45,771.59,764.69,773.03,125.00,-935.06,361.33,1.60,0.77,0.32,17.87
27868,786.49,769.41,771.66,764.65,773.05,112.30,-950.20,350.59,1.24,0.94,-1.43,20.26
27902,786.41,769.45,771.63,764.67,773.04,123.54,-928.22,357.91,-0.51,0.37,-0.77,19.29
27936,786.42,769.38,771.61,764.63,773.01,121.09,-941.89,361.82,-1.68,2.05,-1.67,19.69
27972,786.46,769.41,771.63,764.68,773.04,118.65,-950.20,367.68,0.44,2.11,-0.15,19.36
28006,786.34,769.46,771.58,764.64,773.00,120.12,-946.29,356.45,-0.61,2.78,0.76,18.53
28040,786.35,769.46,771.65,764.72,773.05,124.51,-950.20,354.00,3.08,0.27,-0.87,18.94
28074,786.39,769.44,771.68,764.74,773.06,123.05,-942.87,363.77,-0.98,1.99,1.16,19.54
28108,786.40,769.47,771.64,764.70,773.05,125.00,-927.73,355.96,1.08,0.84,0.68,19.05
28142,786.41,769.50,771.62,764.69,773.05,126.95,-937.99,359.86,2.56,0.63,0.54,18.42
28177,786.31,769.48,771.70,764.62,773.03,128.91,-937.50,374.02,1.73,1.99,1.70,21.87
28211,786.35,769.45,771.64,764.67,773.03,113.28,-941.89,352.05,1.09,0.89,0.11,19.47
28245,786.32,769.47,771.63,764.70,773.03,126.95,-943.36,349.61,-0.92,0.82,0.66,18.87
28279,786.29,769.60,771.67,764.73,773.07,113.28,-937.50,351.56,1.36,2.63,1.13,18.36
28313,786.38,769.55,771.68,764.77,773.10,137.21,-944.82,359.86,1.13,-1.00,-1.64,18.34
28347,786.35,769.61,771.72,764.72,773.10,117.19,-945.31,371.58,1.90,1.56,0.76,19.69
28383,786.35,769.64,771.71,764.74,773.11,112.79,-938.96,357.91,0.70,2.56,1.47,18.89
28417,786.39,769.70,771.72,764.86,773.16,115.72,-935.06,361.82,-0.71,-0.50,-0.66,16.67
28451,786.54,769.62,771.72,764.84,773.18,137.21,-940.92,361.33,3.01,3.64,-0.07,17.22
28485,786.60,769.60,771.70,764.85,773.19,127.44,-949.71,354.00,0.00,4.63,-2.33,16.47
28520,786.67,769.51,771.67,764.86,773.18,123.54,-933.11,346.68,-1.42,3.63,-0.65,15.97
28554,786.67,769.61,771.72,764.74,773.18,134.77,-944.82,356.45,-1.99,3.21,0.36,18.36
28588,786.75,769.56,771.70,764.73,773.19,115.23,-932.62,360.35,3.68,-0.94,0.94,17.98
28622,786.65,769.54,771.73,764.76,773.17,118.16,-941.89,350.59,0.18,2.51,1.82,18.77
28656,786.73,769.59,771.66,764.75,773.18,124.02,-950.68,357.42,-0.34,2.47,1.33,16.47
28690,786.84,769.49,771.71,764.79,773.21,115.72,-945.80,365.72,2.13,-0.59,1.34,17.53
28724,786.79,769.67,771.69,764.74,773.22,123.54,-943.85,354.49,0.75,1.85,1.13,16.69
28759,786.82,769.67,771.71,764.73,773.23,123.54,-948.24,352.54,0.46,1.27,0.51,17.00
28796,786.73,769.54,771.67,764.80,773.18,126.46,-957.52,350.10,1.40,-0.78,-2.56,16.36
28830,786.69,769.55,771.69,764.72,773.16,134.28,-954.10,364.75,0.58,0.58,-0.47,18.12
28865,786.67,769.61,771.66,764.76,773.17,111.82,-943.36,359.37,2.28,1.07,-0.71,16.45
28899,786.70,769.57,771.72,764.83,773.21,121.09,-938.96,345.70,0.80,1.60,0.43,17.06
28933,786.69,769.45,771.67,764.83,773.16,119.14,-940.92,353.52,0.94,-0.20,0.28,16.92
28967,786.54,769.60,771.75,764.91,773.20,124.02,-934.57,346.19,-0.24,-1.42,-0.24,16.99
29001,786.51,769.60,771.73,764.91,773.19,133.79,-949.22,354.49,-1.67,2.66,-0.40,16.45
29035,786.54,769.49,771.73,764.88,773.16,115.72,-942.38,353.52,1.35,1.06,2.53,17.94
29069,786.63,769.56,771.62,764.75,773.14,122.07,-940.92,352.05,-0.46,-0.13,-0.20,16.12
29103,786.66,769.51,771.60,764.69,773.12,121.09,-945.31,356.45,0.18,0.17,1.07,16.81
29136,786.68,769.49,771.66,764.73,773.14,120.61,-936.04,356.45,0.17,-0.28,-1.50,17.92
29170,786.84,769.41,771.62,764.70,773.14,131.35,-947.75,344.24,-2.37,1.38,-1.46,17.35
29205,786.73,769.54,771.63,764.70,773.15,122.07,-943.36,361.33,1.19,-0.12,2.05,16.88
29239,786.81,769.48,771.66,764.71,773.17,123.05,-946.78,361.82,0.13,1.74,-0.98,17.58
29272,786.83,769.55,771.60,764.65,773.16,130.86,-940.43,345.70,-0.84,2.66,1.82,16.47
29307,786.84,769.50,771.65,764.72,773.18,124.02,-948.73,350.59,0.23,2.53,1.03,16.99
29341,786.88,769.59,771.66,764.67,773.20,121.09,-933.11,368.65,-0.63,1.21,0.32,17.16
29374,786.86,769.57,771.69,764.65,773.19,121.58,-943.36,354.98,-0.63,-0.08,0.76,18.49
29408,786.96,769.53,771.68,764.70,773.22,119.63,-948.24,360.35,1.03,0.19,1.27,17.33
29442,786.85,769.53,771.72,764.72,773.20,120.61,-943.85,349.12,-0.73,1.90,2.61,18.46
29476,786.86,769.48,771.64,764.71,773.17,107.91,-940.92,351.56,-1.51,1.31,3.45,16.97
29510,786.79,769.51,771.66,764.72,773.17,123.54,-947.75,368.16,0.07,1.41,2.05,17.36
29544,786.80,769.52,771.64,764.72,773.17,126.95,-954.10,352.54,-0.25,0.68,1.03,16.83
29578,786.74,769.55,771.56,764.70,773.14,129.39,-951.17,359.37,-0.58,0.85,1.24,15.07
29614,786.66,769.52,771.63,764.78,773.15,144.04,-947.75,354.00,-1.21,1.95,-0.34,15.98
29648,786.67,769.51,771.68,764.70,773.14,125.49,-946.78,359.37,-1.18,0.47,0.36,18.57
29682,786.56,769.43,771.62,764.73,773.09,124.51,-943.36,345.70,2.73,-0.82,1.34,17.71
29716,786.58,769.50,771.64,764.74,773.12,120.61,-938.96,339.84,-2.04,2.09,0.37,17.40
29752,786.61,769.46,771.65,764.81,773.13,115.72,-937.99,362.79,1.54,0.85,-1.54,16.91
29786,786.61,769.44,771.62,764.75,773.10,125.98,-954.59,354.49,1.29,0.71,-0.87,17.24
29820,786.65,769.49,771.60,764.75,773.12,121.58,-943.36,355.47,-0.13,1.17,0.58,16.12
29854,786.63,769.38,771.62,764.75,773.09,123.05,-946.78,359.86,1.79,2.28,1.45,17.55
29888,786.68,769.49,771.57,764.74,773.12,132.81,-944.82,355.96,1.73,-0.71,-0.19,15.30
29923,786.85,769.40,771.59,764.73,773.14,118.16,-926.76,356.45,2.40,-0.12,-0.73,16.09
29957,786.95,769.42,771.60,764.70,773.17,133.79,-956.54,359.37,1.38,-1.46,1.34,16.20
29991,787.02,769.37,771.57,764.66,773.15,116.21,-947.27,352.54,2.00,0.63,0.40,16.50
30027,787.14,769.43,771.59,764.75,773.23,143.07,-956.05,363.77,-0.59,-0.79,0.52,14.50
30061,787.19,769.42,771.63,764.65,773.22,120.61,-953.12,354.98,1.37,1.02,1.53,16.97
30095,787.31,769.40,771.53,764.67,773.23,125.49,-942.38,349.61,1.32,0.40,0.60,14.13
30129,787.26,769.35,771.52,764.62,773.19,136.23,-949.71,359.37,-0.32,2.70,0.53,14.94
30163,787.42,769.42,771.50,764.65,773.25,124.02,-941.89,362.30,-1.43,1.92,0.27,12.94
30197,787.43,769.34,771.52,764.58,773.22,120.12,-950.20,359.86,1.37,1.10,-0.85,15.03
30231,787.56,769.46,771.54,764.66,773.30,121.09,-936.52,346.68,0.97,1.56,-0.34,13.01
30266,787.48,769.39,771.49,764.62,773.24,122.56,-937.50,363.28,-0.92,0.08,1.40,13.20
30300,787.62,769.34,771.48,764.54,773.25,117.68,-942.87,359.86,0.54,1.78,-4.53,13.92
30334,787.65,769.37,771.53,764.57,773.28,118.16,-954.10,353.03,-1.51,1.36,2.03,14.51
30368,787.68,769.28,771.51,764.58,773.26,125.49,-947.27,352.54,-1.36,0.78,1.70,14.44
30402,787.69,769.27,771.54,764.59,773.27,123.54,-941.89,350.59,2.34,2.08,1.88,15.20
30438,787.66,769.25,771.48,764.55,773.23,125.98,-952.15,352.05,-0.27,1.95,2.44,14.51
30472,787.66,769.40,771.48,764.57,773.28,121.09,-948.73,347.17,-1.02,-0.55,-0.05,12.84
30506,787.73,769.26,771.48,764.49,773.24,124.51,-940.92,356.45,0.53,0.96,2.55,15.18
30541,787.61,769.31,771.54,764.58,773.26,116.21,-945.80,360.35,0.44,1.82,0.09,15.11
30575,787.54,769.30,771.46,764.54,773.21,132.32,-943.85,353.03,0.40,2.20,0.18,14.04
30609,787.48,769.38,771.46,764.61,773.23,133.79,-952.64,353.03,0.93,0.69,2.13,12.68
30643,787.40,769.34,771.46,764.51,773.18,119.14,-948.24,359.37,-1.50,1.18,0.05,14.89
30679,787.34,769.33,771.50,764.51,773.17,118.16,-954.10,354.00,-0.26,1.37,1.50,16.06
30713,787.44,769.29,771.46,764.59,773.20,128.91,-946.78,351.07,-0.98,4.63,1.36,13.71
30746,787.33,769.32,771.52,764.59,773.19,123.54,-943.36,356.45,1.29,0.89,-0.22,15.64
30780,787.32,769.36,771.53,764.59,773.20,136.72,-970.70,338.38,0.59,2.53,-3.41,15.47
30814,787.18,769.36,771.55,764.65,773.19,130.86,-952.15,355.47,-3.80,1.11,1.02,15.46
30849,787.08,769.39,771.48,764.62,773.14,127.44,-953.61,363.28,-3.09,1.02,-1.02,14.43
30882,786.98,769.42,771.54,764.64,773.14,127.44,-940.92,359.37,-0.20,0.73,-1.14,15.60
30916,786.81,769.50,771.57,764.73,773.15,117.68,-942.38,346.19,2.27,0.67,1.40,14.99
30950,786.67,769.55,771.68,764.77,773.17,110.35,-946.78,351.56,1.13,3.96,0.31,17.22
30984,786.30,769.57,771.65,764.78,773.07,128.42,-929.69,353.52,1.73,0.68,-0.02,17.49
31018,786.14,769.58,771.75,764.74,773.05,104.00,-937.99,359.37,1.30,0.96,-0.92,20.94
31052,786.16,769.64,771.71,764.82,773.08,128.91,-937.99,349.61,2.31,0.53,-0.99,18.35
31086,786.18,769.72,771.69,764.85,773.11,125.49,-945.80,344.73,0.24,2.71,3.16,16.65
31119,786.07,769.73,771.69,764.83,773.08,119.14,-939.45,345.21,0.42,2.40,-0.34,17.20
31153,786.02,769.81,771.78,764.84,773.11,119.63,-935.06,353.52,-0.61,-1.72,0.83,18.80
31187,786.06,769.96,771.79,764.90,773.18,123.54,-933.59,343.75,-2.20,0.56,1.53,16.86
31223,786.26,770.04,771.87,764.96,773.28,113.28,-919.43,348.63,0.95,0.89,4.13,16.56
31257,786.22,770.05,771.94,765.06,773.32,115.72,-931.15,363.77,2.60,0.55,0.78,16.79
31291,786.20,770.01,771.95,765.10,773.32,114.26,-939.45,343.26,1.86,2.52,0.27,16.99
31326,785.93,770.00,771.98,765.10,773.25,124.51,-937.01,364.26,1.27,2.28,1.53,18.80
31360,785.69,769.98,771.86,765.07,773.15,117.19,-952.15,363.28,0.82,1.65,0.68,17.29
31394,785.71,769.94,771.92,765.07,773.16,129.88,-944.34,370.61,0.79,3.29,0.05,19.00
31428,786.04,769.81,771.82,765.00,773.17,112.30,-941.41,363.77,-0.24,1.54,-0.31,17.57
31462,786.53,769.86,771.84,764.91,773.29,124.02,-951.66,362.30,1.15,1.74,0.02,17.03
31496,786.82,770.00,771.78,764.90,773.37,116.70,-945.80,354.49,-2.01,1.78,-0.50,13.80
31530,786.84,769.96,771.82,764.88,773.38,111.82,-952.15,367.68,1.14,3.00,-0.38,15.15
31565,786.80,769.87,771.85,764.89,773.35,132.32,-937.50,360.35,0.20,0.26,-0.04,16.72
31600,786.69,769.84,771.84,764.96,773.34,122.56,-953.61,358.40,-0.63,2.32,-0.39,16.00
31636,786.65,769.81,771.80,764.93,773.30,122.07,-945.31,368.65,-0.74,1.02,1.19,15.71
31670,786.73,769.84,771.77,764.95,773.32,117.68,-937.01,350.10,0.05,1.29,0.47,14.16
31704,786.93,769.81,771.83,764.92,773.37,112.79,-939.45,363.77,-1.05,0.05,2.00,15.85
31739,786.94,769.87,771.83,764.81,773.36,123.05,-944.34,356.93,1.82,1.24,-0.87,16.73
31773,786.93,769.82,771.78,764.90,773.36,121.09,-959.96,357.42,-1.09,2.56,1.21,14.69
31807,786.89,769.83,771.77,764.88,773.34,120.61,-946.78,359.37,0.11,0.66,1.30,14.71
31841,786.79,769.82,771.77,764.81,773.30,130.37,-948.73,366.21,0.76,2.05,-0.19,16.39
31875,786.84,769.83,771.82,764.91,773.35,127.44,-939.45,354.00,0.60,1.91,0.08,15.78
31909,786.79,769.78,771.81,764.97,773.34,123.05,-950.68,355.47,-0.97,3.41,1.13,15.26
31943,786.85,769.83,771.80,764.85,773.33,115.23,-948.24,356.45,0.92,3.87,1.58,16.25
31977,786.80,769.84,771.83,764.90,773.34,116.21,-944.82,352.54,0.46,0.63,-0.11,16.25
32012,786.71,769.82,771.79,764.93,773.31,129.39,-942.87,339.36,0.05,3.11,-1.82,15.20
32048,786.60,769.78,771.77,765.00,773.29,117.68,-937.01,347.17,1.31,3.19,0.26,14.65
32082,786.62,769.85,771.82,764.91,773.30,126.46,-970.21,340.82,-0.42,0.24,3.15,16.56
32116,786.74,769.72,771.74,764.98,773.30,132.81,-934.57,354.00,0.25,2.56,0.24,14.12
32150,786.95,769.66,771.66,764.90,773.29,124.51,-949.22,352.54,1.47,0.29,-0.06,13.10
32184,787.10,769.59,771.67,764.80,773.29,109.86,-948.73,350.10,-1.08,3.44,0.59,14.73
32218,787.28,769.50,771.57,764.66,773.26,132.32,-951.66,363.77,-1.31,0.82,1.77,14.28
32252,787.51,769.44,771.57,764.68,773.30,131.35,-952.15,354.49,0.21,0.52,0.32,13.82
32287,787.74,769.47,771.56,764.58,773.34,120.61,-938.48,374.51,4.40,1.67,-0.63,13.93
32321,787.84,769.36,771.54,764.64,773.34,120.61,-961.91,351.56,1.95,1.90,-0.23,13.17
32355,787.72,769.43,771.51,764.63,773.32,117.19,-949.22,351.56,-0.63,0.73,-0.63,12.52
32388,787.69,769.41,771.54,764.55,773.30,115.72,-931.15,356.45,-1.97,0.99,0.50,14.61
32422,787.81,769.35,771.56,764.63,773.34,132.32,-914.06,352.05,1.50,2.73,2.06,14.05
32457,787.93,769.40,771.55,764.56,773.36,134.28,-938.96,352.05,1.86,2.11,-2.08,13.91
32491,788.01,769.30,771.52,764.54,773.34,134.28,-942.38,358.40,0.43,3.33,3.86,14.14
32526,788.10,769.28,771.52,764.54,773.36,118.16,-942.87,361.33,-0.45,1.75,2.67,13.87
32560,788.26,769.34,771.55,764.54,773.42,126.95,-943.85,351.56,-1.31,-0.11,0.82,13.61
32594,788.12,769.25,771.52,764.55,773.36,113.77,-942.87,362.79,0.82,1.42,-0.01,14.05
32628,788.07,769.29,771.48,764.52,773.34,127.93,-946.78,354.49,0.13,-0.37,0.26,13.30
32662,788.11,769.32,771.48,764.55,773.36,133.30,-939.94,343.26,0.09,2.35,2.37,12.48
32696,788.24,769.29,771.49,764.48,773.38,125.49,-938.96,354.98,-1.33,2.18,0.88,13.47
32729,788.39,769.32,771.44,764.60,773.44,126.95,-950.68,359.86,-0.60,1.52,-0.28,9.56
32763,788.44,769.38,771.52,764.57,773.48,124.51,-944.34,376.46,2.02,1.82,1.70,11.48
32797,788.39,769.34,771.51,764.61,773.46,132.81,-942.87,349.61,1.36,-0.13,0.31,10.94
32831,788.33,769.33,771.48,764.53,773.42,124.02,-939.45,358.89,1.26,2.74,2.76,11.86
32867,788.39,769.27,771.57,764.55,773.44,128.91,-939.45,358.89,1.69,1.52,0.79,14.23
32901,788.50,769.42,771.49,764.45,773.47,119.14,-945.80,341.31,0.15,1.71,2.02,11.87
32935,788.62,769.27,771.52,764.48,773.48,115.23,-948.73,353.03,1.32,0.31,2.37,13.11
32970,788.54,769.31,771.46,764.50,773.46,130.37,-936.52,351.07,-0.11,1.63,2.09,11.25
33004,788.45,769.43,771.57,764.59,773.51,142.09,-954.59,354.49,-0.61,3.57,1.91,12.10
33038,788.27,769.46,771.53,764.62,773.47,122.07,-947.75,348.63,0.27,0.76,2.92,10.99
33072,788.11,769.41,771.56,764.62,773.42,130.86,-937.99,354.49,0.79,1.40,-0.34,12.73
33106,788.03,769.44,771.58,764.72,773.44,121.09,-957.03,356.45,0.79,0.89,0.04,11.86
33140,788.02,769.48,771.56,764.67,773.43,119.63,-951.66,360.84,0.30,3.83,1.74,11.78
33174,787.96,769.44,771.60,764.69,773.42,125.49,-939.45,352.54,1.89,0.76,-1.23,12.83
33209,787.91,769.44,771.62,764.72,773.42,129.88,-939.45,342.77,-0.46,1.33,-2.48,13.05
33243,787.86,769.48,771.56,764.76,773.41,139.65,-934.57,363.28,0.09,0.57,1.23,10.84
33279,787.85,769.45,771.56,764.75,773.40,125.49,-948.73,355.96,-0.40,2.54,0.88,11.28
33313,787.74,769.49,771.56,764.68,773.37,119.63,-955.08,358.89,1.32,0.49,-0.18,12.52
33347,787.67,769.39,771.62,764.75,773.36,129.88,-942.38,355.47,0.82,-0.37,0.69,13.93
33381,787.56,769.43,771.63,764.70,773.33,105.96,-947.27,357.91,-0.19,2.94,-1.73,14.80
33415,787.54,769.41,771.57,764.71,773.31,126.46,-942.87,344.24,1.56,0.42,1.44,13.53
33451,787.48,769.51,771.59,764.73,773.32,124.51,-951.66,344.73,0.90,2.46,1.02,13.05
33485,787.42,769.48,771.61,764.76,773.32,111.82,-957.52,366.70,-1.24,1.62,-3.33,13.59
33519,787.23,769.52,771.57,764.77,773.27,130.37,-941.89,359.37,0.35,1.96,-0.15,12.85
33553,787.07,769.50,771.57,764.82,773.24,121.09,-945.80,351.07,0.99,1.56,-3.20,12.69
33587,786.94,769.57,771.55,764.78,773.21,130.86,-943.36,354.49,1.11,0.31,-1.15,12.83
33622,786.92,769.59,771.65,764.86,773.25,124.51,-945.31,351.56,0.61,1.19,-0.18,13.88
33656,786.81,769.65,771.69,764.79,773.23,114.26,-954.10,352.05,3.03,0.92,4.21,15.80
33692,786.74,769.70,771.72,764.94,773.27,114.26,-949.22,357.42,-0.31,-1.38,-0.81,14.18
33726,786.71,769.73,771.76,764.94,773.29,122.56,-946.78,353.03,-2.55,0.10,0.16,15.13
33760,786.57,769.82,771.84,764.99,773.30,120.12,-924.80,369.63,0.14,1.81,0.82,16.09
33794,786.40,769.85,771.82,765.01,773.27,129.88,-937.01,348.14,0.71,3.30,-1.14,15.85
33828,786.16,769.95,771.86,765.12,773.27,120.61,-950.20,359.86,-0.43,0.93,-0.60,15.03
33862,786.19,769.93,771.95,765.15,773.30,112.79,-953.61,347.66,-0.73,2.05,1.58,16.90
33897,786.11,770.01,771.96,765.17,773.31,122.07,-945.31,357.42,0.36,2.50,-2.00,16.55
33931,786.18,769.93,771.96,765.19,773.31,108.40,-941.89,354.00,0.38,1.02,-0.37,16.78
33965,786.14,769.90,771.95,765.18,773.30,116.21,-942.38,352.54,1.37,0.73,0.54,16.94
33999,786.14,769.93,771.94,765.21,773.31,131.84,-945.31,354.98,-1.70,-0.05,3.97,15.84
34032,786.06,769.93,771.94,765.17,773.28,121.58,-949.71,355.47,0.82,2.04,2.29,16.80
34066,786.09,769.87,771.92,765.28,773.29,131.35,-942.38,346.19,2.65,1.32,-0.66,15.13
34101,785.97,769.97,771.92,765.25,773.27,122.07,-937.99,350.59,1.47,-0.68,-2.07,15.20
34135,785.98,770.02,771.96,765.24,773.30,125.49,-952.64,362.79,1.04,-0.55,-0.82,15.89
34169,785.99,769.96,771.97,765.32,773.31,119.63,-943.85,365.23,0.53,2.11,0.44,15.52
34203,785.96,769.94,772.02,765.28,773.30,120.61,-940.43,356.45,-1.55,0.98,2.21,17.60
34237,785.90,769.97,771.97,765.26,773.28,110.35,-940.92,345.70,1.28,-0.69,1.40,16.55
34271,785.82,770.00,771.99,765.33,773.29,124.51,-943.85,369.14,-1.37,0.78,3.53,16.04
34304,785.75,769.97,772.05,765.31,773.27,116.21,-952.15,346.19,1.61,1.85,-1.84,18.29
34338,785.84,770.02,772.04,765.29,773.30,114.26,-934.08,358.40,-0.17,-0.98,-1.00,17.81
34374,785.62,770.05,772.02,765.30,773.25,130.37,-943.36,354.98,1.56,1.76,-1.24,17.50
34407,785.58,770.03,772.03,765.36,773.25,122.56,-931.64,362.30,2.57,2.27,1.14,17.16
34442,785.52,770.05,772.03,765.33,773.24,125.98,-950.68,357.42,0.32,-0.85,0.52,17.66
34477,785.56,770.08,772.02,765.42,773.27,125.98,-938.96,349.61,0.04,2.08,0.34,15.84
34512,785.47,770.04,772.07,765.35,773.23,127.93,-931.64,356.93,2.06,2.89,0.95,18.62
34546,785.33,769.98,772.06,765.39,773.19,123.54,-944.34,353.52,-0.65,1.74,0.01,18.67
34580,785.17,770.04,772.10,765.40,773.18,124.51,-933.59,348.14,-0.47,1.15,0.65,19.57
34614,785.12,770.02,772.08,765.37,773.15,134.28,-944.34,354.49,0.44,2.89,-0.58,20.12
34648,785.08,770.02,772.09,765.38,773.15,120.12,-934.08,349.61,1.27,2.37,0.12,20.15
34682,785.13,770.04,772.09,765.28,773.14,125.98,-939.94,370.61,1.68,1.37,-0.35,21.34
34716,785.13,770.02,772.11,765.35,773.15,137.70,-947.75,355.47,0.57,1.92,0.05,20.94
34751,785.04,769.95,772.04,765.35,773.09,114.75,-958.50,359.37,0.78,1.76,0.69,20.05
34785,785.08,769.94,772.08,765.36,773.12,126.46,-945.80,350.10,-0.20,2.39,1.11,21.00
34819,785.09,770.02,772.08,765.35,773.14,126.95,-946.29,362.30,1.71,-0.18,0.58,20.39
34853,785.07,769.95,772.13,765.40,773.14,122.56,-957.52,349.12,1.52,3.53,0.68,21.46
34889,785.15,769.89,772.04,765.31,773.09,119.63,-943.36,354.98,0.60,2.22,-0.35,20.73
34923,785.13,769.93,772.03,765.31,773.10,127.44,-938.48,358.89,-1.66,1.03,1.20,20.31
34957,785.22,769.88,771.97,765.24,773.08,132.32,-950.68,356.93,0.26,-0.63,-1.73,19.97
34991,785.23,769.87,772.03,765.29,773.11,125.49,-950.68,362.79,-0.53,0.65,-1.83,20.80
35025,785.20,769.87,772.04,765.24,773.09,117.19,-943.36,361.82,0.18,1.29,1.24,21.75
35060,785.31,769.88,771.98,765.20,773.09,116.21,-953.12,350.59,-0.89,2.21,-0.53,20.49
35094,785.40,769.86,771.95,765.26,773.12,127.93,-941.41,364.75,1.60,0.89,-1.60,18.78
35128,785.43,769.92,771.95,765.25,773.14,121.09,-933.11,352.54,1.15,0.10,0.11,18.08
35162,785.46,769.86,772.00,765.36,773.17,133.79,-945.80,354.49,2.01,2.28,-0.38,18.27
35196,785.47,769.82,772.02,765.28,773.15,113.28,-944.82,354.00,0.15,1.54,0.39,20.00
35230,785.39,769.85,771.99,765.22,773.11,135.74,-932.62,353.03,3.03,-1.75,2.61,20.28
35264,785.35,769.85,772.00,765.36,773.14,120.61,-946.29,360.35,-0.09,0.52,1.05,18.64
35302,785.43,769.86,772.05,765.33,773.17,128.42,-945.80,368.16,-1.33,4.51,-1.27,20.05
35336,785.46,769.91,771.99,765.36,773.18,115.23,-950.68,353.52,-1.84,-0.07,-0.53,17.57
35370,785.33,769.94,771.95,765.36,773.15,115.23,-946.78,339.84,2.00,3.39,1.00,16.76
35404,785.35,769.95,772.02,765.31,773.16,123.05,-952.15,359.37,0.78,0.57,1.53,19.18
35438,785.29,769.89,772.05,765.40,773.16,117.68,-952.15,361.33,1.10,1.36,0.58,19.03
35472,785.23,769.94,772.07,765.41,773.16,118.16,-952.15,342.29,1.18,0.73,-0.31,19.29
35506,785.24,770.00,772.06,765.41,773.18,125.49,-952.64,348.14,-0.60,1.37,-0.10,18.68
35541,785.22,769.99,772.15,765.42,773.20,123.05,-935.55,363.28,1.37,0.56,-0.88,20.77
35575,785.30,769.99,772.08,765.46,773.21,113.77,-950.68,366.21,0.42,2.45,0.56,18.31
35609,785.30,770.03,772.15,765.50,773.25,116.21,-943.36,353.03,1.39,1.34,2.26,18.83
35642,785.30,769.99,772.16,765.45,773.22,123.54,-953.61,359.37,0.14,1.08,0.72,20.39
35676,785.23,769.94,772.13,765.45,773.19,132.81,-944.34,368.16,-0.14,1.65,-0.19,20.09
35711,785.29,769.89,772.09,765.47,773.18,125.00,-943.85,358.89,-1.34,1.80,-0.32,19.30
35745,785.38,769.93,772.09,765.50,773.22,116.21,-937.50,376.95,1.38,-0.21,2.16,18.18
35778,785.33,769.95,772.09,765.46,773.21,125.49,-930.66,349.12,0.53,2.63,0.92,18.68
35812,785.41,769.98,772.03,765.47,773.22,126.95,-937.50,354.00,0.93,-0.06,0.96,16.63
35846,785.42,770.01,772.10,765.39,773.23,110.35,-950.20,354.00,0.63,3.60,-0.40,19.23
35880,785.42,769.93,772.12,765.33,773.20,123.54,-952.15,358.89,-0.71,2.11,1.31,21.18
35914,785.41,769.97,772.07,765.39,773.21,131.84,-944.34,343.26,-0.68,1.92,-0.14,18.79
35947,785.48,769.91,772.00,765.39,773.19,117.19,-943.85,359.86,-0.18,-0.18,2.21,17.35
35981,785.42,769.87,772.01,765.37,773.17,117.19,-941.89,337.89,-1.75,0.32,0.91,18.31
36015,785.49,769.93,772.00,765.36,773.19,125.00,-942.38,359.37,-1.05,3.41,-0.87,17.51
36049,785.47,769.99,772.05,765.40,773.23,128.42,-928.71,355.47,0.38,2.31,0.22,17.73
36083,785.56,769.97,772.00,765.34,773.22,124.51,-939.45,353.03,1.40,1.85,-0.01,17.42
36119,785.64,769.97,771.95,765.43,773.25,130.37,-942.38,353.03,-1.85,0.62,0.22,14.49
36153,785.64,770.00,772.01,765.30,773.24,124.51,-958.50,358.40,-0.57,1.09,1.43,17.56
36187,785.71,770.04,772.00,765.27,773.25,123.05,-945.80,379.88,-0.78,1.35,1.82,17.16
36222,785.73,770.07,771.99,765.19,773.24,136.72,-945.31,363.77,-0.50,0.86,-1.86,17.81
36257,785.89,770.12,771.94,765.30,773.31,118.16,-946.78,351.07,-0.46,-1.24,-0.16,14.08
36291,785.88,770.13,772.01,765.28,773.32,121.09,-939.45,351.56,0.24,2.73,0.09,16.08
36325,785.86,770.14,771.99,765.22,773.30,130.86,-938.48,360.84,-0.93,0.97,0.09,16.46
36359,785.93,770.15,771.93,765.16,773.29,101.56,-931.64,349.12,-1.08,1.50,1.29,15.54
36393,785.91,770.15,771.92,765.17,773.29,119.14,-934.57,358.89,-1.21,0.59,3.11,15.01
36427,785.91,770.16,771.91,765.18,773.29,125.98,-952.64,356.45,-0.24,2.69,-2.85,14.69
36461,785.93,770.14,771.90,765.17,773.29,117.68,-948.73,363.28,2.19,2.15,-1.21,14.57
36495,786.04,770.15,771.88,765.13,773.30,118.65,-946.29,344.73,-1.32,0.68,-0.41,14.19
36531,786.04,770.10,771.91,765.05,773.27,112.30,-927.73,353.52,-0.21,1.69,1.01,16.68
36565,785.97,770.19,771.87,765.06,773.27,122.07,-937.50,356.93,-0.95,0.02,-1.14,14.90
36599,786.07,770.07,771.80,765.07,773.25,122.56,-942.38,348.63,0.48,0.84,-0.11,13.82
36633,785.98,770.04,771.82,765.02,773.22,105.47,-948.24,350.10,1.56,0.86,-1.21,15.41
36668,785.97,770.10,771.92,765.05,773.26,128.42,-937.01,353.03,-2.01,-0.70,2.76,17.04
36702,785.86,770.17,771.96,765.03,773.26,114.26,-955.57,350.59,-0.52,3.13,1.89,18.17
36736,785.93,770.18,771.85,765.06,773.25,127.44,-950.68,351.07,1.83,1.48,0.69,14.71
36770,785.75,770.20,771.87,765.09,773.23,115.72,-940.92,345.70,0.97,0.41,0.37,15.39
36804,785.74,770.22,771.93,765.12,773.25,139.65,-954.59,355.96,-2.02,1.66,-0.26,16.21
36838,785.74,770.23,772.00,765.13,773.28,130.86,-941.41,363.28,-1.82,1.69,-0.21,17.82
36872,785.69,770.28,771.94,765.13,773.26,117.68,-948.73,350.10,-0.40,1.46,-1.34,15.89
36906,785.60,770.33,771.91,765.15,773.25,131.84,-947.75,352.54,0.26,1.43,1.20,14.80
36942,785.62,770.25,772.03,765.14,773.26,127.44,-945.80,353.03,-0.67,0.85,-0.09,18.48
36976,785.63,770.32,772.00,765.10,773.26,132.32,-948.24,356.45,1.12,0.79,1.89,17.75
37010,785.61,770.28,771.99,765.15,773.26,125.98,-938.48,361.82,-0.65,2.08,-0.94,16.95
37045,785.79,770.28,771.96,765.21,773.31,135.25,-939.45,361.33,1.38,1.47,1.60,15.01
37079,785.60,770.31,771.97,765.20,773.27,122.07,-954.59,368.16,0.82,-1.44,2.24,15.76
37113,785.58,770.29,772.00,765.25,773.28,118.16,-938.96,367.68,0.05,3.13,-0.14,15.89
37148,785.53,770.33,771.96,765.18,773.25,122.07,-939.94,366.21,-0.43,2.53,-1.50,15.73
37183,785.54,770.38,772.00,765.30,773.31,125.49,-940.43,357.42,1.17,1.51,0.29,14.41
37217,785.55,770.37,771.99,765.25,773.29,120.61,-944.34,353.03,0.93,1.22,-1.41,15.23
37251,785.56,770.41,772.02,765.27,773.32,119.14,-944.34,357.91,0.66,1.82,-1.53,15.33
37284,785.56,770.39,772.01,765.23,773.30,118.65,-955.08,355.47,-1.19,1.44,-0.43,15.67
37318,785.53,770.40,771.93,765.26,773.28,115.72,-939.94,349.61,-0.18,1.24,1.56,13.41
37353,785.58,770.40,772.00,765.21,773.30,110.84,-942.87,346.19,-0.37,-0.49,2.36,15.49
37387,785.52,770.31,772.01,765.22,773.26,112.79,-933.11,352.54,0.42,1.53,2.96,16.62
37420,785.54,770.37,771.99,765.27,773.29,115.72,-947.27,358.89,-0.08,0.27,0.27,14.95
37454,785.60,770.26,771.93,765.27,773.26,116.21,-956.54,357.91,-0.80,1.63,0.06,14.08
37488,785.61,770.35,771.99,765.22,773.29,129.39,-943.85,354.00,-0.41,3.06,0.28,15.60
37522,785.58,770.37,771.97,765.15,773.27,125.00,-937.50,356.45,0.59,-1.06,0.85,16.19
37556,785.60,770.29,771.97,765.14,773.25,114.26,-931.15,355.96,0.85,-0.58,2.60,16.74
37589,785.56,770.27,772.01,765.17,773.25,114.26,-944.34,367.68,2.08,0.63,-0.44,17.53
37623,785.50,770.30,771.93,765.16,773.22,137.21,-946.78,370.12,-0.92,1.30,-1.14,15.53
37657,785.57,770.30,771.97,765.12,773.24,117.19,-949.71,356.45,0.34,0.96,-0.36,17.10
37691,785.69,770.19,771.96,765.19,773.25,123.05,-948.73,355.96,-0.13,2.97,1.13,16.21
37727,785.79,770.13,771.98,765.22,773.28,133.30,-946.78,358.89,1.28,-0.25,-1.04,16.44
37761,785.70,770.07,771.96,765.13,773.22,131.35,-932.13,366.21,0.49,3.86,0.02,18.11
37795,785.75,770.16,771.85,765.18,773.24,115.72,-935.06,360.84,1.95,-0.57,1.82,13.82
37829,785.78,770.15,771.92,765.09,773.23,118.65,-948.24,356.45,-1.50,0.79,0.18,16.88
37863,785.83,770.16,771.91,765.12,773.25,141.60,-948.73,349.61,0.83,1.34,0.31,15.73
37897,785.80,770.04,771.85,765.15,773.21,117.68,-947.27,353.52,0.82,2.37,-0.19,14.96
37931,785.87,770.02,771.90,765.20,773.25,125.98,-950.68,347.17,0.34,0.61,0.44,15.40
37966,786.09,770.02,771.81,765.01,773.23,128.42,-938.48,355.96,-1.18,-1.13,0.49,15.17
38000,786.11,770.00,771.82,765.02,773.24,115.23,-947.75,349.12,0.21,2.18,2.46,15.40
38034,786.26,769.97,771.79,765.00,773.25,110.35,-944.82,358.89,0.71,-0.82,1.24,14.55
38070,786.33,769.87,771.83,764.92,773.24,119.63,-948.73,358.89,-0.35,3.93,0.02,17.44
38104,786.35,769.82,771.71,764.88,773.19,108.89,-942.87,355.47,0.85,2.73,1.03,15.46
38139,786.48,769.80,771.72,764.90,773.23,121.58,-941.89,353.03,-1.29,0.88,1.08,14.99
38174,786.57,769.69,771.73,764.83,773.21,118.65,-942.38,354.00,-3.03,0.83,0.27,16.92
38208,786.68,769.74,771.70,764.90,773.26,131.35,-945.80,360.35,0.25,1.43,-1.16,14.16
38242,786.69,769.74,771.60,764.86,773.22,133.79,-947.27,350.10,1.22,-0.15,-1.15,12.38
38276,786.78,769.76,771.63,764.81,773.24,120.61,-941.89,350.10,-2.18,-0.27,-1.27,13.52
38310,786.76,769.69,771.68,764.82,773.24,121.58,-932.13,363.28,2.06,0.85,-2.50,15.10
38344,786.79,769.67,771.70,764.79,773.24,123.05,-944.34,350.59,-1.05,0.19,0.21,16.02
38378,786.87,769.71,771.56,764.78,773.23,125.98,-953.12,358.89,-0.54,2.68,1.58,12.18
38412,786.73,769.71,771.67,764.79,773.23,120.12,-939.45,343.75,-0.89,0.97,1.73,15.28
38447,786.89,769.73,771.65,764.77,773.26,125.98,-935.55,354.49,0.87,1.25,0.84,14.24
38481,786.75,769.70,771.69,764.84,773.24,133.30,-946.78,356.45,-0.37,0.89,0.79,14.94
38515,786.83,769.66,771.69,764.83,773.25,121.58,-939.94,361.33,2.05,2.40,-1.07,15.09
38551,786.73,769.73,771.72,764.84,773.26,109.37,-951.17,356.45,-0.79,2.52,0.19,15.49
38585,786.65,769.76,771.66,764.82,773.23,116.70,-935.06,353.52,0.39,-0.17,0.96,14.32
38619,786.57,769.73,771.67,764.86,773.21,113.28,-946.29,345.21,1.70,3.87,3.33,14.47
38653,786.55,769.72,771.64,764.89,773.20,130.86,-942.38,355.47,0.58,3.76,-2.80,13.56
38687,786.48,769.71,771.68,764.90,773.19,134.77,-942.38,366.70,0.35,0.41,1.27,14.65
38721,786.52,769.85,771.72,764.89,773.24,122.56,-951.66,356.93,-0.07,1.79,-1.24,14.66
38755,786.55,769.77,771.72,764.88,773.23,125.00,-922.36,364.75,0.38,3.12,2.74,15.21
38789,786.50,769.80,771.72,764.90,773.23,128.42,-937.99,357.42,-0.08,1.58,-0.86,14.93
38824,786.56,769.76,771.65,764.90,773.22,125.98,-944.34,356.93,0.36,0.62,-1.35,13.24
38858,786.51,769.78,771.70,764.85,773.21,123.54,-944.34,365.72,-1.51,1.59,0.52,15.29
38891,786.49,769.76,771.68,764.89,773.21,115.23,-942.87,360.35,1.73,-0.98,2.23,14.24
38925,786.63,769.65,771.64,764.85,773.19,120.61,-940.43,362.30,0.06,-0.82,-0.08,14.31
38960,786.60,769.65,771.66,764.86,773.19,134.28,-963.38,350.59,0.57,0.94,1.50,14.88
38995,786.58,769.69,771.63,764.81,773.18,129.39,-939.94,346.68,-0.26,1.93,0.49,14.48
39029,786.69,769.59,771.67,764.88,773.21,123.05,-940.92,354.49,-1.31,-0.49,0.61,14.99
39062,786.70,769.63,771.63,764.85,773.20,121.09,-941.89,361.82,-0.66,-1.47,0.52,14.09
39097,786.65,769.54,771.62,764.87,773.17,124.51,-936.04,351.07,-2.07,2.25,0.69,14.31
39130,786.69,769.59,771.63,764.88,773.20,135.25,-952.64,341.80,0.70,1.24,0.04,14.04
39164,786.70,769.58,771.68,764.86,773.20,123.54,-945.31,358.40,-0.90,-0.07,0.56,15.53
39198,786.71,769.57,771.56,764.78,773.15,126.46,-939.45,348.63,1.47,2.85,-0.56,13.81
39232,786.69,769.53,771.62,764.79,773.16,125.49,-934.08,352.54,0.34,-0.79,1.52,15.63
39266,786.72,769.58,771.66,764.81,773.19,121.58,-952.64,355.96,1.55,1.38,0.50,15.81
39299,786.65,769.64,771.62,764.86,773.19,108.40,-950.68,351.56,1.81,2.31,-1.92,13.67
39333,786.63,769.62,771.65,764.84,773.19,123.05,-944.34,364.26,0.95,3.89,-0.24,14.90
39369,786.60,769.62,771.76,764.87,773.21,117.68,-948.73,349.12,0.25,2.25,-0.98,17.56
39403,786.60,769.70,771.70,764.91,773.22,118.65,-951.17,356.45,-2.70,3.87,-1.18,14.65
39437,786.61,769.63,771.65,764.89,773.19,124.51,-942.38,361.82,0.18,1.80,0.95,14.11
39472,786.52,769.63,771.69,764.88,773.18,125.49,-947.27,354.49,-0.81,0.62,-1.58,15.67
39506,786.52,769.68,771.74,764.87,773.20,126.95,-951.17,350.59,0.66,1.70,2.66,16.81
39540,786.55,769.67,771.72,764.93,773.22,136.72,-945.80,349.61,0.66,4.25,3.77,15.26
39574,786.47,769.74,771.74,764.92,773.22,130.37,-943.85,346.19,2.43,1.24,0.04,15.70
39608,786.46,769.60,771.81,764.90,773.19,122.56,-938.96,359.37,1.10,-1.21,0.67,18.93
39642,786.35,769.73,771.76,764.90,773.18,126.95,-957.03,350.59,1.35,1.74,0.51,16.85
39676,786.35,769.75,771.71,764.96,773.19,133.79,-952.15,364.26,1.31,1.27,2.60,14.63
39710,786.33,769.76,771.85,764.89,773.21,131.84,-946.78,354.98,0.05,2.32,-0.54,19.19
39745,786.33,769.74,771.76,764.97,773.20,122.07,-944.82,354.98,1.71,1.69,1.02,15.94
39780,786.42,769.75,771.75,764.91,773.21,135.74,-938.96,354.49,1.82,3.25,1.15,16.13
39814,786.41,769.78,771.75,764.92,773.21,133.30,-942.87,351.56,1.99,0.32,2.01,15.84
39849,786.41,769.76,771.81,764.93,773.23,121.58,-960.94,359.86,-1.85,0.16,-0.27,17.30
39883,786.34,769.80,771.72,764.96,773.20,124.51,-943.85,369.63,0.98,1.90,-1.56,14.50
39917,786.41,769.81,771.81,764.95,773.24,131.84,-940.92,353.03,0.80,-0.01,0.79,16.59
39952,786.47,769.79,771.76,764.99,773.25,120.61,-944.34,353.03,0.02,1.08,-1.66,14.87
39986,786.32,769.79,771.85,764.89,773.21,112.30,-946.29,360.84,1.15,2.21,1.73,18.94
40021,786.32,769.77,771.90,764.97,773.24,130.86,-953.12,344.24,1.53,1.76,-0.79,19.23
40055,786.30,769.79,771.98,765.04,773.28,127.93,-943.36,361.82,1.40,3.06,-1.30,20.04
40089,786.40,769.81,772.13,764.98,773.33,120.12,-945.80,350.59,0.22,-0.34,0.70,24.09
40123,786.42,769.81,772.09,764.90,773.31,125.00,-933.59,360.35,-0.55,-0.96,-0.68,24.26
40157,786.32,769.83,772.08,765.00,773.31,122.56,-939.94,345.21,-2.64,0.96,0.98,22.69
40193,786.43,769.82,772.01,764.85,773.28,120.61,-929.69,350.10,-0.41,2.98,0.56,22.74
40227,786.49,769.82,771.93,764.86,773.28,122.07,-940.92,374.02,-1.49,1.01,-0.92,20.56
40261,786.56,769.76,771.81,764.85,773.25,125.98,-940.92,348.63,1.75,1.18,1.46,17.93
40295,786.61,769.69,771.80,764.77,773.22,126.95,-938.48,366.21,0.98,2.89,2.05,19.19
40329,786.64,769.71,771.74,764.74,773.21,130.86,-947.27,343.26,1.45,0.56,0.60,18.06
40363,786.71,769.70,771.74,764.80,773.24,114.75,-938.48,353.03,0.34,2.18,0.40,16.82
40397,786.77,769.65,771.68,764.72,773.20,130.86,-952.64,361.33,-1.64,1.89,1.50,16.87
40432,786.89,769.60,771.56,764.70,773.19,117.68,-942.87,364.75,0.36,-1.11,1.13,14.10
40466,786.92,769.48,771.65,764.58,773.16,124.02,-940.43,359.86,0.15,-0.22,-0.68,19.09
40500,786.90,769.48,771.61,764.64,773.16,120.61,-948.24,355.96,0.64,4.22,-2.87,17.11
40533,786.99,769.49,771.56,764.52,773.14,123.54,-957.03,336.43,-0.34,-1.24,-1.76,17.27
40567,787.11,769.36,771.58,764.52,773.14,112.79,-936.52,354.98,0.82,2.27,2.37,18.41
40602,787.23,769.35,771.51,764.50,773.15,138.18,-941.89,347.66,0.75,0.66,-0.44,16.78
40636,787.32,769.30,771.44,764.51,773.14,112.79,-957.03,346.68,-1.17,-0.22,-1.37,14.87
40669,787.38,769.32,771.50,764.47,773.17,135.25,-941.89,350.10,-0.54,1.56,-1.31,16.67
40703,787.37,769.20,771.40,764.39,773.09,115.23,-927.25,362.30,0.38,0.66,-0.98,16.24
40737,787.45,769.33,771.39,764.38,773.14,118.65,-960.94,350.59,1.86,1.57,0.27,14.94
40771,787.70,769.28,771.35,764.40,773.18,129.39,-974.61,338.87,-1.70,1.31,0.24,13.20
40805,787.86,769.27,771.36,764.42,773.23,124.51,-941.41,346.68,-4.00,-1.73,2.40,12.46
40839,788.05,769.35,771.30,764.33,773.26,121.58,-933.11,365.23,0.70,4.18,-0.19,11.07
40874,788.21,769.26,771.30,764.31,773.27,129.39,-943.85,344.24,-0.38,-0.76,2.59,11.50
40908,788.39,769.18,771.29,764.32,773.29,126.95,-972.66,366.21,2.46,0.97,1.40,11.43
40942,788.84,769.15,771.19,764.26,773.36,113.77,-962.89,353.03,-0.07,0.76,1.92,8.16
40977,789.20,769.11,771.12,764.21,773.41,132.81,-940.92,359.86,-0.90,3.41,2.10,6.44
41011,789.44,769.08,771.20,764.07,773.45,128.91,-957.52,339.84,-1.20,1.14,0.20,9.74
41046,789.74,769.07,771.12,764.16,773.52,125.00,-936.04,361.82,1.71,3.10,1.17,5.72
41080,789.95,769.01,771.02,764.11,773.52,129.39,-974.61,329.59,-1.61,2.01,-1.34,3.58
41114,790.01,768.92,771.02,764.01,773.49,118.65,-946.78,338.38,-4.17,1.15,0.14,5.55
41148,790.08,769.07,771.05,763.96,773.54,132.81,-940.43,355.47,-3.25,0.66,0.37,5.60
41182,790.11,768.92,770.91,763.94,773.47,115.72,-895.51,359.86,2.01,1.73,0.52,3.54
41216,790.10,768.93,770.94,763.89,773.47,111.82,-936.52,352.05,1.76,1.29,1.43,5.01
41250,790.07,768.91,770.99,763.91,773.47,139.16,-953.61,352.05,1.01,2.82,0.75,6.10
41284,790.02,768.88,770.86,763.87,773.41,133.30,-942.38,350.10,-2.60,-0.17,-0.15,3.84
41319,789.90,768.85,770.91,763.97,773.41,121.58,-947.27,348.63,-0.37,3.02,0.53,4.44
41353,789.86,768.90,770.93,763.93,773.41,125.00,-949.22,344.73,-0.14,0.83,-2.85,5.06
41388,789.72,768.90,770.95,763.93,773.38,125.00,-958.50,364.75,-0.11,0.07,0.59,6.29
41423,789.70,768.93,771.03,764.03,773.42,126.95,-948.73,368.65,0.73,0.31,-0.01,6.55
41457,789.73,768.99,771.03,764.03,773.45,123.05,-931.15,359.37,-0.51,3.05,-1.43,5.98
41491,789.75,769.12,771.02,764.14,773.51,132.32,-950.68,348.63,-0.08,-1.02,1.83,2.96
41525,789.90,769.08,771.06,764.08,773.53,120.61,-935.06,354.98,0.75,0.98,0.80,4.63
41559,789.91,769.11,771.08,764.15,773.56,126.95,-939.94,358.89,-1.60,2.38,0.66,3.89
41593,789.89,769.08,771.12,764.14,773.56,128.42,-947.27,357.42,-1.11,1.72,1.40,5.19
41627,789.67,769.08,771.01,764.14,773.48,126.95,-944.34,373.54,1.49,0.29,1.24,3.21
41661,789.57,769.05,771.01,764.18,773.45,126.46,-943.36,348.63,3.10,1.45,-1.15,3.41
41695,789.43,769.07,771.05,764.14,773.42,127.93,-944.82,353.03,-0.66,2.32,0.27,5.35
41730,789.40,769.08,771.07,764.10,773.41,122.07,-940.43,353.03,-1.10,1.06,-0.09,6.26
41764,789.43,769.07,771.03,764.06,773.40,123.05,-937.01,357.91,-0.77,3.21,-2.05,5.88
41799,789.50,769.04,771.02,764.05,773.40,138.67,-943.36,363.28,-1.03,0.37,-1.83,5.74
41835,789.57,769.09,771.03,764.11,773.45,120.61,-959.47,355.96,-0.34,1.71,2.42,4.39
41869,789.48,768.96,771.03,764.09,773.39,123.54,-941.89,345.21,0.45,0.48,1.21,6.04
41903,789.48,769.05,770.95,764.07,773.39,131.35,-952.15,357.91,1.88,0.48,-1.65,3.84
41938,789.47,769.02,770.98,764.10,773.40,133.79,-946.78,350.10,0.21,0.02,1.25,4.27
41972,789.31,768.96,771.04,764.03,773.33,120.12,-940.92,345.70,2.78,1.25,-1.74,7.86
42006,789.21,768.98,770.97,764.04,773.30,126.95,-948.24,355.96,-0.86,1.17,0.47,6.27
42040,789.17,768.93,771.02,764.04,773.29,143.55,-949.71,353.52,-1.53,0.02,-0.71,7.97
42074,789.12,768.96,770.96,764.07,773.28,113.28,-942.38,345.70,-0.40,0.45,0.89,5.89
42108,789.00,769.02,770.97,764.07,773.26,132.81,-950.20,360.84,1.28,1.75,0.67,6.03
42142,788.82,768.92,770.98,764.02,773.19,125.49,-940.92,354.00,-2.35,-0.85,0.04,8.58
42176,788.82,768.89,771.00,764.00,773.18,127.93,-936.52,372.07,-0.37,1.29,2.31,9.48
42211,788.62,768.93,770.98,763.97,773.13,129.39,-946.29,365.23,-1.61,0.47,-0.56,9.88
42245,788.54,768.93,770.98,764.02,773.12,129.88,-936.52,339.84,1.61,0.84,0.27,9.27
42278,788.42,768.95,771.01,764.05,773.11,118.16,-923.83,369.14,0.40,2.94,0.16,9.84
42312,788.40,769.00,771.03,764.00,773.11,121.09,-940.43,362.79,1.73,0.69,0.34,10.81
42345,788.48,768.96,771.04,764.01,773.12,125.98,-963.87,350.59,-1.21,3.04,0.02,10.92
42380,788.50,768.95,771.06,764.01,773.13,138.67,-957.03,356.45,-2.42,1.24,0.53,11.57
42413,788.45,769.03,771.02,764.04,773.14,124.02,-948.73,367.19,1.05,-0.40,0.09,9.60
42447,788.41,769.00,770.99,764.11,773.13,114.75,-947.75,342.77,1.21,0.14,-0.22,8.30
42481,788.47,768.96,770.95,764.11,773.12,121.09,-942.87,358.89,0.73,-0.47,1.60,7.31
42515,788.51,768.97,770.99,764.09,773.14,126.46,-942.38,360.35,2.95,2.91,-1.69,8.40
42549,788.59,768.97,771.08,764.04,773.17,125.00,-940.43,344.24,-0.53,1.51,1.27,11.12
42582,788.61,769.00,771.01,764.15,773.19,114.75,-954.59,351.07,0.56,1.62,0.34,7.40
42618,788.62,768.98,771.07,764.06,773.18,131.35,-939.45,351.07,0.83,2.08,-2.11,10.28
42652,788.66,769.08,771.03,764.09,773.22,116.21,-954.59,351.07,-1.76,-0.05,2.10,8.08
42686,788.84,769.09,771.12,764.10,773.29,126.95,-949.71,357.91,0.11,1.31,-2.54,9.32
42721,788.92,769.02,771.00,764.12,773.27,127.44,-940.43,359.37,0.27,1.30,0.76,6.28
42756,788.89,769.08,771.02,764.11,773.27,120.12,-941.41,340.82,-2.07,3.18,-0.87,6.65
42790,788.81,769.15,771.04,764.19,773.30,119.63,-940.92,337.89,-0.01,-0.02,0.44,5.75
42824,788.86,769.10,771.10,764.24,773.32,115.72,-937.01,356.93,0.07,3.39,-0.63,6.55
42859,788.66,769.17,771.08,764.17,773.27,136.23,-926.76,336.43,3.69,2.08,1.63,7.52
42893,788.56,769.10,771.11,764.13,773.23,130.37,-978.03,328.61,3.15,0.74,0.43,9.59
42927,788.48,769.15,771.07,764.14,773.21,136.72,-948.73,364.26,-3.03,3.00,2.57,8.46
42961,788.42,769.14,771.11,764.27,773.23,131.35,-928.22,360.35,1.04,0.86,-0.18,7.65
42995,788.36,769.17,771.16,764.27,773.24,124.02,-945.80,354.00,1.66,0.27,3.55,8.92
43031,788.34,769.26,771.21,764.33,773.28,122.56,-954.59,339.84,2.55,0.85,-0.51,8.56
43065,788.15,769.24,771.15,764.32,773.22,132.81,-944.34,354.00,-0.16,2.79,-0.78,8.05
43099,787.99,769.28,771.18,764.35,773.20,128.42,-954.59,362.30,0.11,0.79,0.36,8.66
43133,787.91,769.42,771.22,764.36,773.23,141.60,-942.87,355.96,1.37,0.50,0.09,8.66
43167,787.85,769.35,771.22,764.38,773.20,126.95,-945.31,347.17,0.59,-0.95,0.97,9.17
43201,787.75,769.32,771.20,764.37,773.16,130.37,-955.08,351.56,0.83,-0.37,1.54,9.39
43235,787.82,769.31,771.26,764.33,773.18,132.32,-947.75,358.89,0.40,1.40,1.50,11.25
43270,787.78,769.32,771.25,764.40,773.19,114.26,-944.34,347.66,-0.44,0.76,0.78,10.01
43304,787.59,769.44,771.35,764.35,773.18,126.46,-951.17,358.89,0.08,2.27,0.33,13.07
43338,787.56,769.48,771.34,764.39,773.19,126.46,-950.20,350.10,0.37,2.66,0.09,11.94
43372,787.51,769.41,771.35,764.43,773.17,120.61,-954.10,348.63,1.98,3.85,0.15,12.20
43406,787.41,769.40,771.31,764.52,773.16,123.05,-954.10,370.12,1.77,2.85,0.95,10.21
43442,787.04,769.35,771.34,764.40,773.03,120.61,-944.82,346.68,0.64,-0.11,1.86,14.61
43476,786.91,769.37,771.34,764.43,773.01,121.09,-949.22,347.66,0.28,2.76,1.33,14.28
43510,787.02,769.33,771.36,764.42,773.03,116.21,-945.80,358.40,0.50,1.73,0.92,15.03
43544,787.35,769.36,771.44,764.53,773.17,119.63,-952.64,338.87,-0.18,2.39,-0.01,14.15
43578,787.46,769.41,771.38,764.50,773.19,131.35,-986.82,354.98,-1.55,2.95,0.15,12.08
43613,787.36,769.40,771.36,764.57,773.17,120.12,-948.73,349.12,-4.97,-0.68,3.07,10.92
43647,787.13,769.41,771.38,764.45,773.09,132.32,-939.45,344.73,-3.82,0.70,0.63,13.93
43683,787.03,769.33,771.34,764.46,773.04,118.16,-935.55,356.93,-1.08,3.19,-0.98,13.72
43717,786.98,769.35,771.36,764.43,773.03,120.61,-941.89,354.00,0.66,1.69,0.60,14.79
43751,786.95,769.31,771.36,764.39,773.00,121.58,-949.22,349.61,0.56,2.64,0.37,15.71
43785,787.03,769.36,771.39,764.44,773.05,126.46,-926.27,355.96,2.31,2.24,1.22,15.12
43819,786.94,769.33,771.37,764.48,773.03,116.70,-954.59,347.66,1.50,1.66,-0.69,14.50
43854,786.88,769.38,771.46,764.48,773.05,124.02,-932.13,370.12,0.52,1.48,0.71,16.83
43887,786.90,769.34,771.38,764.53,773.04,125.00,-956.54,352.05,2.11,2.69,1.10,14.30
43921,786.87,769.46,771.32,764.48,773.03,124.02,-946.78,350.59,-0.27,-0.31,-0.97,12.43
43955,786.88,769.33,771.38,764.58,773.05,130.37,-943.36,348.14,-0.72,1.08,2.10,13.60
43988,786.92,769.37,771.35,764.47,773.03,124.02,-945.31,363.28,-0.24,2.32,1.21,13.97
44022,786.97,769.32,771.40,764.44,773.03,133.79,-932.13,355.96,-0.44,1.00,1.02,16.01
44056,787.06,769.31,771.31,764.44,773.03,116.70,-950.68,346.68,-0.07,1.94,0.27,13.39
44090,786.98,769.28,771.25,764.39,772.97,135.74,-937.99,353.52,0.57,1.11,-0.44,13.18
44124,786.92,769.24,771.30,764.38,772.96,129.88,-935.06,354.49,0.69,1.83,0.02,15.08
44158,786.98,769.26,771.31,764.32,772.97,122.07,-934.57,352.54,0.18,0.77,0.18,15.83
44191,786.96,769.28,771.34,764.34,772.98,122.56,-939.94,354.49,1.95,1.01,2.05,16.29
44227,786.97,769.30,771.27,764.32,772.96,117.68,-946.29,349.61,-1.92,1.30,1.31,14.57
44261,787.04,769.26,771.37,764.35,773.00,106.93,-936.04,365.23,2.17,3.26,0.76,16.74
44295,787.04,769.24,771.30,764.35,772.98,118.16,-947.27,339.84,2.12,0.80,-0.78,15.36
44329,787.06,769.22,771.37,764.25,772.98,117.19,-943.85,356.45,1.69,1.27,1.37,18.29
44364,787.13,769.23,771.25,764.34,772.99,133.79,-953.12,352.05,0.79,2.44,0.65,13.98
44398,787.09,769.22,771.24,764.37,772.98,114.26,-939.94,360.84,0.29,2.37,-1.76,13.32
44432,787.17,769.20,771.27,764.37,773.00,127.44,-947.27,342.29,0.75,0.68,-0.10,13.94
44466,787.28,769.21,771.25,764.35,773.02,124.51,-940.92,368.65,-1.66,2.64,-2.27,13.35
44500,787.22,769.18,771.24,764.30,772.99,132.32,-960.94,344.73,-0.66,-1.16,-1.30,14.25
44534,787.20,769.21,771.23,764.29,772.98,119.14,-947.75,363.77,0.26,1.98,1.40,13.85
44568,787.28,769.22,771.23,764.30,773.01,122.07,-937.99,351.07,1.75,1.61,-0.81,13.48
44604,787.36,769.21,771.22,764.28,773.02,123.54,-931.15,363.77,-0.70,2.94,2.59,13.32
44640,787.50,769.21,771.21,764.23,773.04,121.09,-945.80,359.37,0.45,0.92,-1.07,13.27
44674,787.50,769.21,771.20,764.23,773.03,141.60,-939.94,339.84,-0.36,1.88,-0.90,13.08
44708,787.55,769.06,771.19,764.22,773.01,113.77,-952.64,360.84,0.56,1.69,0.18,13.89
44742,787.58,769.13,771.18,764.17,773.02,131.84,-945.31,355.47,-0.05,1.54,-1.22,13.88
44776,787.57,769.13,771.18,764.23,773.03,125.00,-938.48,351.07,-2.54,1.60,1.56,12.95
44811,787.61,769.10,771.21,764.26,773.05,124.02,-950.68,353.52,-0.52,1.29,-1.48,13.34
44845,787.63,769.18,771.19,764.27,773.07,130.37,-955.08,344.24,1.02,1.08,0.73,12.02
44879,787.59,769.09,771.10,764.25,773.01,108.89,-937.50,361.82,-0.41,1.80,1.93,10.92
44913,787.63,769.02,771.12,764.17,772.98,129.39,-963.87,309.57,-3.25,1.18,-1.61,13.16
44947,787.78,768.90,771.06,764.18,772.98,122.07,-935.55,348.63,0.02,3.10,0.09,11.93
44981,787.77,768.83,771.06,764.18,772.96,126.46,-942.87,347.17,0.19,0.97,0.11,12.63
45015,787.88,768.89,771.12,764.07,772.99,132.81,-942.87,358.40,0.73,-0.21,0.23,14.82
45051,787.97,768.85,771.07,764.15,773.01,128.42,-942.38,349.61,-0.95,0.58,-2.09,12.27
45085,787.94,768.79,771.03,764.15,772.98,125.00,-942.87,341.80,0.21,1.04,0.61,12.00
45119,788.03,768.90,771.11,764.09,773.03,118.65,-942.87,338.38,-0.40,1.02,3.25,13.45
45154,787.99,768.85,771.04,764.09,772.99,133.79,-935.55,354.98,-0.02,0.86,0.42,12.33
45188,787.98,768.89,771.13,764.17,773.04,127.93,-930.18,352.05,0.87,2.15,0.11,13.16
45222,787.95,768.98,771.10,764.19,773.05,121.58,-942.38,347.66,-1.11,0.00,1.15,11.40
45256,787.86,768.97,771.14,764.18,773.04,137.70,-940.92,355.96,0.44,1.09,-0.94,13.08
45290,787.96,768.95,771.14,764.17,773.05,133.30,-941.41,355.96,2.46,1.34,0.44,13.03
45324,787.85,769.04,771.15,764.20,773.06,107.42,-932.13,384.28,0.63,3.44,2.23,12.58
45358,787.92,768.99,771.11,764.20,773.05,129.88,-960.94,348.14,1.73,0.43,0.37,11.75
45393,787.99,769.04,771.20,764.23,773.11,125.00,-948.73,347.66,2.34,0.92,-0.76,12.70
45427,787.96,768.98,771.13,764.25,773.08,131.84,-948.73,353.52,1.03,1.75,0.76,11.24
45462,788.04,768.93,771.08,764.14,773.05,137.21,-937.99,353.03,1.60,0.65,-1.67,11.81
45496,788.08,769.00,771.06,764.12,773.07,124.51,-950.68,352.05,0.05,2.39,1.66,10.90
45531,788.07,769.01,771.14,764.11,773.08,121.58,-955.57,345.21,-0.55,2.73,0.46,12.99
45564,788.09,768.96,771.07,764.09,773.05,122.56,-936.04,349.61,-0.99,2.33,0.17,11.98
45598,788.18,769.01,771.06,764.09,773.08,124.51,-949.71,346.19,-0.47,1.68,1.41,10.91
45632,788.21,768.90,771.06,764.10,773.07,129.88,-942.87,354.00,-2.05,1.90,-0.88,11.40
45666,788.24,768.90,771.03,764.03,773.05,121.09,-948.24,349.12,-0.31,-1.08,2.98,11.63
45700,788.34,768.91,771.07,764.12,773.11,126.46,-952.15,358.40,-0.53,-0.23,2.05,10.98
45733,788.26,768.97,771.07,764.17,773.12,124.51,-953.12,339.36,-0.11,0.50,-0.62,9.99
45767,788.33,768.95,771.07,764.06,773.10,126.46,-954.10,359.86,1.88,1.00,1.30,11.63
45801,788.36,769.04,771.01,764.08,773.12,119.63,-953.61,346.19,0.89,2.14,1.08,8.95
45835,788.44,769.08,771.01,764.07,773.15,123.05,-940.92,344.24,-0.50,2.46,1.34,8.70
45870,788.46,769.01,771.02,764.09,773.15,131.84,-963.87,363.77,-0.24,-0.60,0.37,8.91
45905,788.44,769.01,770.93,764.09,773.12,133.79,-950.20,358.40,0.05,1.83,-0.79,6.81
45939,788.44,768.89,770.99,764.05,773.09,121.09,-955.08,336.43,-0.47,-1.11,1.27,9.96
45973,788.53,768.90,771.02,764.10,773.14,115.72,-947.75,357.91,-0.12,-0.42,1.34,9.34
46007,788.58,768.97,771.03,763.98,773.14,121.09,-931.64,343.26,1.46,0.31,-1.56,10.86
46041,788.58,768.94,770.96,764.03,773.13,115.23,-948.73,367.68,0.66,0.50,-0.85,8.50
46075,788.60,768.96,770.95,764.12,773.16,125.98,-942.38,354.00,1.11,0.53,-1.39,6.77
46109,788.60,768.90,770.96,763.99,773.11,134.28,-941.89,359.86,0.85,2.45,-2.86,9.50
46144,788.72,768.84,770.94,763.98,773.12,136.23,-943.36,358.40,1.88,2.05,1.93,8.92
46178,788.70,768.78,770.95,763.96,773.09,120.12,-945.80,345.21,1.95,2.09,-0.43,10.13
46212,788.74,768.80,770.90,763.88,773.08,118.16,-946.78,359.37,-0.99,0.52,0.04,9.85
46246,788.83,768.87,770.88,763.87,773.11,136.23,-942.38,368.65,0.31,-0.68,0.64,8.63
46282,788.88,768.86,770.97,763.90,773.15,125.98,-956.54,364.26,0.34,2.69,-2.39,10.18
46316,789.10,768.80,770.93,763.77,773.15,124.02,-957.52,338.38,2.03,1.15,1.18,10.77
46350,789.39,768.84,770.75,763.77,773.19,118.16,-955.08,344.24,1.73,3.24,0.21,5.10
46384,789.52,768.71,770.66,763.70,773.15,127.93,-935.55,342.77,-0.82,4.01,0.31,4.50
46418,789.78,768.74,770.59,763.61,773.18,120.12,-936.04,365.23,2.41,1.05,-2.73,2.95
46454,789.89,768.60,770.55,763.46,773.12,116.70,-941.89,353.52,0.50,-0.56,-1.58,4.97
46488,790.08,768.59,770.39,763.46,773.13,125.00,-939.45,356.93,1.41,1.55,0.14,0.23
46522,790.37,768.58,770.35,763.38,773.17,125.49,-926.76,363.77,2.58,3.48,1.68,-0.38
46556,790.58,768.59,770.27,763.34,773.20,126.95,-945.80,340.33,1.08,0.35,-0.66,-2.54
46591,790.76,768.57,770.26,763.26,773.21,134.28,-936.04,357.91,2.01,1.11,-1.79,-2.17
46625,790.82,768.59,770.19,763.27,773.22,130.37,-953.61,350.10,1.19,0.10,-0.69,-4.40
46659,790.82,768.60,770.19,763.26,773.22,136.72,-956.05,388.67,3.46,-1.37,0.98,-4.11
46695,790.92,768.61,770.22,763.28,773.26,132.32,-952.15,352.54,2.42,2.40,1.57,-4.25
46729,790.98,768.72,770.20,763.26,773.29,118.65,-953.12,344.24,0.20,0.91,-0.18,-5.59
46763,791.02,768.77,770.24,763.35,773.34,119.63,-938.96,363.77,0.49,0.31,-1.46,-6.54
46797,791.06,768.71,770.20,763.30,773.32,132.32,-946.29,347.66,0.54,0.89,1.74,-6.48
46831,791.04,768.70,770.14,763.29,773.29,135.74,-945.80,381.35,0.11,2.25,0.84,-7.59
46865,791.04,768.79,770.10,763.32,773.32,134.77,-962.89,342.29,-0.89,1.63,0.24,-9.63
46900,791.36,768.82,770.04,763.22,773.36,114.75,-938.96,393.55,-0.10,0.79,-2.23,-11.00
46934,791.50,768.78,770.10,763.20,773.39,137.21,-935.55,344.24,-0.85,0.28,-0.48,-9.56
46968,791.88,768.79,769.95,763.18,773.45,143.07,-951.66,371.09,3.95,3.30,0.84,-14.27
47002,792.20,768.75,769.93,763.11,773.50,99.61,-944.82,356.45,-1.04,3.26,0.02,-14.44
47036,792.55,768.74,769.89,763.08,773.57,139.65,-961.43,359.37,0.90,3.54,1.39,-16.22
47070,792.79,768.74,769.73,762.95,773.55,135.25,-923.34,362.79,2.14,2.84,-1.13,-19.13
47106,792.90,768.65,769.72,762.94,773.55,128.42,-936.52,380.86,0.95,-2.46,-0.66,-18.73
47139,793.01,768.62,769.65,762.86,773.54,135.74,-936.52,386.72,1.89,1.15,-0.50,-19.54
47173,793.14,768.56,769.60,762.71,773.50,120.12,-937.01,365.72,-0.79,0.54,-1.30,-18.43
47206,793.06,768.63,769.49,762.77,773.48,111.33,-937.50,352.54,2.15,2.09,3.75,-22.43
47240,793.01,768.55,769.55,762.74,773.46,118.16,-934.08,360.35,0.50,2.40,0.69,-19.66
47273,792.76,768.64,769.65,762.80,773.46,125.98,-937.99,360.35,-1.95,-0.49,-0.44,-17.93
47308,792.64,768.65,769.72,762.86,773.47,125.00,-947.27,358.89,0.69,-1.21,1.76,-16.62
47341,792.50,768.74,769.78,762.88,773.48,130.37,-941.41,362.79,-2.34,-0.15,0.17,-15.88
47377,792.33,768.64,769.68,762.93,773.40,120.61,-938.96,359.86,0.18,1.37,-1.64,-17.56
47411,792.19,768.82,769.76,762.91,773.42,120.61,-934.57,368.65,-1.53,1.73,0.69,-16.27
47445,792.18,768.71,769.77,762.92,773.40,133.79,-936.52,358.40,2.11,1.27,1.48,-15.16
47480,792.07,768.71,769.87,763.08,773.43,120.61,-940.92,357.42,0.72,0.78,-2.15,-14.71
47514,791.83,768.75,769.84,763.10,773.38,126.95,-940.43,352.54,-0.12,1.18,0.21,-15.19
47548,791.63,768.68,769.87,763.06,773.31,145.02,-936.04,373.05,0.02,2.82,-0.34,-12.74
47582,791.18,768.78,769.94,763.13,773.26,114.75,-935.06,367.19,-0.22,1.21,-0.35,-11.33
47617,790.73,768.81,770.02,763.19,773.19,126.95,-927.25,352.05,-2.20,1.45,0.95,-8.99
47651,790.29,769.05,770.14,763.28,773.19,131.35,-944.82,361.33,-1.18,0.00,2.40,-7.62
47685,789.98,768.97,770.27,763.38,773.15,131.84,-946.78,348.63,-3.00,-0.28,2.93,-4.15
47719,789.66,769.09,770.36,763.62,773.19,134.28,-965.33,333.50,-1.95,2.37,-0.47,-5.36
47753,789.44,769.13,770.40,763.66,773.16,132.32,-950.20,344.73,-3.29,2.94,0.10,-4.43
47787,789.11,769.21,770.52,763.73,773.14,116.21,-939.94,341.80,-3.83,1.74,-0.76,-2.03
47821,788.75,769.35,770.57,763.69,773.09,139.16,-950.20,354.98,-3.21,1.94,1.73,-0.04
47856,788.47,769.38,770.64,763.84,773.08,122.56,-947.75,362.30,1.07,-0.99,1.43,0.21
47891,788.10,769.60,770.79,763.95,773.11,135.25,-931.64,369.63,3.64,1.66,2.44,1.92
47926,787.49,769.81,770.92,764.08,773.08,115.72,-954.10,343.26,2.18,0.55,-0.18,3.57
47960,787.03,769.96,771.02,764.24,773.06,127.44,-953.61,374.02,0.89,0.49,-1.56,4.10
47994,786.76,770.15,771.21,764.32,773.11,122.56,-946.78,338.38,2.78,2.64,1.64,6.95
48028,786.57,770.31,771.32,764.50,773.17,122.07,-947.27,375.49,1.40,2.86,1.50,6.49
48062,786.32,770.40,771.43,764.55,773.18,142.58,-976.56,377.44,3.76,2.62,0.85,8.66
48096,786.04,770.57,771.50,764.66,773.19,138.67,-969.73,373.54,0.33,4.08,1.82,8.37
48130,785.85,770.64,771.61,764.74,773.21,120.61,-948.24,359.86,2.47,1.67,1.47,9.97
48165,785.61,770.72,771.59,764.80,773.18,125.98,-975.59,319.82,-2.73,3.08,0.98,8.65
48199,785.41,770.78,771.67,764.79,773.16,117.19,-933.59,346.19,-5.64,0.66,2.93,11.26
48233,785.17,770.99,771.81,764.88,773.21,112.30,-924.32,370.61,1.84,1.31,1.58,12.49
48267,784.79,771.21,771.86,764.93,773.20,107.91,-956.05,350.10,4.46,2.39,3.02,12.63
