currTime,s1,s2,s3,s4,s,AccX,AccY,AccZ,GyroX,GyroY,GyroZ,GRF,Frame,SubFrame,Weight,Fx,Fy,Fz,Mx,My,Mz,Cx,Cy,Cz
10432,805.71,768.15,791.25,767.99,783.28,130.86,-931.64,412.11,1.31,3.31,-1.08,403.23,2087,0,82,-7.49199,-12.021,-41.8727,4309.55,1.30872,-794.674,-497.957,-102.917,0
10466,804.73,767.83,790.75,767.77,782.77,128.42,-921.87,414.06,1.26,1.32,2.72,400.05,2094,0,82,-6.29865,-7.65819,-56.2025,5334.89,41.1554,-866.144,-497.264,-94.9239,0
10500,804.66,767.51,790.03,767.31,782.38,113.77,-927.25,407.71,-0.93,0.05,0.59,391.67,2101,0,82,8.03835,-9.52262,-94.5002,8502.74,2325.9,3.9072,-473.403,-89.9956,0
10534,804.62,767.31,789.73,766.93,782.15,124.02,-906.25,398.93,-5.82,0.84,1.65,391.54,2108,0,82,3.71854,12.8874,-158.344,8314.96,4934.89,690.087,-466.879,-52.6464,0
10570,806.03,767.29,789.62,766.75,782.42,123.05,-921.39,413.57,-3.54,-3.79,2.18,386.81,2115,0,82,7.06697,18.5152,-233.574,7934.38,8798.05,389.561,-460.337,-33.9928,0
10604,807.83,767.36,789.47,766.44,782.77,135.25,-914.55,414.06,-6.93,-3.11,0.27,380.81,2122,0,82,3.74233,35.5558,-286.248,4755.85,11627.9,316.569,-457.38,-16.6215,0
10638,809.69,767.3,789.36,766.09,783.11,122.56,-915.53,390.62,-5.46,-5.77,1.92,377.36,2129,0,82,3.16917,48.0796,-343.043,2101.74,14608.2,324.371,-455.416,-6.13107,0
10673,811.32,767.39,789.35,765.84,783.48,124.51,-930.18,391.6,-7.06,-4.71,1.92,374.45,2136,0,82,-0.202934,58.7595,-422.648,1369.2,18270.6,128.355,-454.772,-3.23859,0
10707,812.07,767.48,789.29,765.55,783.6,118.16,-926.27,385.25,-4.43,-1.6,5.09,373.98,2142,0,82,-2.78111,64.425,-495.591,2240.1,21531.6,-42.843,-454.554,-4.5188,0
10741,811.68,767.35,788.99,765.24,783.32,108.89,-927.25,373.54,-8.52,-4.47,5.27,373.35,2149,0,82,-6.35571,70.4374,-595.228,5844.42,25762.1,-519.968,-454.72,-9.81527,0
10775,810.91,767.26,788.57,764.82,782.89,125,-940.43,369.14,-7.06,-0.31,2.04,372.42,2156,0,82,-9.26177,78.5949,-715.21,9668.2,30666.6,-783.121,-455.122,-13.5168,0
10809,809.1,767.02,787.99,764.47,782.15,111.82,-948.73,375.98,-5.22,2.95,0.02,371.31,2163,0,82,-16.3476,87.1697,-806.915,12482.2,34259.4,-607.214,-455.543,-15.4683,0
10843,804.47,766.5,787.31,764.03,780.58,131.84,-938.96,349.12,-1.1,2.35,2.89,380.91,2170,0,82,-21.201,87.3403,-858.103,14552.6,36368.2,-698.087,-455.618,-16.959,0
10878,793.98,765.67,786.06,763.44,777.28,144.04,-966.31,346.19,-2.74,5.79,2.77,401.12,2177,0,82,-20.8023,86.6485,-847.782,12532.1,36573.8,-746.301,-454.859,-14.7821,0
10912,782.7,764.94,784.4,762.85,773.72,139.16,-955.57,384.77,5.05,9.69,3.26,413,2183,0,82,-20.8251,78.6798,-818.811,11844.8,35801.2,-794.078,-454.277,-14.4659,0
10946,773.17,764.33,782.14,762.3,770.48,121.09,-941.41,387.7,0.95,6.79,-0.97,402.48,2190,0,82,-21.6362,68.5601,-778.158,11655.7,34173.3,-750.457,-454.084,-14.9787,0
10982,765.33,763.99,780.11,761.99,767.85,169.43,-1045.9,373.54,-0.52,12.04,2.18,385.85,2197,0,82,-22.4582,56.3486,-757.918,13235.2,33351.5,-399.292,-453.996,-17.4627,0
11016,759.83,763.72,779.46,762.13,766.28,132.81,-1093.75,278.81,53.55,14.47,31.78,388.7,2204,0,82,-25.3946,50.2501,-746.49,13595.9,32892.7,254.37,-453.937,-18.2131,0
11050,755.56,763.44,778.69,762.32,765,-274.41,-684.57,163.09,80.56,23.92,34.11,383.67,2211,0,82,-27.6263,46.5908,-757.886,15291.1,33292.6,1083.96,-454.072,-20.1758,0
11084,753.58,763.14,777.05,762.06,763.96,106.45,-1347.17,317.38,-50.32,-160.24,31.56,355.87,2218,0,82,-34.5126,42.0807,-779.45,17626.8,33925.2,1832.6,-454.475,-22.6143,0
11119,752.81,762.67,774.44,761.77,762.92,93.26,-1266.6,301.76,-12.28,-120.12,46.46,301.4,2225,0,82,-41.7971,39.1319,-797.061,19550.2,34332.2,2471.02,-454.926,-24.5277,0
11153,752.55,762.3,771.68,761.35,761.97,78.12,-1081.54,310.06,-11.28,-137.72,46.56,242.78,2232,0,82,-49.5758,36.5354,-813.223,21167.5,34697.6,3112.47,-455.333,-26.0291,0
11186,752.64,762.04,769.36,761.05,761.27,137.7,-923.83,334.47,2.2,-141.97,44.52,191.32,2238,0,82,-54.3254,34.3908,-812.195,21911.4,34614.7,3548.14,-455.381,-26.978,0
11220,752.97,762.09,768.17,761.06,761.07,297.36,-733.4,518.55,50.15,-84.17,47.24,159.74,2245,0,82,-60.0868,28.1306,-792.439,22160.2,33865.7,3778.84,-455.264,-27.9646,0
11254,753.38,762.19,767.68,761.09,761.08,423.34,-695.8,734.37,29.12,-47.72,28.96,145.03,2252,0,82,-64.2567,22.3083,-764.879,22073.8,32888.2,4006.88,-455.002,-28.8592,0
11288,753.39,762.28,767.95,761.22,761.21,36.62,-538.57,498.54,12.37,14.91,-6.79,148.97,2259,0,82,-68.5228,15.9477,-723.022,21083.1,31159.5,3858.2,-454.904,-29.1596,0
11322,753.63,762.79,768.4,761.31,761.53,142.58,-897.46,463.87,-61.64,-21.4,-21.35,154.15,2265,0,82,-66.5425,11.1974,-660.119,19159.3,29260.8,3801.31,-453.671,-29.0236,0
11357,754.91,763.7,769.55,761.62,762.44,254.88,-1416.02,528.81,-58.08,-15.83,1.92,166.37,2272,0,82,-52.199,2.21318,-513.946,13136.6,23693.5,3740.27,-451.897,-25.5537,0
11391,756.35,764.15,771.05,762.04,763.4,111.33,-975.59,350.1,31.98,4.35,1.76,189.12,2279,0,82,-30.9816,-4.21185,-364.83,6856.9,17755.8,4106.22,-449.33,-18.7853,0
11425,757.35,764.74,772.4,762.88,764.34,134.77,-910.16,398.44,4.59,-2.01,1.04,202.14,2286,0,82,-17.7587,-8.29475,-246.764,2386.67,12537.9,3877.75,-447.189,-9.65588,0
11459,757.01,765.18,773.07,763.48,764.69,125,-958.5,359.86,-11.48,-3.27,0.26,207.76,2293,0,82,-11.2203,-5.54917,-168.657,-1106.13,8695.4,3562.09,-446.443,6.57905,0
11492,755.85,765.87,773.35,764.44,764.88,135.74,-949.22,365.72,-5.95,0.07,3.27,199.03,2299,0,82,-3.56563,0.283167,-130.104,-4022.88,7012.63,3513.07,-444.096,30.9435,0
11527,754.84,766.36,773.18,765.16,764.88,130.37,-934.08,366.21,1.82,8.81,-2.26,183.61,2306,0,82,-0.0650128,4.23397,-95.9084,-5908.77,5461.94,2537.8,-441.047,61.6577,0
11561,754.03,766.99,773.59,766.09,765.18,180.18,-931.64,416.5,-8.89,9.16,0.62,178.01,2313,0,82,-1.15004,2.97821,-77.5072,-5569.57,4138.51,1701.2,-444.602,71.8589,0
11595,753.94,767.86,774.52,767.06,765.84,79.1,-881.35,385.74,-4.69,13.33,-3.3,180.15,2320,0,82,1.11872,0.384862,-56.722,-4502.42,2953.13,712.835,-445.929,79.4013,0
11629,754.39,768.48,775.25,768.05,766.54,62.01,-927.73,390.14,-0.74,25.37,-5.58,177.07,2327,0,82,5.08232,-2.47681,-43.3064,-3221.21,2349.18,-17.6514,-443.76,74.3711,0
11663,755.48,769.38,775.78,768.88,767.38,41.02,-939.45,287.6,8.59,20.96,-4.95,167.23,2334,0,82,9.63204,-2.9042,-38.4203,-2164.1,2182.84,-285.106,-441.189,56.3409,0
11697,756.69,770.26,776.07,769.69,768.18,139.16,-977.05,381.84,29.09,4.33,0.59,151.4,2340,0,82,14.5311,-2.50408,-42.9419,-1584.08,2908.61,-232.835,-430.27,36.8812,0
11731,757.59,770.92,776.31,770.52,768.84,116.7,-957.03,362.79,7.45,0.67,-2.89,136.75,2347,0,82,17.5404,-0.746984,-53.7891,-1087.58,4248.67,512.81,-419.012,20.2161,0
11767,757.4,771.83,776.81,770.95,769.25,95.7,-930.18,372.07,-8.09,3.21,1.82,136.06,2354,0,82,9.88,0.890218,-61.1849,-1601.94,4572.66,503.494,-423.262,26.1776,0
11802,755.97,772.77,777.71,771.89,769.58,148.44,-929.69,381.35,-9.04,2.64,3.54,142.12,2361,0,82,-2.6477,-3.61895,-76.3232,-1956.65,4869.42,84.8673,-434.192,25.6367,0
11836,754.5,773.58,778.69,772.87,769.91,261.72,-890.14,435.06,-22.67,13.03,1.31,150.73,2368,0,82,-15.2621,-4.29709,-109.932,-1917,6929.47,-26.3214,-434.97,17.4484,0
11870,753.9,774.01,779.12,773.07,770.03,215.82,-903.81,475.59,-17.34,60.69,-15.96,157.13,2375,0,82,-13.716,-0.703148,-152.582,-2280.24,10603.2,729.35,-428.513,14.95,0
11904,754.4,774.25,779.14,772.56,770.09,63.48,-930.66,370.12,-3.89,83.96,-27.02,161.36,2382,0,82,-15.7675,-1.47735,-189.227,-2505.43,13494.5,489.18,-426.685,13.2389,0
11938,758.3,774.34,778.21,771.55,770.6,-41.99,-1093.26,-61.52,1.98,50.61,-23.9,139.24,2389,0,82,-22.4546,-3.8272,-197.423,-3970.58,12935,-369.171,-432.481,20.1123,0
11973,768.84,772.74,775.24,769.54,771.59,166.5,-934.57,463.87,97.41,13.56,-2.63,71.23,2396,0,82,-23.0955,-4.964,-189.66,-6244.71,10927.8,-1094.16,-440.383,32.9275,0
12008,780.42,771.28,773.25,767.59,773.13,176.27,-883.79,392.09,12.59,-15.76,-3.5,22.29,2403,0,82,-23.5037,-4.52267,-179.9,-7572.11,9272.78,-1917.41,-446.456,42.0909,0
12042,786.04,769.83,771.45,766.12,773.36,107.42,-946.78,372.07,-10.53,-3.07,-4.21,-8.4,2409,0,82,-26.3955,-0.655977,-185.447,-9234.01,8765.78,-1753.92,-450.731,49.7919,0
12077,789.35,768.97,769.9,765.02,773.31,127.93,-954.1,366.7,-8.44,1.07,-0.75,-35.23,2416,0,82,-31.369,1.91441,-204.948,-10825.5,9464.48,-1679.3,-451.821,52.8206,0
12111,793.05,768.71,769.27,764.49,773.88,125.49,-937.99,386.72,-2.52,3.17,-1.29,-53.89,2423,0,82,-36.1004,2.22184,-230.275,-11268.8,10888.7,-2294.99,-450.716,48.9389,0
12145,795.93,768.54,769.07,764.15,774.42,147.46,-916.99,364.75,1.77,2.34,-0.21,-62.35,2430,0,82,-45.3638,3.49687,-265.313,-11073.3,12988.3,-2441.89,-449.047,41.7384,0
12181,797.31,768.41,769.02,763.99,774.68,130.37,-932.62,397.46,-0.13,1.79,0.78,-65,2437,0,82,-44.334,4.51455,-300.661,-10691.6,15783.2,-1990.93,-445.505,35.5622,0
12215,797.9,768.28,768.82,763.91,774.73,123.54,-946.29,379.88,2,-0.23,-2.35,-69.74,2444,0,82,-47.3194,1.44031,-326.251,-10152.7,17489.8,-2567.27,-444.392,31.1203,0
12249,798.35,768.22,768.59,763.83,774.75,131.35,-926.27,391.6,-3.1,-2.48,0.15,-75.19,2451,0,82,-53.6122,-2.39094,-333.23,-11164.2,16920,-3527.04,-447.224,33.503,0
12283,798.48,768.18,768.34,763.73,774.68,129.39,-937.5,364.75,0.14,1.61,1.93,-80.18,2458,0,82,-51.091,1.03361,-327.423,-14460.6,15336.2,-3446.15,-451.161,44.166,0
12317,798.29,768.29,768.23,763.66,774.62,136.72,-955.08,375,-2.07,0.05,-0.07,-82.01,2464,0,82,-47.6654,8.97739,-315.821,-16955.1,13773.7,-2140.01,-454.388,53.6864,0
12351,798.57,768.1,768.15,763.41,774.56,117.68,-935.55,388.67,0.39,1.21,1.56,-79.77,2471,0,82,-47.6542,13.2769,-306.596,-17857.6,12667.1,-1137.17,-456.685,58.2449,0
12385,798.7,768,767.96,763.17,774.46,129.39,-934.08,382.32,-1.95,3.69,0.14,-80.82,2478,0,82,-54.9833,14.1721,-303.398,-16287,12128.7,-1060.42,-458.024,53.6831,0
12420,798.56,768.1,767.86,762.98,774.37,125.98,-930.66,371.58,-1.29,-0.75,-0.43,-80.69,2485,0,82,-70.4034,1.64549,-327.185,-9839.88,13708.8,-2919.2,-456.104,30.0871,0
12454,798.09,768.17,768.01,762.8,774.27,124.02,-950.2,378.91,-2.88,-2.12,0.53,-73.4,2492,0,82,-49.3096,-9.0073,-381.686,2468.95,20827.4,-2963.86,-443.443,-6.4383,0
12488,797.41,768.21,768.26,762.76,774.16,130.37,-938.96,371.09,-3.22,-4.02,1.54,-64.65,2499,0,82,-52.6327,-13.2763,-443.924,13072.7,27530.4,-3028.79,-435.985,-29.4464,0
12522,797.04,768.15,768.34,762.75,774.07,117.68,-940.43,373.54,-1.54,-0.73,-0.25,-60.72,2505,0,82,-54.5988,-19.8243,-448.277,18023.8,28875.6,-3516.15,-433.585,-40.2079,0
12556,796.61,768.16,768.54,762.74,774.01,117.19,-933.11,373.05,1.64,-1.94,1.28,-53.99,2512,0,82,-53.7295,-21.3654,-438.319,20896.3,29063.5,-3271.14,-431.693,-47.6738,0
12592,796.38,768.15,768.6,762.75,773.97,117.68,-933.59,370.12,2.1,2.64,1.11,-51.82,2519,0,82,-53.9086,-19.9793,-453.344,23293.8,30400.5,-2952.25,-430.942,-51.3816,0
12626,796.16,768.09,768.66,762.65,773.89,129.88,-943.36,385.74,0.48,2.57,-0.92,-47.54,2526,0,82,-56.1,-15.4839,-470.872,25020.1,31953.5,-2718.41,-430.14,-53.1352,0
12660,796.01,768.01,768.68,762.6,773.82,118.65,-931.64,370.12,2.74,4.47,-1.46,-45.14,2533,0,82,-56.7614,-12.6606,-478.527,25410,32623,-2229.41,-429.826,-53.1005,0
12694,795.97,767.62,768.51,762.45,773.64,115.72,-932.13,382.81,1.86,2.63,-0.54,-43.97,2540,0,82,-53.4497,-10.4016,-474.095,25496.7,32449.4,-1712.31,-429.555,-53.7798,0
12727,796.41,766.97,768.13,762.13,773.41,103.03,-943.85,386.72,4.57,2.58,-1.37,-45.12,2546,0,82,-53.18,-11.2451,-471.613,26054,32264.7,-1536.06,-429.586,-55.2444,0
12761,796.8,766.55,767.76,761.84,773.24,123.54,-898.93,399.41,6.76,5.76,-1.64,-47.99,2553,0,82,-53.6406,-10.267,-466.173,25783.7,31654.6,-1192.47,-430.097,-55.3092,0
12795,796.58,766.26,767.46,761.72,773.01,130.37,-938.96,387.7,3,3.46,-2.48,-50.75,2560,0,82,-52.5984,-7.77435,-457.911,25183,30911.6,-836.844,-430.494,-54.9959,0
12828,796.43,766.03,767.17,761.75,772.85,119.14,-937.5,390.62,3.69,1.81,-2.93,-55.86,2567,0,82,-50.2791,-9.91204,-450.501,25255.1,30224.5,-609.148,-430.909,-56.06,0
12862,796.04,765.93,767.07,761.85,772.72,125.49,-930.18,388.67,1.94,3.51,2.72,-57.68,2573,0,82,-48.5359,-9.94472,-444.267,25455.2,29827.9,-476.26,-430.86,-57.2973,0
12896,795.72,765.91,767.13,761.71,772.61,123.05,-945.8,368.65,3.69,1.4,0.44,-52.97,2580,0,82,-47.5054,-9.64002,-439.422,25194.5,29293.7,-423.791,-431.336,-57.3355,0
12930,795.52,766.01,767.18,761.78,772.62,127.44,-921.39,381.84,0.72,1.4,1.21,-52.7,2587,0,82,-47.3328,-8.54031,-433.684,24297.5,28640.4,-272.46,-431.96,-56.0255,0
12965,794.63,766.11,767.43,761.87,772.51,138.18,-941.89,394.04,0.35,0.52,0.56,-45.6,2594,0,82,-46.1865,-6.33901,-424.396,22869.9,27851.6,53.1272,-432.373,-53.888,0
13050,789.7,767.03,768.68,762.44,771.96,125.98,-932.62,393.55,-5.79,2.19,1.89,-13.55,2611,0,82,-43.9155,-3.678,-413.277,21116.5,27170.8,483.29,-432.255,-51.0951,0
13086,788.04,767.35,769.52,762.97,771.97,114.26,-933.59,364.75,-7.22,-1.05,0.63,2.78,2618,0,82,-43.4719,-2.55305,-410.986,20972.9,27077.5,532.612,-432.116,-51.0306,0
13147,786.98,767.64,770.11,763.35,772.02,122.07,-938.48,366.7,-6.49,1.2,2.28,13.4,2630,0,82,-42.5995,-2.84825,-402.011,20834.6,26674.3,273.256,-431.648,-51.8263,0
13205,787.02,767.96,770.41,763.42,772.2,121.09,-951.66,376.46,-4.53,-3.5,0.59,17.03,2642,0,82,-40.0009,-7.45351,-384.406,22193.4,26482.8,-157.353,-429.107,-57.7344,0
13248,787.35,768.27,770.51,763.45,772.4,115.23,-950.68,349.61,-3.66,-1.59,-0.6,15.41,2651,0,82,-39.959,-8.51072,-387.536,23820.5,27052.7,-668.79,-428.193,-61.4667,0
13282,787.46,768.62,770.51,763.55,772.54,126.46,-937.99,356.93,-2.27,-1.68,-0.19,10.84,2657,0,82,-39.9008,-7.96987,-380.846,23661.8,26729.4,-816.844,-427.816,-62.1297,0
13316,787.42,768.9,770.72,763.72,772.69,137.21,-962.89,345.7,-0.39,-1.41,-0.05,11.5,2664,0,82,-39.9025,-7.82267,-374.414,23406.4,26347.3,-914.858,-427.631,-62.5148,0
13352,786.92,769.25,770.85,763.9,772.73,124.51,-951.17,355.47,0.39,2.36,1.22,10.86,2671,0,82,-39.4961,-7.23706,-370.097,22782.1,26102.6,-1037.3,-427.471,-61.557,0
13386,786.68,769.44,770.98,764.06,772.79,116.7,-937.5,369.14,-0.05,1.25,0.59,11.09,2678,0,82,-39.448,-6.12287,-369.789,22116.6,26045.6,-800.049,-427.566,-59.8088,0
13420,786.16,769.53,771.18,764.21,772.77,123.54,-942.87,354.98,2.03,2.5,0.27,15.04,2685,0,82,-38.9163,-6.00538,-371.696,21624.6,26191.9,-786.081,-427.534,-58.1782,0
13454,785.6,769.53,771.32,764.4,772.71,114.75,-943.85,354,2.62,1.95,-2.94,17.45,2692,0,82,-38.8457,-5.33578,-369.837,20198.7,25913.8,-520.858,-427.932,-54.6148,0
13488,785.7,769.64,771.4,764.51,772.81,106.93,-937.01,356.93,0.08,2.15,-2.79,16.76,2699,0,82,-38.5623,-3.43529,-365.11,17850.2,25071.8,-181.16,-429.331,-48.8892,0
13522,786.36,769.64,771.49,764.55,773.01,122.07,-935.06,365.23,-0.04,-1.02,-1.56,16.1,2705,0,82,-38.1414,0.3579,-358.833,15409.1,24340.8,480.657,-430.167,-42.9423,0
13556,787.26,769.75,771.43,764.53,773.24,106.45,-934.08,352.54,-0.17,-0.89,-0.18,10.93,2712,0,82,-37.6467,3.42788,-360.036,12898.4,23990.4,1144.26,-431.367,-35.8255,0
13591,787.62,769.68,771.46,764.54,773.32,127.44,-936.52,354.49,1.53,-0.73,0.47,10.78,2719,0,82,-36.2175,3.24411,-357.143,11754.5,23621.4,1443.33,-431.86,-32.9125,0
13625,787.24,769.66,771.36,764.48,773.19,125.98,-942.38,363.77,0.6,0.04,0.91,10.75,2726,0,82,-35.9678,2.49415,-357.301,11306.6,23447.9,1709.99,-432.375,-31.6443,0
13659,786.85,769.65,771.37,764.4,773.07,114.75,-946.29,354.49,-1.15,0.8,1.79,13.62,2733,0,82,-36.6308,1.52825,-359.883,11345.6,23450.9,1831.04,-432.837,-31.5259,0
13693,786.74,769.59,771.4,764.33,773.01,134.28,-937.99,354.98,-0.74,1.18,-1.15,16.26,2740,0,82,-37.6397,-0.0586162,-363.25,11556.9,23396.7,1949.28,-433.591,-31.8151,0
13727,786.69,769.71,771.4,764.4,773.05,122.07,-941.41,368.65,0.69,1.66,0.88,14.26,2746,0,82,-39.1941,-1.72183,-369.183,11726.4,23563,1847.22,-434.175,-31.7631,0
13763,786.64,769.83,771.45,764.39,773.08,114.75,-950.2,350.59,-0.4,1.66,1.15,15.04,2754,0,82,-40.6101,-2.7409,-373.553,11865.2,23443.4,1731.67,-435.242,-31.7633,0
13797,786.4,769.86,771.45,764.5,773.05,108.89,-937.5,359.86,0.09,0.24,2.3,13.82,2760,0,82,-41.3754,-2.31351,-380.077,11339.5,23593.5,1850.75,-435.924,-29.835,0
13831,786.1,769.96,771.54,764.57,773.05,125,-933.59,359.86,0.5,1.59,-0.49,15.36,2767,0,82,-41.1438,0.504374,-381.822,10682.3,23510.5,2178.72,-436.425,-27.9771,0
13865,785.63,770.13,771.68,764.64,773.02,125,-937.99,354.98,0.32,2.63,3.66,17.98,2774,0,82,-42.1785,2.01537,-385.531,9913.1,23622.5,2325.47,-436.727,-25.713,0
13899,785.03,770.24,771.67,764.76,772.92,118.16,-945.8,369.63,-2.69,2.02,-0.57,17.36,2781,0,82,-42.1044,3.63214,-385.25,9395.14,23572,2279.59,-436.814,-24.3871,0
13934,784.58,770.31,771.78,764.81,772.87,120.61,-936.52,353.03,-0.95,1.01,2.98,20.26,2788,0,82,-41.9311,4.58248,-380.497,8592.32,23197.1,2297.1,-437.035,-22.5818,0
13969,784.1,770.35,771.83,764.86,772.79,115.72,-946.29,357.42,-0.31,0.91,2.82,22.07,2795,0,82,-42.7213,5.14648,-385.782,8982.69,23636.4,2162.92,-436.731,-23.2842,0
14004,783.56,770.51,771.98,764.97,772.76,116.7,-958.98,359.86,-0.21,-0.29,1.81,24.8,2802,0,82,-44.4404,4.16183,-397.34,9592.26,24546,2013.19,-436.225,-24.1406,0
14038,783.14,770.67,772.04,765.12,772.74,116.21,-937.5,349.61,-1.26,1.56,1.7,24.18,2809,0,82,-45.3723,2.0852,-413.959,10919.9,25871.5,1889.33,-435.502,-26.3789,0
14072,782.84,770.69,772.09,765.04,772.67,115.23,-944.82,353.52,-1.87,1.83,0.74,27.46,2815,0,82,-45.236,-0.347115,-416.612,11569.1,26035.7,1810.97,-435.506,-27.7695,0
14106,782.65,770.71,772.17,765.19,772.68,127.44,-944.82,348.63,0.37,0.94,-0.2,27.76,2822,0,82,-43.9902,-1.90178,-407.992,11332.1,25453.5,1683.83,-435.613,-27.7753,0
14140,782.51,770.84,772.31,765.26,772.73,108.4,-934.57,358.89,-0.6,1.52,1.69,29.69,2829,0,82,-42.9937,-1.52016,-396.973,10883.2,24530.8,1785.76,-436.205,-27.4155,0
14176,782.49,770.85,772.3,765.24,772.72,126.95,-950.2,353.03,-0.21,-0.37,0.34,29.58,2836,0,82,-42.6819,-1.22332,-395.614,10607.1,24484.1,1811.56,-436.111,-26.8118,0
14210,782.1,770.82,772.32,765.27,772.63,126.46,-937.99,354,1.49,2.18,-0.56,31.16,2843,0,82,-42.0552,-1.34206,-397.216,10585.8,24518.5,1766.56,-436.274,-26.6502,0
14244,781.49,770.72,772.32,765.24,772.44,117.68,-962.4,355.47,2.5,1.68,1.53,34.63,2850,0,82,-42.7433,-1.94016,-398.093,10300.8,24484.9,1714.51,-436.494,-25.8755,0
14278,781.34,770.66,772.36,765.25,772.4,113.28,-954.59,368.65,0.17,2.77,-1.31,36.49,2857,0,82,-42.5804,-1.86111,-399.479,10110.6,24433,1801.47,-436.838,-25.3096,0
14312,781.85,770.7,772.39,765.24,772.54,105.47,-939.45,356.93,0.36,-0.64,-0.91,35.2,2863,0,82,-42.1118,-1.38546,-397.958,9647.38,24332.1,1937.33,-436.858,-24.2422,0
14347,782.57,770.66,772.41,765.34,772.75,108.4,-936.52,359.37,0.91,1.08,-0.27,32.14,2870,0,82,-41.8445,0.052816,-394.794,9010.66,23894.7,2118.09,-437.476,-22.8236,0
14381,782.66,770.79,772.43,765.34,772.81,118.16,-946.78,361.33,-0.91,0.24,-1.94,31.22,2877,0,82,-42.0458,0.615442,-390.832,8297.67,23536.5,2336,-437.778,-21.2308,0
14414,782.33,770.78,772.41,765.25,772.69,111.33,-956.54,359.86,-2.28,2.82,2.85,33.44,2884,0,82,-41.5711,0.350711,-387.832,7637.27,23252.4,2461.77,-438.045,-19.6922,0
14448,781.76,770.73,772.48,765.29,772.57,126.46,-946.29,352.05,2.02,2.49,0.15,36.73,2891,0,82,-40.6788,-0.236991,-387.907,7245.61,23274.6,2518.88,-437.999,-18.6787,0
14482,781.31,770.73,772.53,765.31,772.47,120.12,-960.94,341.31,0.54,2.04,-0.05,39.48,2897,0,82,-40.436,-0.193968,-385.252,6762.95,23025.2,2587.26,-438.234,-17.5547,0
14515,781.2,770.75,772.56,765.35,772.46,107.42,-936.04,364.26,0.34,2.08,-1.63,39.8,2904,0,82,-40.8771,1.05507,-385.776,6375.44,22879.1,2612.05,-438.693,-16.5263,0
14549,781.28,770.79,772.5,765.41,772.5,112.3,-935.06,358.4,1.62,2.44,-0.94,36.9,2911,0,82,-40.666,1.16081,-384.608,6107.31,22794.6,2670.1,-438.733,-15.8793,0
14584,781.45,770.81,772.62,765.35,772.56,130.86,-941.41,355.96,-1.27,2.02,-0.21,39.98,2918,0,82,-40.8526,1.44264,-386.725,6060.54,22936.2,2681.81,-438.691,-15.6715,0
14618,781.46,770.74,772.54,765.32,772.51,116.7,-944.82,355.96,-0.6,-1.02,-0.84,38.89,2925,0,82,-41.0347,0.40599,-388.688,5992.32,23100.2,2708.9,-438.569,-15.4168,0
14652,781.37,770.76,772.55,765.32,772.5,108.4,-944.82,354.49,2.1,1.81,-1.66,39.39,2931,0,82,-40.9474,-0.557286,-388.807,6115.54,23157.2,2676.26,-438.44,-15.729,0
14686,781.38,770.7,772.57,765.41,772.51,115.72,-951.17,352.05,-0.3,1.27,-0.78,38.82,2938,0,82,-40.6449,-0.417733,-386.484,5941.53,22919.1,2571.77,-438.699,-15.3732,0
14720,781.37,770.6,772.52,765.36,772.46,115.23,-934.57,358.89,1.76,3.33,-0.69,39.19,2945,0,82,-39.7233,-0.140059,-375.601,5412.89,22197.7,2714.26,-438.901,-14.4113,0
14753,781.48,770.62,772.52,765.43,772.51,127.44,-948.24,349.61,0.95,-0.58,1.29,37.63,2952,0,82,-39.0033,0.303907,-372.688,5120.69,21970.4,2750.57,-439.049,-13.7398,0
14787,781.75,770.55,772.55,765.45,772.58,114.75,-951.66,346.19,-1,2.21,0.67,37.75,2958,0,82,-39.6053,0.979378,-380.853,5428.8,22637,2694.03,-438.562,-14.2538,0
14821,782.01,770.62,772.46,765.54,772.66,116.21,-948.24,372.56,0.92,0.42,1.11,32.7,2965,0,82,-40.501,-0.659383,-396.42,6568.45,23909.6,2686.34,-437.686,-16.5687,0
14858,782.16,770.59,772.49,765.35,772.65,109.86,-937.5,368.16,0.9,1.83,-0.31,36.1,2973,0,82,-41.2946,-3.61072,-400.723,6973.71,24147.9,2475.46,-437.739,-17.4028,0
14893,782.23,770.56,772.46,765.39,772.66,112.79,-946.78,354,0.37,-0.8,0.38,34.6,2980,0,82,-42.0556,-3.36096,-396.745,6818.84,23746.8,2452.64,-438.146,-17.1868,0
14927,782.16,770.52,772.45,765.36,772.62,125.49,-945.31,364.75,0.52,0.15,-0.9,35.63,2986,0,82,-41.0949,-1.90798,-387.094,5974.69,22998.5,2603.63,-438.587,-15.4344,0
14962,782.08,770.45,772.38,765.29,772.55,115.23,-944.82,366.21,-1.46,2.15,-1.26,35.39,2993,0,82,-40.2988,0.726932,-378.436,5314.02,22441.4,2736.07,-438.7,-14.0421,0
14997,782.11,770.35,772.33,765.25,772.51,132.81,-951.66,351.56,1.51,-0.13,-1.52,35.69,3000,0,82,-39.957,1.71452,-378.538,4895.53,22438.5,2894.23,-438.723,-12.9327,0
15031,782.42,770.31,772.34,765.19,772.56,114.26,-954.59,354,-0.34,0.19,0.06,35.89,3007,0,82,-39.6895,1.78373,-381.643,5122.95,22707.6,3015.18,-438.5,-13.4234,0
15065,782.64,770.28,772.32,765.16,772.6,128.91,-947.75,351.07,-0.2,1.97,2.53,35.37,3014,0,82,-40.6622,-0.112104,-385.898,5661.32,23088.5,2864.21,-438.169,-14.6705,0
15099,782.82,770.34,772.31,765.11,772.64,123.05,-932.62,350.59,-0.14,1.74,0.6,34.66,3021,0,82,-40.9462,-1.21914,-385.887,5724.77,23044,2747.93,-438.283,-14.8354,0
15133,782.95,770.28,772.23,765.13,772.65,109.37,-941.89,357.91,3.6,0.55,-0.07,32.55,3028,0,82,-40.6393,-0.62083,-383.909,5739.78,22978.3,2711.77,-438.147,-14.9509,0
15167,783.06,770.28,772.25,765.1,772.67,126.46,-944.34,343.75,0.13,2.53,-2.63,33.24,3034,0,82,-40.9785,-0.962684,-383.118,5595.31,22962.6,2564.61,-438.064,-14.6047,0
15201,783.3,770.15,772.21,765.01,772.66,121.09,-949.71,352.54,1.51,2.93,3.05,33.62,3041,0,82,-40.5942,-0.569127,-383.764,5778.89,23168.5,2582.34,-437.628,-15.0585,0
15236,783.66,770.02,772.18,764.87,772.68,107.91,-949.71,364.75,2.15,1.53,0.09,34.83,3048,0,82,-40.5593,-0.535098,-386.714,5959.78,23370.3,2626.79,-437.567,-15.4113,0
15270,783.98,770.01,772.02,764.82,772.71,118.65,-940.43,358.89,0.08,0.18,-0.53,30.56,3055,0,82,-40.9237,-0.824871,-391.802,6229.54,23823.5,2495.33,-437.195,-15.8997,0
15304,784.11,769.84,771.88,764.75,772.65,130.86,-936.04,356.93,0.53,1.44,1.1,29.06,3062,0,82,-40.6353,-1.60132,-394.475,6506.72,24058.4,2418.69,-437.012,-16.4946,0
15338,784.34,769.8,771.77,764.65,772.64,124.02,-935.55,352.54,0.89,2.95,-1.2,27.2,3069,0,82,-41.2032,-1.67182,-395.227,6925.83,24112.6,2274.93,-436.991,-17.5237,0
15374,784.49,769.69,771.81,764.54,772.63,117.19,-928.22,361.82,-1.08,1.25,0.12,30.12,3076,0,82,-41.3613,-2.30726,-394.38,6960.06,24058.6,2189.47,-436.996,-17.6482,0
15408,784.69,769.67,771.73,764.58,772.67,122.56,-943.85,343.26,0.69,2.01,0.18,27.05,3083,0,82,-41.1287,-2.49983,-391.957,6937.59,23917.1,2197.67,-436.98,-17.6999,0
15442,784.72,769.63,771.77,764.53,772.66,104,-946.78,365.72,2.35,1.69,1.7,29.04,3089,0,82,-40.2799,-1.89328,-387.206,6971.22,23647.2,2238.33,-436.928,-18.0039,0
15477,785.06,769.62,771.77,764.55,772.75,112.79,-938.48,357.42,-0.84,0.89,-1.18,27.75,3096,0,82,-39.8187,-2.26102,-385.938,6917.39,23509.3,2206.76,-437.085,-17.9235,0
15511,785.17,769.65,771.73,764.53,772.77,115.23,-931.64,369.14,2.31,2.6,-0.81,26.22,3103,0,82,-40.0179,-2.08307,-388.905,7510.45,23790.1,2133.94,-436.828,-19.3118,0
15545,785.3,769.59,771.67,764.55,772.78,123.05,-941.41,358.89,-1.63,0.37,2.9,24.69,3110,0,82,-40.678,-2.55378,-391.46,7775.62,24028,2025.46,-436.62,-19.8631,0
15579,785.36,769.66,771.66,764.51,772.8,129.39,-928.71,354.49,0.76,1.56,3.82,24.08,3117,0,82,-40.6069,-2.37744,-393.467,7989.46,24168.4,1918.16,-436.576,-20.3052,0
15613,785.38,769.62,771.71,764.45,772.79,115.23,-943.85,359.37,2.29,1.26,2.55,26.48,3124,0,82,-41.019,-1.11882,-394.412,8264.82,24267.9,2045.64,-436.471,-20.9548,0
15647,785.26,769.67,771.65,764.44,772.75,125,-941.41,351.56,-0.73,4.52,0.23,25.18,3130,0,82,-40.9974,-0.538197,-393.768,8243.45,24299.5,2105.22,-436.29,-20.9349,0
15681,785.18,769.61,771.65,764.43,772.72,120.12,-938.96,355.47,2.15,2.53,-1.02,26,3137,0,82,-40.4354,-0.387236,-391.009,8523.82,24278.5,2077.01,-435.908,-21.7995,0
15716,785.24,769.69,771.71,764.5,772.79,111.33,-933.11,362.79,-0.64,-1.14,-1.64,25.86,3144,0,82,-40.2266,-0.600145,-390.892,9109.41,24296.9,1964.34,-435.842,-23.3043,0
15750,785.2,769.63,771.68,764.53,772.76,122.07,-937.5,356.45,0.14,1.34,-1.13,25.09,3151,0,82,-40.1149,-1.22329,-388.96,9872.86,24340.9,1744.36,-435.421,-25.3828,0
15787,785.2,769.63,771.64,764.56,772.76,120.12,-944.34,354.49,-1.59,0.6,0.59,23.81,3158,0,82,-39.5813,-1.70585,-386.365,10076.6,24190.9,1688.53,-435.388,-26.0804,0
15821,785.13,769.62,771.68,764.55,772.75,116.21,-957.03,367.68,0.02,-0.87,0.04,25.24,3165,0,82,-39.8121,-1.91999,-385.683,10324,24158.3,1604.3,-435.362,-26.7682,0
15855,785.03,769.55,771.71,764.54,772.71,117.68,-947.27,357.42,-0.81,0.19,-0.57,27.12,3172,0,82,-39.9503,-1.88551,-386.592,10648.1,24244.3,1545.57,-435.287,-27.5434,0
15890,784.88,769.66,771.82,764.54,772.73,123.54,-950.68,359.86,0.87,0.63,-0.27,29.22,3179,0,82,-39.7581,-1.91838,-388.663,10779.6,24407.1,1674.5,-435.203,-27.7351,0
15924,784.81,769.64,771.78,764.64,772.72,120.61,-930.66,352.05,-1.21,1.95,-0.07,27.34,3186,0,82,-39.7687,-1.88873,-388.672,10930.4,24456.5,1616.25,-435.077,-28.1222,0
15958,784.73,769.71,771.87,764.6,772.72,120.61,-942.38,360.35,-1.53,-0.16,1.27,29.85,3193,0,82,-39.9061,-2.06748,-391.127,11103.7,24694.9,1567.42,-434.862,-28.389,0
15992,784.72,769.71,771.79,764.62,772.71,107.42,-937.5,354.49,-1.27,0.94,-1.47,27.48,3199,0,82,-39.974,-2.43322,-393.224,11341.7,24891.8,1538.96,-434.698,-28.8429,0
16026,784.67,769.79,771.82,764.73,772.75,124.51,-944.82,353.03,-0.27,3.31,1.06,26.33,3206,0,82,-40.4522,-3.10166,-395.388,11428.5,25065.6,1487.64,-434.605,-28.9046,0
16060,784.62,769.84,771.92,764.73,772.78,116.21,-949.71,362.79,-0.3,1.08,-0.09,28.58,3213,0,82,-40.5461,-3.75403,-396.269,11455.7,25142.8,1494.5,-434.551,-28.9088,0
16093,784.43,769.85,771.89,764.65,772.71,123.05,-928.22,350.59,0.63,-0.85,0.4,29.65,3220,0,82,-40.4621,-3.61089,-394.656,11527.4,25028.6,1428.65,-434.581,-29.2089,0
16127,784.29,769.84,771.98,764.77,772.72,125,-947.27,341.8,0.71,2.05,0.79,30.51,3226,0,82,-39.8899,-3.58723,-392.508,11391.2,24797,1477.98,-434.824,-29.0216,0
16160,784.28,769.89,771.92,764.77,772.72,124.51,-934.08,352.54,1.1,1.57,0.69,28.57,3233,0,82,-39.5892,-3.22766,-390.218,11250.6,24655.2,1575.09,-434.817,-28.8315,0
16196,784.24,769.99,772,764.82,772.76,125.98,-952.64,359.37,0.43,0.03,-0.62,29.14,3240,0,82,-39.8897,-3.43235,-391.892,11110.8,24824,1555.13,-434.656,-28.3516,0
16229,784.3,770.04,772.01,764.83,772.79,111.82,-936.52,355.96,1.8,0.34,1.95,28.85,3247,0,82,-39.3755,-3.19227,-391.972,11152.6,24820.7,1558.52,-434.678,-28.4525,0
16264,784.28,769.96,772.06,764.93,772.81,118.16,-952.15,363.77,1.34,1.02,0.76,29.34,3254,0,82,-40.117,-3.42077,-392.96,11105,24920.5,1643,-434.583,-28.2598,0
16298,784.16,769.99,772.05,764.97,772.79,136.23,-942.38,354,-1.4,0.77,-1.64,28.79,3261,0,82,-39.8392,-3.05601,-394.438,11048.5,25008.7,1724.08,-434.597,-28.0107,0
16331,784.15,770.04,772,764.85,772.76,118.16,-954.59,350.1,-0.34,1.85,1.58,28.82,3267,0,82,-39.381,-3.11092,-393.592,10805.8,24973.7,1648.74,-434.549,-27.4544,0
16365,784.15,769.99,772.11,764.89,772.78,118.16,-956.05,358.89,2,1,-0.8,31.19,3274,0,82,-39.7139,-2.00834,-392.291,10658.2,24873.4,1785.89,-434.595,-27.169,0
16399,784.26,770.06,772.06,764.9,772.82,126.46,-955.08,355.96,0.26,0.79,-0.65,28.98,3281,0,82,-39.9792,-2.06408,-390.623,10381.5,24666.6,1902.78,-434.853,-26.5768,0
16433,784.34,770.14,772.07,764.89,772.86,118.16,-931.15,356.45,-1.39,1.15,-0.31,28.6,3288,0,82,-40.0944,-1.79563,-391.654,10332.3,24672,1795.72,-435.006,-26.3812,0
16467,784.4,770.13,772.05,764.85,772.86,117.68,-929.69,369.63,-0.63,1.02,0.12,28.41,3294,0,82,-39.496,-1.83956,-392.084,10143.7,24668.7,1894.43,-435.083,-25.8713,0
16501,784.29,770.13,772.07,764.88,772.84,113.77,-944.34,376.46,0.27,2.79,-0.44,29.02,3301,0,82,-40.304,-1.79387,-395.073,10279.2,24860.8,1849,-435.073,-26.0184,0
16535,784.2,770.1,772.01,764.74,772.76,126.46,-937.5,366.7,1.26,3.53,0.11,29.84,3308,0,82,-40.5441,-2.36002,-396.068,9999.33,24806.6,1870.73,-435.368,-25.2465,0
16569,784.05,770.09,771.9,764.78,772.7,125.49,-949.22,362.79,1.03,2.4,-0.27,27.11,3315,0,82,-40.1373,-2.53278,-394.397,9708.09,24676.1,1795.42,-435.433,-24.6149,0
16605,784.02,770.06,771.97,764.76,772.7,108.4,-943.36,350.1,0.11,4.46,2.98,29.54,3322,0,82,-39.8293,-1.96886,-393.486,9632.53,24513,1803.64,-435.703,-24.48,0
16639,784.03,770.16,771.89,764.85,772.73,126.95,-938.96,357.42,1.79,4.1,2.35,25.39,3329,0,82,-40.0249,-1.96637,-393.193,9437.89,24555.1,1843.38,-435.55,-24.0032,0
16673,783.98,770.16,772.05,764.88,772.77,113.77,-938.48,350.59,-0.05,-0.1,0.03,29.18,3336,0,82,-40.3483,-2.20944,-395.023,9282.28,24553.1,1837.09,-435.844,-23.4982,0
16709,783.88,770.11,772.02,764.88,772.72,119.14,-940.43,365.72,0.63,1.34,0.11,29.1,3343,0,82,-40.8523,-2.19261,-398.069,9368.41,24778.8,1946.95,-435.752,-23.5346,0
16743,783.88,770.1,772,764.91,772.72,113.28,-942.87,362.79,0.43,1.67,0.73,28.21,3350,0,82,-40.7187,-2.36973,-398.186,9297.75,24834.2,2024.45,-435.632,-23.3503,0
16777,783.95,770.09,771.96,764.86,772.71,101.07,-940.43,363.28,0.89,2.4,1.34,27.86,3356,0,82,-40.7922,-1.95795,-396.895,9143.8,24681.3,2014.5,-435.814,-23.0383,0
16811,783.95,770.17,771.92,764.78,772.7,139.65,-950.68,359.86,1.46,0.21,0.44,27.29,3363,0,82,-40.859,-1.2829,-396.261,9240.71,24671.9,2066,-435.738,-23.3198,0
16845,784.04,770.08,771.94,764.75,772.7,118.65,-937.99,354.98,1.68,-1.34,0.81,28.63,3370,0,82,-40.7279,-1.08017,-396.833,9261.19,24651.7,2138.41,-435.879,-23.3377,0
16880,783.82,770.09,771.98,764.79,772.67,115.72,-937.99,353.03,1.18,1.39,0.66,29.86,3377,0,82,-40.9176,-1.14291,-396.373,9344.77,24678.1,2234.71,-435.74,-23.5757,0
16914,783.67,770.12,771.89,764.84,772.63,129.39,-956.05,355.47,-0.47,1.34,-0.24,27.23,3384,0,82,-40.7741,-1.11912,-399.356,9541.9,24762.3,2160.45,-435.995,-23.8932,0
16948,783.44,770.19,771.88,764.82,772.58,132.81,-946.29,355.47,-1.73,2.24,1.3,27.3,3391,0,82,-41.0172,-1.72794,-399.082,9699.85,24681.4,2106.37,-436.154,-24.3054,0
16982,783.09,770.21,771.91,764.88,772.52,117.68,-933.11,352.05,-0.79,-1.28,-1.42,28.37,3397,0,82,-41.0663,-2.45258,-396.039,9644.01,24470.8,2035.45,-436.211,-24.3512,0
17018,782.93,770.2,771.96,764.85,772.48,132.81,-945.8,364.26,1.41,2.1,0.89,30.6,3405,0,82,-40.5163,-3.22261,-391.456,9334.14,24013.9,1924.88,-436.655,-23.8447,0
17052,782.9,770.25,772.03,765.01,772.55,128.42,-939.94,361.82,2.11,1.37,2.26,29.86,3411,0,82,-39.946,-2.68648,-389.21,9372.05,23926.4,2012.8,-436.526,-24.0798,0
17086,783.06,770.34,772.04,764.98,772.61,126.95,-933.59,357.91,-1.05,3.8,-3.27,29.19,3418,0,82,-39.8605,-2.77195,-390.046,8974.37,23956.5,1993.33,-436.58,-23.0085,0
17120,783.12,770.41,772.16,765.11,772.7,122.07,-948.24,356.45,-0.52,1.95,0.24,29.43,3425,0,82,-39.5296,-2.05609,-389.787,8947.05,24001.9,2038.65,-436.423,-22.9537,0
17154,783.24,770.43,772.22,765.19,772.77,119.14,-951.66,364.26,-0.73,0.59,-1.6,29.18,3432,0,82,-39.5098,-1.02602,-390.821,8934.71,23992,2091.03,-436.611,-22.8614,0
17188,783.11,770.4,772.18,765.18,772.72,129.39,-943.85,352.54,0.89,0.22,3.21,29.01,3439,0,82,-39.5412,-1.02314,-387.547,8686.34,23787.1,2025.21,-436.621,-22.4137,0
17223,782.89,770.49,772.26,765.25,772.72,104,-954.1,356.45,1.57,1.65,-0.01,30.06,3446,0,82,-39.2194,-1.21329,-385.479,8828.95,23659.6,1924.33,-436.623,-22.9038,0
17257,782.9,770.49,772.24,765.19,772.7,109.37,-950.68,355.96,0.11,2.69,-1.08,30.51,3452,0,82,-38.9868,-2.27141,-386.271,8895.59,23651.9,1893.46,-436.768,-23.0294,0
17291,783.07,770.55,772.25,765.17,772.76,109.86,-945.31,363.77,-0.37,0.81,-0.38,29.94,3459,0,82,-39.0396,-2.29478,-386.362,9238.54,23692.4,1829.92,-436.678,-23.9116,0
17325,783.36,770.55,772.22,765.24,772.84,127.93,-948.73,362.79,0.31,0.08,4.18,27.09,3466,0,82,-38.8581,-2.39292,-385.946,9266.79,23638.2,1700.39,-436.753,-24.0106,0
17359,783.62,770.65,772.19,765.2,772.92,111.82,-935.55,342.29,1.4,2.11,-0.63,25.1,3473,0,82,-38.9489,-2.42329,-382.424,8938.62,23465,1677.5,-436.642,-23.3736,0
17393,783.68,770.7,772.18,765.2,772.94,127.93,-957.52,352.05,-1.66,3.24,2.85,24.39,3480,0,82,-38.8382,-1.81816,-381.714,8735.18,23236.7,1628.64,-437.125,-22.8841,0
17429,783.61,770.7,772.18,765.12,772.9,123.05,-948.73,352.54,-0.84,1.53,0.81,25.79,3487,0,82,-38.3997,-1.47298,-378.378,8503.84,22977.9,1738.36,-437.273,-22.4745,0
17463,783.76,770.73,772.25,765.22,772.99,132.32,-945.8,352.54,1.82,-0.53,0.91,25.37,3494,0,82,-38.0362,-1.94375,-376.397,7915.62,22714.6,1637.08,-437.653,-21.0299,0
17498,783.92,770.78,772.22,765.22,773.03,103.03,-932.62,352.05,0.37,2.49,-0.07,23.52,3501,0,82,-38.1214,-1.48625,-377.843,7600.96,22728.1,1689.19,-437.848,-20.1167,0
17532,784.1,770.81,772.32,765.19,773.11,112.3,-951.66,351.07,1.25,1.59,1.07,25.7,3507,0,82,-38.6087,-0.735535,-380.357,7659.22,22864.2,1753.28,-437.888,-20.137,0
17566,784.14,770.93,772.34,765.23,773.16,118.65,-950.2,363.28,-0.02,1.73,1.88,24.46,3514,0,82,-39.3091,-0.60905,-385.388,7702.01,23128.8,1858.9,-437.986,-19.9851,0
17600,783.96,770.88,772.4,765.31,773.14,117.68,-942.38,365.72,0.83,0.85,-0.22,25.96,3521,0,82,-39.9267,-0.661681,-391.061,7876.45,23590.9,1877.68,-437.675,-20.1414,0
17636,783.8,770.96,772.41,765.32,773.13,107.42,-939.45,354,0.12,-0.66,-0.74,25.94,3528,0,82,-39.7239,-1.28879,-394.964,7885.01,23806.8,1913,-437.724,-19.9639,0
17670,783.78,771.05,772.43,765.38,773.16,128.42,-944.82,355.47,0.41,2.66,2.29,24.86,3535,0,82,-39.4365,-1.27952,-394.339,7644.66,23805.3,1881.02,-437.632,-19.386,0
17703,783.98,771.22,772.54,765.44,773.3,128.91,-946.78,362.79,-0.85,2.7,0.95,24.7,3542,0,82,-39.3729,-1.20668,-391.217,7418.64,23564.8,1820.7,-437.765,-18.963,0
17737,783.65,771.25,772.5,765.47,773.22,111.82,-950.68,363.28,1.2,1.3,-0.32,23.99,3548,0,82,-39.1705,-1.15899,-391.485,7375.14,23539.1,1837.89,-437.872,-18.8389,0
17771,783.54,771.2,772.53,765.44,773.18,108.4,-942.87,361.33,-1.39,2.13,0.49,26.13,3555,0,82,-39.3871,-1.25318,-394.466,7594.09,23708.8,1818.37,-437.896,-19.2516,0
17804,783.56,771.2,772.6,765.5,773.21,115.23,-954.59,350.59,-0.21,1.44,0.75,26.91,3562,0,82,-39.583,-2.11542,-398.267,7997.32,23931.4,1855.72,-437.911,-20.0803,0
17839,783.53,771.29,772.64,765.53,773.25,131.35,-943.36,357.42,0.78,0.2,-0.95,26.72,3569,0,82,-40.012,-3.60515,-400.682,8541.93,24212.9,1692.54,-437.571,-21.3185,0
17873,783.47,771.31,772.61,765.68,773.27,102.54,-932.62,358.89,1.46,1.47,-0.31,23.94,3576,0,82,-40.5555,-4.10366,-402.104,8521.84,24159.8,1734.24,-437.917,-21.1931,0
17907,783.42,771.43,772.68,765.61,773.28,111.82,-947.75,367.19,-1.03,1.07,1.79,25.8,3582,0,82,-40.2709,-4.17063,-401.194,8461.07,24042.5,1715.2,-438.073,-21.0898,0
17941,783.39,771.46,772.76,765.6,773.3,122.07,-945.31,364.75,-2.53,3.06,-1.47,27.76,3589,0,82,-40.3155,-3.16424,-404.644,8584.51,24391.5,1969.44,-437.721,-21.215,0
17975,783.33,771.44,772.81,765.62,773.3,112.3,-939.94,359.37,0.24,1.01,1.52,29.09,3596,0,82,-40.623,-2.87999,-408.632,8739.66,24608,2072.67,-437.779,-21.3876,0
18009,783.32,771.46,772.79,765.67,773.31,113.28,-955.57,365.72,-1.19,0.04,0.31,27.81,3603,0,82,-40.98,-2.54663,-412.986,8934.92,25007.2,2119.38,-437.448,-21.6351,0
18043,783.38,771.46,772.8,765.63,773.32,107.91,-943.36,364.26,3.22,2.37,1.47,28.44,3610,0,82,-41.3405,-2.58092,-415.604,8931.86,25071.4,2170.02,-437.675,-21.4912,0
18076,783.36,771.44,772.74,765.67,773.3,126.46,-926.76,356.93,0.82,1.87,1.31,26.64,3616,0,82,-41.237,-2.6038,-413.562,8737.48,24949.5,2262.33,-437.672,-21.1272,0
18110,783.42,771.54,772.65,765.59,773.3,136.23,-953.61,348.63,1.79,0.43,0.21,24.63,3623,0,82,-41.2731,-2.31332,-412.613,8240.89,24698.2,2497,-438.142,-19.9723,0
18144,783.46,771.45,772.73,765.65,773.32,112.3,-944.34,362.3,-0.25,3.5,-1.7,26.25,3630,0,82,-41.5954,-1.66707,-414.727,8106.99,24764.1,2558.36,-438.288,-19.5478,0
18179,783.51,771.55,772.72,765.59,773.34,111.82,-933.11,356.93,0.67,0.89,1.16,25.78,3637,0,82,-41.9678,-2.15668,-421.077,8266.28,25267.7,2717.64,-437.993,-19.6314,0
18214,783.57,771.47,772.71,765.61,773.34,117.19,-952.15,349.12,-0.08,3.48,1.15,25.92,3644,0,82,-41.8052,-3.27552,-419.207,8093.35,25109.1,2591.31,-438.103,-19.3065,0
18248,783.63,771.4,772.72,765.59,773.33,125,-948.24,353.52,1.57,0.68,0.51,26.76,3651,0,82,-41.0588,-2.78978,-413.434,7900.24,24670.2,2589.68,-438.329,-19.1088,0
18283,783.77,771.46,772.67,765.63,773.38,128.91,-938.48,363.77,2.28,2.31,-1.03,23.87,3658,0,82,-40.9871,-2.11004,-415.82,7617.79,24855.6,2619.42,-438.225,-18.3199,0
18317,783.85,771.37,772.67,765.59,773.37,128.91,-947.75,360.35,-0.79,-0.27,1.85,24.89,3664,0,82,-40.8338,-1.95483,-418.079,7550.32,25118.3,2580.9,-437.92,-18.0595,0
18351,784,771.35,772.71,765.6,773.41,120.61,-940.92,356.45,-0.87,1.82,2.01,25.55,3671,0,82,-40.8678,-1.95232,-420.306,7743.6,25222.1,2640.39,-437.991,-18.4238,0
18385,784.01,771.37,772.75,765.59,773.43,117.19,-939.45,368.65,0.76,1.94,0.95,26.29,3678,0,82,-41.3206,-2.83536,-420.92,7608.45,25216,2483.38,-438.093,-18.0758,0
18419,784.04,771.31,772.65,765.55,773.39,115.23,-944.82,351.56,0.1,0.8,2.37,24.82,3685,0,82,-41.3723,-3.00595,-420.909,7427.84,25156.9,2696,-438.232,-17.6471,0
18453,784,771.19,772.67,765.53,773.35,130.37,-936.04,371.09,0.81,2.29,1.4,26.79,3692,0,82,-41.2477,-2.69289,-419.736,7337.2,25016.5,2748.89,-438.399,-17.4806,0
18487,784,771.22,772.61,765.49,773.33,125.49,-943.36,364.26,1.51,1.37,-2.12,25.63,3698,0,82,-41.1991,-1.94736,-419.1,7326.69,25112.1,2801.95,-438.081,-17.4819,0
18522,783.95,771.14,772.57,765.52,773.3,118.65,-949.71,364.75,0.13,1.76,0.41,24.76,3705,0,82,-40.5896,-1.51051,-419.833,7463.98,25114.7,2869.49,-438.179,-17.7785,0
18557,783.92,771.07,772.57,765.56,773.28,116.21,-945.31,353.52,-0.28,2.79,0.41,25.01,3712,0,82,-40.7408,-1.72839,-419.196,7546.24,25164.3,2777.08,-437.97,-18.0019,0
18591,783.81,771.07,772.59,765.44,773.23,122.56,-952.64,354,1.05,0.92,-1.52,27.43,3719,0,82,-40.6269,-1.97328,-419.189,7513.96,25084.2,2910.89,-438.16,-17.925,0
18627,783.76,771.06,772.55,765.48,773.21,120.61,-945.8,356.45,-0.43,1,-0.32,26.28,3726,0,82,-40.6417,-1.93667,-420.422,7654.06,25101.6,2873.76,-438.294,-18.2057,0
18661,783.8,771.02,772.56,765.47,773.21,117.19,-940.92,364.75,1.16,-0.08,2.98,26.95,3733,0,82,-40.5325,-1.9247,-420.589,7729.07,25171.5,2805.8,-438.152,-18.3768,0
18695,783.75,771.01,772.51,765.45,773.18,113.28,-940.92,353.03,-0.27,2.25,1.92,26.2,3740,0,82,-40.61,-1.70967,-420.501,7777.66,25208.7,2801.45,-438.051,-18.4962,0
18730,783.76,770.96,772.49,765.46,773.17,119.14,-938.48,358.89,1.76,2.57,-0.05,25.87,3747,0,82,-40.559,-1.49301,-420.588,8045.12,25274.1,2656.08,-437.908,-19.1283,0
18764,783.83,770.95,772.49,765.42,773.17,122.56,-950.2,354.98,0.21,1.45,-0.13,26.47,3754,0,82,-40.4883,-1.71521,-422.038,8019.91,25411,2629.47,-437.79,-19.0028,0
18798,783.87,770.93,772.45,765.36,773.15,134.28,-948.24,360.35,0.24,0.24,3.66,26.16,3761,0,82,-40.4815,-2.21044,-422.672,8324.44,25627,2513.73,-437.369,-19.6948,0
18832,783.98,770.89,772.46,765.34,773.17,115.72,-937.01,349.61,-1.21,-1.65,-1.67,26.76,3767,0,82,-40.8286,-2.6454,-424.73,8551.14,25721.3,2457.52,-437.441,-20.1331,0
18866,784.05,770.83,772.42,765.35,773.16,120.12,-953.12,367.19,-0.02,1.24,1.38,25.86,3774,0,82,-40.5301,-2.51961,-424.885,8803.54,25723.3,2362.45,-437.458,-20.7198,0
18900,783.99,770.83,772.46,765.31,773.15,126.46,-939.45,354.49,-0.21,2.95,1.43,27.65,3781,0,82,-39.9396,-2.79865,-423.089,8645.25,25639,2414.5,-437.4,-20.4337,0
18934,783.84,770.75,772.37,765.34,773.07,114.26,-948.73,352.05,0.82,0.58,0.54,26.06,3788,0,82,-39.8535,-2.49015,-421.677,8840.66,25593.1,2281.13,-437.306,-20.9655,0
18969,783.74,770.74,772.4,765.37,773.06,123.54,-940.92,350.59,0.09,0.93,2.64,26.96,3795,0,82,-39.8705,-2.52738,-419.937,8712.68,25484.4,2281.96,-437.314,-20.7475,0
19003,783.83,770.78,772.45,765.34,773.1,128.42,-929.69,354.98,-0.79,-0.13,0.2,27.94,3802,0,82,-39.5606,-2.31373,-417.953,8799.02,25389.9,2265.87,-437.252,-21.0527,0
19038,783.84,770.88,772.43,765.32,773.12,125,-937.99,357.91,3.67,2.12,-0.85,26.99,3809,0,82,-39.6392,-2.71062,-415.073,8659.86,25232.4,2141.61,-437.21,-20.8635,0
19073,783.81,770.8,772.47,765.37,773.11,113.28,-945.31,351.07,1.36,0.98,1.23,27.88,3816,0,82,-39.3117,-1.74744,-413.891,8635.51,25079.4,2151.21,-437.406,-20.8642,0
19107,783.65,770.9,772.53,765.49,773.14,112.3,-938.96,362.79,-1.01,1.4,0.99,27.46,3822,0,82,-39.0785,-1.87497,-412.2,8409.75,25007.1,2135.96,-437.332,-20.4021,0
19141,783.48,770.91,772.54,765.51,773.11,145.02,-948.24,355.47,0.05,-0.35,-1.7,27.64,3829,0,82,-39.4345,-1.55229,-411.063,8410.97,24945.6,2177.3,-437.314,-20.4615,0
19175,783.38,771.07,772.51,765.51,773.12,120.12,-940.92,357.42,1.2,2.4,-1.67,26.2,3836,0,82,-39.1226,-1.29075,-409.896,8388.26,24868.6,2175.52,-437.329,-20.4644,0
19209,783.55,771.08,772.62,765.67,773.23,119.14,-939.94,372.07,2.73,2.34,2.39,25.83,3843,0,82,-39.1573,-1.32785,-408.625,8404.48,24833,2118.68,-437.228,-20.5677,0
19243,783.44,771.11,772.61,765.7,773.22,125.98,-954.1,357.42,-0.55,3.35,0.47,25.3,3850,0,82,-38.9962,-1.29874,-409.983,8485.44,24924.9,2070.49,-437.205,-20.697,0
19277,783.4,771.21,772.74,765.72,773.27,131.35,-946.78,364.75,-2.74,1.96,0.89,27.68,3856,0,82,-39.266,-1.52196,-410.273,8701.14,25059.1,2010.76,-436.921,-21.2082,0
19311,783.31,771.24,772.77,765.81,773.28,114.75,-950.2,349.61,-0.34,3.96,-0.94,26.91,3863,0,82,-39.1723,-1.21015,-411.561,8808.7,25133.4,1981.07,-436.932,-21.4031,0
19345,783.21,771.34,772.79,765.82,773.29,119.14,-952.64,354.49,1.07,2.19,-2.22,26.78,3870,0,82,-39.0116,-1.72496,-410.878,8862.02,25080.1,1978.54,-436.96,-21.5685,0
19378,783.17,771.37,772.8,765.84,773.3,107.42,-951.17,355.96,-1.5,1.1,0.69,26.81,3877,0,82,-38.6521,-1.65183,-409.477,9065.77,25020.6,1927.43,-436.896,-22.1399,0
19412,783.13,771.36,772.88,765.99,773.34,111.33,-932.13,353.03,0.6,1.27,1.69,26.79,3883,0,82,-38.3856,-2.51021,-406.382,8863.69,24835.6,1797.33,-436.886,-21.8112,0
19447,783.01,771.41,772.89,765.98,773.33,125.49,-962.89,364.26,-0.4,2.66,0.34,27.26,3890,0,82,-38.0366,-2.31138,-402.691,8740.82,24576.5,1823.78,-436.969,-21.706,0
19482,782.91,771.42,772.99,766.07,773.35,112.3,-926.76,359.86,0.45,0.82,-0.57,28.65,3897,0,82,-38.5275,-2.42482,-406.15,8791.96,24748.5,1870.72,-437.066,-21.6471,0
19516,782.85,771.46,772.93,766.07,773.33,116.7,-952.15,355.47,0.59,1.02,-1.35,27,3904,0,82,-38.7423,-2.6581,-409.153,8848.05,25016.4,1675.55,-436.858,-21.6255,0
19550,782.95,771.43,772.88,766.04,773.33,128.91,-953.61,358.4,-2.05,3.91,1.12,26.22,3911,0,82,-38.5058,-2.52249,-411.884,8676.6,25156.1,1775.39,-436.924,-21.0656,0
19584,783.02,771.25,772.95,766.02,773.31,138.67,-951.66,366.21,0.85,0.3,0.44,29.45,3918,0,82,-38.84,-2.12652,-411.325,8551.48,25022.5,1839.47,-437.166,-20.7901,0
19618,783.06,771.24,772.88,765.86,773.26,123.05,-940.92,340.33,2.18,1.39,-0.62,29.87,3925,0,82,-39.0187,-1.26026,-410.161,8155.85,24855.3,1926.01,-437.401,-19.8845,0
19652,783.18,771.14,772.75,765.85,773.23,125,-930.66,354,0.73,0.08,0.42,27.27,3931,0,82,-39.0181,-1.51043,-411.372,7787.86,24834.3,1956.79,-437.63,-18.9315,0
19686,783.48,771.1,772.72,765.77,773.27,119.63,-945.8,363.28,0.05,1.47,-0.29,26.96,3938,0,82,-39.3584,-1.61448,-414.433,7767.92,25038.2,2033.82,-437.585,-18.7435,0
19719,784.03,770.91,772.64,765.62,773.3,112.3,-947.27,360.84,-0.17,0.38,-0.16,26.88,3945,0,82,-39.7902,-2.07647,-418.662,7708.82,25294,2139.78,-437.584,-18.413,0
19754,784.8,770.74,772.53,765.44,773.38,134.28,-943.36,350.59,-1.32,0.65,-1.79,25.39,3952,0,82,-40.209,-2.18326,-420.345,7591.29,25374.1,2068.51,-437.635,-18.0597,0
19788,785.57,770.49,772.37,765.33,773.44,124.51,-934.08,358.4,-0.98,2.28,-1.59,22.48,3959,0,82,-40.0897,-2.21365,-421.02,7514.83,25316.6,2098.7,-437.868,-17.8492,0
19822,786.1,770.25,772.31,765.13,773.45,120.12,-948.73,362.79,-0.82,3.11,-1.63,23.85,3965,0,82,-40.2607,-1.6958,-421.375,7360.76,25306.1,2180.42,-437.944,-17.4685,0
19858,786.51,770.02,772.05,764.99,773.39,113.77,-935.06,355.47,1.77,-1.3,-0.48,20.09,3973,0,82,-40.8016,-1.63892,-422.054,7185.85,25303.8,2192.36,-438.046,-17.0259,0
19892,786.74,769.87,771.94,764.89,773.36,118.16,-938.48,354.49,0.34,0.24,-0.63,19.09,3979,0,82,-40.7847,-0.973224,-422.889,7081.11,25293.6,2173.9,-438.188,-16.7447,0
19926,786.8,769.57,771.84,764.74,773.24,125.49,-936.04,357.42,1.85,1.27,0.02,20.94,3986,0,82,-41.0151,-0.946979,-422.194,6745.52,25293.8,2390.55,-438.09,-15.9774,0
19960,786.85,769.49,771.66,764.6,773.15,130.86,-943.85,361.33,-0.12,2.73,2.31,19.25,3993,0,82,-41.098,-0.0389307,-421.702,6761.15,25227.3,2422.55,-438.178,-16.033,0
19994,787.09,769.27,771.45,764.41,773.06,114.26,-938.48,350.1,1.56,0.75,-1.82,17.66,4000,0,82,-41.2097,0.326263,-419.899,6628.22,25109.1,2321.02,-438.202,-15.7853,0
20028,787.35,769.13,771.18,764.42,773.02,131.35,-938.96,363.28,-0.7,1.64,-3.07,10.86,4007,0,82,-41.0273,0.447621,-419.495,6828.76,25115.2,2258.19,-438.13,-16.2785,0
20063,787.68,768.98,770.88,764.4,772.99,132.32,-934.57,351.07,-3.31,-0.78,-0.37,3.81,4014,0,82,-41.0866,0.114699,-418.198,7022.44,25133.8,2067.33,-437.9,-16.7921,0
20097,788.08,768.97,770.72,764.38,773.04,131.35,-922.85,358.4,0.31,3.11,0.71,-1.1,4020,0,82,-40.5395,0.0735011,-415.88,7108.67,25054.4,2200.21,-437.756,-17.0932,0
20131,788.22,768.9,770.5,764.46,773.02,140.62,-956.54,347.66,-0.15,1.88,1.94,-7.68,4027,0,82,-40.4028,0.377763,-413.194,7544.4,24920.9,2107.04,-437.687,-18.2588,0
20165,788.21,768.97,770.18,764.59,772.99,125.98,-937.5,362.3,-0.78,1.95,-0.85,-18.04,4034,0,82,-40.3045,-0.273367,-413.002,7980.01,25129.6,1935.2,-437.154,-19.3218,0
20199,788.09,768.92,769.93,764.69,772.91,136.72,-949.71,358.4,-0.29,2.56,-0.71,-25.11,4041,0,82,-40.7809,-1.07213,-415.251,8935.16,25476.2,1733.59,-436.649,-21.5173,0
20233,787.96,768.92,769.63,764.73,772.81,122.07,-947.27,360.84,-0.19,4.13,-1.81,-32.62,4048,0,82,-40.9976,-2.15288,-419.067,10341.6,26120.9,1587.72,-435.669,-24.6775,0
20269,787.83,769,769.66,764.73,772.8,126.95,-950.2,364.26,0.54,0.49,2.17,-32.19,4055,0,82,-40.8792,-3.1148,-421.086,11553,26437.9,1327.42,-435.215,-27.4361,0
20303,787.83,768.94,769.84,764.77,772.85,127.93,-946.29,368.65,0.51,0.84,1.18,-27.71,4062,0,82,-40.9165,-2.86599,-421.518,12369.2,26716.4,1192.21,-434.618,-29.3442,0
20337,787.81,768.91,770,764.7,772.86,125.49,-938.96,351.56,3.13,-0.91,-1.07,-22.31,4068,0,82,-40.4555,-3.13377,-418.382,12680.3,26698.6,1091.38,-434.186,-30.3079,0
20373,787.6,769.01,770.4,764.46,772.87,125,-950.2,361.33,2.16,-0.29,1.63,-8.92,4076,0,82,-39.2234,-3.17089,-413.302,13066,26529.5,919.356,-433.811,-31.6138,0
20407,787.17,769,770.67,764.46,772.82,126.95,-940.43,354.98,2.48,0.53,-0.64,-0.73,4082,0,82,-38.6924,-3.80497,-407.523,13108.4,26262.6,780.622,-433.556,-32.166,0
20442,786.86,769.04,770.87,764.45,772.81,121.58,-938.96,357.42,0.79,0.81,0.55,5.31,4089,0,82,-37.6945,-4.7161,-400.947,13433.4,25935.9,624.749,-433.314,-33.5041,0
20476,786.47,769.18,770.92,764.55,772.78,118.65,-937.5,358.89,-0.25,0.51,0.76,5.27,4096,0,82,-37.0705,-6.24984,-396.404,13921.2,25784.4,458.65,-432.954,-35.1189,0
20510,786.21,769.31,770.96,764.57,772.76,128.91,-934.57,363.28,0.55,-1.5,2.65,5.78,4103,0,82,-36.9844,-7.4315,-396.855,14695.2,25932.1,291.504,-432.656,-37.0291,0
20544,785.95,769.38,771.12,764.59,772.76,120.61,-950.2,360.35,1.66,0.34,3.28,9.82,4110,0,82,-37.2987,-9.04506,-398.79,15089.4,26189.3,142.236,-432.328,-37.8379,0
20578,785.56,769.54,771.25,764.73,772.77,112.3,-951.66,352.54,1.85,-0.16,-0.31,10.96,4117,0,82,-38.0129,-9.52523,-402.994,15680.9,26525,65.6257,-432.18,-38.9107,0
20612,785.34,769.72,771.32,764.83,772.8,128.91,-934.57,366.21,0.82,2.31,-0.17,10.67,4123,0,82,-37.8135,-9.28679,-405.62,15875.7,26698.3,186.162,-432.179,-39.1394,0
20646,785.21,769.86,771.46,764.96,772.87,118.16,-955.08,355.47,-0.99,-0.92,-1.47,11.42,4130,0,82,-37.8731,-9.44661,-405.935,16046.6,26853.4,228.909,-431.848,-39.5301,0
20682,785.04,769.9,771.56,765.03,772.88,118.65,-939.94,354.49,-0.23,1.24,2.64,13.17,4137,0,82,-37.4788,-9.74546,-403.756,15842.3,26697.5,165.055,-431.877,-39.2373,0
20716,784.85,770.03,771.7,765.1,772.92,116.7,-958.98,359.37,-0.19,3.65,3.13,15.21,4144,0,82,-37.379,-9.56892,-400.76,15836.7,26515.3,168.34,-431.837,-39.5168,0
20751,784.57,770.2,771.81,765.19,772.94,125,-951.17,358.4,0.28,1.95,0.25,16.35,4151,0,82,-37.2282,-9.31513,-398.741,15427.1,26207.3,265.49,-432.275,-38.6895,0
20785,784.35,770.26,771.83,765.3,772.94,126.95,-948.73,367.68,2.19,1.9,0.4,15.56,4158,0,82,-37.4883,-8.30747,-399.523,15308.2,26227.6,379.867,-432.353,-38.3161,0
20819,784.13,770.29,771.92,765.34,772.92,107.42,-942.38,349.12,-0.01,2.14,0.08,17.45,4165,0,82,-37.8526,-8.0134,-400.479,14909.3,26223.4,466.378,-432.52,-37.2288,0
20853,784.09,770.31,771.89,765.44,772.93,123.05,-943.36,354.98,-0.01,4.89,-2.77,15.3,4172,0,82,-37.6922,-7.37649,-398.723,14135.7,25932,532.582,-432.962,-35.4524,0
20887,784.03,770.35,771.99,765.41,772.94,116.21,-951.66,355.47,-0.31,0.08,-2.86,18.15,4178,0,82,-37.392,-6.54039,-394.823,13540.3,25646.4,702.184,-433.043,-34.2946,0
20921,784.11,770.28,771.95,765.48,772.96,105.96,-943.36,362.79,0.81,-0.14,-0.89,16.55,4185,0,82,-37.2886,-5.51872,-391.125,13003,25186,741.939,-433.606,-33.2452,0
20955,784.14,770.29,771.99,765.5,772.98,111.33,-944.34,354,1.6,0.88,0.5,17,4192,0,82,-37.6921,-5.28513,-388.718,12353,24921.1,865.343,-433.889,-31.7787,0
20988,784.22,770.29,772.01,765.39,772.98,122.07,-940.92,367.19,0.54,0.31,-1.73,18.81,4199,0,82,-37.4009,-5.16875,-389.991,11950,24886.2,897.654,-434.188,-30.6418,0
21022,784.39,770.2,772,765.39,772.99,114.75,-957.03,375.98,0.08,0.52,2.85,18.62,4205,0,82,-37.3786,-5.00429,-392.026,11607.4,24893,1077.14,-434.502,-29.6089,0
21056,784.44,770.09,771.91,765.38,772.96,119.14,-940.92,365.23,2.24,-0.11,0.18,17.36,4212,0,82,-37.753,-4.69517,-392.414,11011.3,24822.3,1121.78,-434.745,-28.0602,0
21091,784.74,770.12,771.96,765.29,773.03,125,-949.71,358.4,1.66,4.62,-0.99,18.59,4219,0,82,-37.9311,-4.07377,-395.613,10479.6,24816.7,1286.77,-435.27,-26.4896,0
21125,785.03,770.07,771.88,765.25,773.06,121.58,-937.99,364.75,2.11,1.08,-1.46,16.84,4226,0,82,-38.3596,-3.89168,-398.692,10314.2,24983.2,1344.64,-435.337,-25.8704,0
21159,785.31,770.04,771.77,765.15,773.07,130.86,-950.2,353.52,-0.42,1.03,-1.47,14.74,4233,0,82,-39.1305,-4.11546,-402.341,9897.24,25094.5,1468.76,-435.629,-24.5991,0
21193,785.63,769.96,771.74,765.14,773.12,140.14,-950.2,364.26,0.91,3.27,-0.85,13.51,4240,0,82,-39.2982,-3.74418,-404.068,9684.16,25249,1445.06,-435.513,-23.9666,0
21226,786.05,769.94,771.65,765.07,773.18,106.93,-953.12,357.42,-0.08,2.56,-1.37,10.99,4246,0,82,-39.3006,-3.59769,-404.314,9301.83,25057.1,1536.55,-436.026,-23.0064,0
21260,786.35,769.83,771.61,764.98,773.19,116.21,-952.64,368.16,0.85,0.27,1.95,11.17,4253,0,82,-39.3217,-2.84296,-403.859,9082.27,25014.7,1687.89,-436.061,-22.4887,0
21294,786.63,769.78,771.72,764.98,773.28,115.23,-954.1,360.84,-0.44,3.96,1.07,13.58,4260,0,82,-39.4624,-2.54269,-402.9,8733.87,24871.5,1635.18,-436.269,-21.6775,0
21329,786.8,769.68,771.57,764.94,773.25,112.3,-944.82,365.23,-0.76,1.85,3.35,10.5,4267,0,82,-39.2593,-2.7955,-402.467,8373.13,24881,1773.84,-436.179,-20.8045,0
21363,786.94,769.63,771.62,764.92,773.28,127.44,-943.85,360.35,-0.71,1.85,1.61,12.1,4274,0,82,-39.2433,-2.24981,-403.888,8496.69,25034.8,1775.33,-436.015,-21.0369,0
21397,787.14,769.65,771.52,764.8,773.28,119.14,-938.96,358.4,0.79,1.58,0.53,10.31,4280,0,82,-38.9317,-2.58436,-405.578,8537.96,25142.6,1708.42,-436.008,-21.0513,0
21432,787.29,769.56,771.42,764.75,773.26,123.54,-941.41,360.84,-0.8,0.51,0.82,8.75,4287,0,82,-38.9718,-2.65629,-406.893,8786.45,25249.2,1640.41,-435.946,-21.594,0
21467,787.31,769.53,771.45,764.79,773.27,120.12,-947.27,353.52,1.99,3.9,-0.1,9.27,4294,0,82,-39.2618,-2.45285,-407.143,9106.31,25311.3,1660.37,-435.832,-22.3664,0
21501,787.27,769.45,771.36,764.76,773.21,125.49,-948.24,355.47,1.2,1.89,1.34,8.03,4301,0,82,-39.1992,-3.19077,-405.861,9159.91,25265.3,1705.2,-435.749,-22.5691,0
21536,787.38,769.46,771.45,764.68,773.24,123.05,-941.89,342.29,-1.27,0.94,-1.06,11.14,4308,0,82,-38.8965,-3.45352,-404.57,9433.31,25253.8,1639.54,-435.579,-23.3169,0
21570,787.52,769.36,771.42,764.65,773.24,124.51,-935.55,362.3,1.58,-0.67,0.57,11.3,4315,0,82,-38.6542,-3.22844,-406.336,9935.32,25426.9,1595.98,-435.424,-24.451,0
21604,787.47,769.41,771.35,764.62,773.21,124.02,-941.89,352.05,0.35,1.58,1.46,9.71,4322,0,82,-38.7869,-3.58559,-407.195,10512.8,25595.7,1427.36,-435.141,-25.8174,0
21638,787.42,769.39,771.35,764.56,773.18,131.84,-950.2,351.07,-0.57,0.95,3.03,10.75,4329,0,82,-38.8942,-4.47256,-410.6,10806.3,25851.6,1362.25,-435.039,-26.3181,0
21672,787.48,769.35,771.35,764.63,773.2,125.98,-930.18,364.26,0.29,2.59,0.25,9.85,4335,0,82,-38.948,-4.56129,-412.399,11426.7,26122.6,1265.34,-434.657,-27.7079,0
21706,787.51,769.4,771.35,764.55,773.2,126.46,-937.5,352.05,0.99,2.97,-2.4,10.71,4342,0,82,-39.1332,-5.29632,-414.871,12101.2,26400.8,1141.76,-434.364,-29.1686,0
21740,787.34,769.47,771.31,764.58,773.18,130.37,-947.75,365.23,1.4,2.95,-1.92,9.14,4349,0,82,-39.3462,-5.32839,-417.964,12488.7,26705.2,1069.37,-434.107,-29.8798,0
21775,787.27,769.38,771.36,764.58,773.15,117.68,-951.66,360.84,0.51,2.56,-0.6,11.41,4356,0,82,-39.4419,-5.77086,-418.54,12918.4,26790.3,1006.57,-433.991,-30.8652,0
21809,787.29,769.36,771.33,764.62,773.15,120.61,-941.89,374.02,0.93,2.83,0.2,10.06,4363,0,82,-39.526,-5.78898,-419.832,12961.4,26970.6,1008.95,-433.758,-30.8728,0
21843,787.27,769.37,771.36,764.64,773.16,127.93,-944.34,357.42,1.44,0.48,0.77,10.55,4370,0,82,-38.893,-5.68677,-418.348,13354.4,26997.3,992.011,-433.467,-31.9217,0
21879,787.32,769.44,771.31,764.61,773.17,123.05,-948.73,358.89,-0.57,2.27,-1.98,8.91,4377,0,82,-39.1027,-5.87898,-417.484,13389.9,26968.4,881.569,-433.403,-32.0729,0
21913,787.31,769.34,771.33,764.65,773.15,115.23,-948.73,349.61,-2.18,2.11,-0.28,9.75,4384,0,82,-39.1161,-5.55288,-416.796,13558.7,27032.6,1013.72,-433.142,-32.5308,0
21947,787.3,769.33,771.32,764.62,773.14,120.61,-956.54,348.63,-1.68,-0.64,-0.19,10.09,4390,0,82,-38.6629,-5.56852,-416.159,13555.2,26962.1,1086.09,-433.212,-32.5723,0
21981,787.14,769.33,771.34,764.63,773.11,123.05,-943.85,354.98,-1.19,2.55,-0.87,10.96,4397,0,82,-38.5023,-4.90089,-414.519,13726.2,26929,1309.91,-433.036,-33.1137,0
22015,787.13,769.39,771.27,764.66,773.11,105.47,-944.34,357.42,0.43,1.12,2.96,8.28,4404,0,82,-38.1596,-4.59636,-412.78,13723.2,26836.2,1188.51,-432.987,-33.2459,0
22049,787.17,769.32,771.37,764.59,773.11,115.72,-940.92,359.86,-0.29,-0.66,-2.97,12.13,4411,0,82,-37.9884,-5.05721,-413.276,13746.7,26883.3,1249.56,-432.951,-33.2628,0
22084,787.26,769.32,771.24,764.62,773.11,118.65,-942.87,355.47,-0.01,0.98,-0.8,8.28,4418,0,82,-38.1164,-4.98627,-412.204,13711.3,26854,1226.05,-432.853,-33.2633,0
22118,787.36,769.24,771.22,764.6,773.1,121.09,-950.2,360.84,-1.02,1.47,-0.65,8.34,4425,0,82,-38.0193,-5.46685,-411.86,13779.5,26816.4,1374.87,-432.89,-33.4567,0
22152,787.39,769.21,771.34,764.58,773.13,126.95,-947.75,346.19,-1.6,3.4,-0.49,11.94,4431,0,82,-37.9045,-4.84097,-412.285,14006.4,26894.2,1241.12,-432.768,-33.9725,0
22186,787.38,769.17,771.23,764.56,773.09,127.93,-944.82,363.77,0.11,3.61,1.66,9.84,4438,0,82,-37.765,-5.002,-412.452,13871.4,26797.9,1183.15,-433.028,-33.6316,0
22220,787.36,769.17,771.29,764.56,773.09,139.65,-945.31,355.47,0.2,0.3,-1.34,11.24,4445,0,82,-37.8116,-4.91216,-410.027,13608.8,26584.2,1108.69,-433.165,-33.19,0
22256,787.26,769.19,771.26,764.52,773.06,121.58,-948.24,356.45,0.41,-0.07,-0.59,11.29,4452,0,82,-38.0747,-4.39034,-409.069,13506.8,26517.6,1101.61,-433.176,-33.0185,0
22292,787.21,769.23,771.25,764.56,773.06,114.75,-957.52,363.77,1.09,1.58,-1.12,10.5,4459,0,82,-38.3262,-3.76137,-409.74,13404.9,26457.9,1004.16,-433.428,-32.7155,0
22326,787.15,769.22,771.36,764.54,773.07,132.81,-947.75,356.45,0.93,0.64,-1.96,13.59,4466,0,82,-38.2256,-3.95149,-409.839,13251,26545,1072.05,-433.231,-32.3323,0
22360,787.13,769.22,771.33,764.62,773.08,129.39,-941.89,365.72,0.24,2.3,0.16,11.86,4473,0,82,-38.2242,-4.44676,-411.457,13341.1,26624.2,1005.2,-433.293,-32.4241,0
22394,787.15,769.27,771.29,764.64,773.09,128.42,-953.12,354.98,0.22,0.74,1.35,10.07,4480,0,82,-38.1334,-4.35883,-409.962,13396.2,26636.5,985.443,-433.027,-32.6768,0
22428,787.12,769.4,771.34,764.65,773.13,114.75,-948.73,351.56,0.82,1.5,1.21,10.31,4487,0,82,-38.2221,-4.63437,-409.077,13377.8,26560.4,938.697,-433.072,-32.7024,0
22462,787.09,769.36,771.41,764.57,773.11,113.28,-944.82,358.4,-0.6,1.56,0.36,13.43,4493,0,82,-37.9229,-3.91787,-407.215,13332.1,26463.2,1059.9,-433.014,-32.7396,0
22497,787.16,769.3,771.37,764.68,773.13,126.95,-937.5,373.54,0.41,1.91,-0.62,11.04,4500,0,82,-37.6398,-3.54537,-406.863,13293.3,26435,1011.13,-433.027,-32.6728,0
22531,787.1,769.4,771.42,764.72,773.16,108.89,-943.85,347.17,-0.6,2.98,-0.18,11.22,4507,0,82,-37.6897,-3.52883,-408.309,13395,26586,1101.15,-432.887,-32.8062,0
22565,787.07,769.48,771.46,764.78,773.2,122.56,-954.1,368.16,2.95,0.03,-1.44,10.74,4514,0,82,-37.4951,-4.2051,-407.861,13488.3,26710.2,1040.65,-432.512,-33.0709,0
22598,786.94,769.48,771.5,764.77,773.17,123.05,-964.84,360.84,1.58,0.62,0.35,12.25,4521,0,82,-37.6838,-4.57922,-408.652,13781,26753.9,1133.29,-432.531,-33.7231,0
22632,786.91,769.56,771.46,764.73,773.17,125.49,-941.41,350.1,-0.81,0.63,0.56,11.43,4527,0,82,-37.6227,-4.96589,-408.621,13740.8,26795.4,1205.88,-432.425,-33.6273,0
22666,786.81,769.58,771.48,764.84,773.18,117.68,-934.08,349.61,1.81,2.38,2.05,10.61,4534,0,82,-37.6601,-5.13512,-407.051,13750.8,26787.9,1089.68,-432.19,-33.7815,0
22701,786.57,769.64,771.59,764.82,773.16,121.09,-952.64,358.4,-2.31,0.71,3.85,13.73,4541,0,82,-37.7667,-4.95625,-407.685,13616,26733.4,1225.39,-432.426,-33.3983,0
22734,786.49,769.66,771.68,764.94,773.19,121.09,-936.04,354.98,1.4,0.82,2.57,14.48,4548,0,82,-37.7569,-4.50374,-406.034,13599.7,26638.2,1268.62,-432.394,-33.494,0
22768,786.32,769.73,771.68,765.04,773.19,129.39,-934.57,353.52,-1.45,1.01,0.11,12.94,4555,0,82,-38.3011,-4.22543,-405.059,13403.7,26507.8,1195.33,-432.558,-33.0907,0
22802,786.09,769.77,771.69,765.04,773.15,123.05,-935.06,352.54,-1.74,0.92,1.21,13.78,4561,0,82,-37.8744,-4.38849,-404.101,13192.8,26458.2,1231.39,-432.526,-32.6474,0
22836,785.83,769.81,771.72,765.08,773.11,123.54,-947.27,356.93,0.85,0.69,0.65,14.37,4568,0,82,-37.8683,-4.27539,-406.182,13185.5,26488.4,1397.38,-432.787,-32.4622,0
22870,785.76,769.71,771.79,765.08,773.08,113.28,-950.68,357.42,0.47,3.01,-0.83,17.18,4575,0,82,-38.5339,-4.11623,-408.563,13109,26654,1289.81,-432.762,-32.0858,0
22904,785.56,769.75,771.85,765.13,773.07,121.58,-952.64,348.63,2.92,3.31,0.83,18.38,4582,0,82,-38.8375,-4.2687,-410.124,13138.2,26683.4,1246.07,-432.938,-32.0347,0
22938,785.64,769.8,771.83,765.05,773.08,118.16,-919.43,364.75,0.26,0.94,0.97,18.4,4589,0,82,-38.8859,-3.80554,-410.163,13138.5,26653.5,1314.93,-433.017,-32.0324,0
22971,785.49,769.8,771.92,765.09,773.07,133.79,-952.15,364.75,0.13,2.67,0.82,20.67,4595,0,82,-38.9336,-3.88032,-411.544,13115.1,26743.6,1290.45,-433.017,-31.8681,0
23005,785.5,769.89,771.99,765.11,773.12,126.95,-940.92,351.07,-2.21,1.62,1.87,21.14,4602,0,82,-39.139,-4.34343,-414.774,12974.5,26897.6,1386.67,-433.151,-31.2809,0
23039,785.54,769.76,771.91,765.06,773.07,120.12,-957.52,358.89,1.67,2.66,0.07,20.8,4609,0,82,-39.1837,-4.71331,-414.193,12915,26940.2,1453.67,-432.957,-31.181,0
23073,785.39,769.84,771.88,765.19,773.07,134.28,-967.77,361.33,0.82,3.59,-0.13,18.06,4616,0,82,-39.1151,-4.88368,-414.669,12752.3,26893.9,1376.78,-433.144,-30.7528,0
23109,785.38,769.85,771.92,765.16,773.08,126.46,-917.97,363.77,-2.85,1.41,0.4,19.56,4623,0,82,-39.0314,-4.43732,-414.998,12678.1,26853.8,1361.09,-433.292,-30.5497,0
23143,785.33,769.85,771.95,765.12,773.06,124.02,-953.61,369.63,-0.71,-1.35,-2.36,20.91,4630,0,82,-38.9362,-4.3954,-416.505,12286.5,26813.4,1445.52,-433.623,-29.4991,0
23177,785.4,769.84,771.91,765.17,773.08,122.56,-944.34,364.75,1.44,0.85,-0.95,19.16,4636,0,82,-39.4291,-4.12025,-416.21,12155.8,26755.1,1448.77,-433.717,-29.2059,0
23213,785.36,769.86,771.88,765.13,773.06,125,-943.85,352.54,1.66,2.01,0.25,18.8,4644,0,82,-39.8142,-4.3492,-416.772,11766.9,26792.6,1538.9,-433.714,-28.2334,0
23247,785.32,769.86,772.01,765.09,773.07,123.05,-937.01,354.49,-0.67,0.38,-0.49,22.75,4650,0,82,-39.5492,-4.23773,-415.832,11494.8,26635.7,1653.93,-433.946,-27.643,0
23281,785.4,769.82,771.98,765.07,773.07,145.51,-945.31,353.03,-0.6,1.66,-0.17,22.56,4657,0,82,-39.802,-3.9608,-412.886,11224.9,26500.2,1679.45,-433.817,-27.1864,0
23316,785.5,769.83,771.92,765.04,773.07,115.23,-940.43,361.82,-0.27,1.18,-0.63,21.01,4664,0,82,-39.5179,-3.74355,-412.214,10800.9,26365.3,1743.04,-434.04,-26.2022,0
23350,785.66,769.9,771.89,765,773.11,114.26,-939.45,371.58,0.98,0.53,1.06,19.77,4671,0,82,-39.7768,-3.42899,-412.333,10771.6,26414.8,1837.97,-433.938,-26.1236,0
23384,785.74,769.87,771.89,765.04,773.13,131.84,-949.22,355.96,-0.66,0.88,1.55,19.29,4678,0,82,-39.6302,-3.00651,-412.194,10726.8,26332.3,1791.77,-434.117,-26.0236,0
23418,785.85,769.94,771.9,765.04,773.18,124.02,-950.2,352.05,0.01,3.53,0.9,18.45,4685,0,82,-39.9099,-3.14557,-412.552,10441.3,26373.8,1853.65,-434.072,-25.309,0
23452,785.95,769.83,771.84,765.03,773.16,119.63,-935.06,368.16,-0.07,2.73,-1.47,17.66,4691,0,82,-40.0853,-2.71948,-413.473,10580.4,26476.6,1940.78,-433.965,-25.589,0
23486,785.91,769.83,771.9,764.95,773.15,123.05,-943.36,363.28,2.15,0.9,-0.18,20.37,4698,0,82,-40.1941,-2.79877,-414.644,10425.8,26558,1930.66,-433.95,-25.1441,0
23522,785.99,769.87,771.84,764.98,773.17,129.39,-947.75,361.82,1.62,2.4,1.71,18.03,4705,0,82,-40.4088,-3.03964,-414.969,10372.4,26639.5,1931.71,-433.804,-24.9956,0
23556,786.17,769.88,771.89,764.94,773.22,126.46,-956.54,354.49,0.26,1.25,0.76,19.17,4712,0,82,-40.2268,-2.84041,-414.275,10484.2,26584.6,1860.59,-433.829,-25.3074,0
23590,786.3,769.87,771.91,765.01,773.27,114.26,-950.2,348.14,0.23,0.2,-1.82,18.03,4719,0,82,-40.5647,-3.54677,-412.121,10245,26305.5,1779.9,-434.171,-24.8592,0
23624,786.32,769.94,771.89,765.04,773.3,132.32,-952.64,357.91,-0.66,0.89,1.11,16.56,4726,0,82,-40.6816,-3.40969,-411.776,10188.4,26279,1894.49,-434.181,-24.7425,0
23659,786.32,769.84,771.84,764.92,773.23,114.75,-953.12,351.56,-1.05,2.65,2.38,18,4733,0,82,-40.7824,-3.02346,-411.265,10412.5,26277,1814.79,-434.107,-25.3181,0
23693,786.29,769.84,771.78,764.89,773.2,125.49,-938.48,369.63,1.46,0.37,-0.66,16.97,4740,0,82,-40.4317,-3.36235,-409.664,10220.9,26091.7,1886.17,-434.31,-24.9494,0
23727,786.4,769.77,771.74,764.77,773.17,124.02,-943.85,359.86,1.7,2.68,0.4,17.99,4746,0,82,-40.5927,-3.72674,-410.3,10244.8,26116.2,1855.9,-434.348,-24.9691,0
23761,786.41,769.82,771.78,764.82,773.21,107.91,-958.5,355.96,-0.25,2.51,-0.66,17.73,4753,0,82,-40.3301,-3.37051,-410.055,10598.4,26189.8,1957,-434.131,-25.8464,0
23795,786.42,769.72,771.73,764.84,773.18,121.09,-954.59,366.7,-0.52,3.77,-0.31,17.06,4760,0,82,-40.1118,-3.30237,-411.23,10658.2,26264.8,2045.62,-434.131,-25.918,0
23829,786.33,769.74,771.71,764.66,773.11,125.98,-944.82,354.49,0.23,1.41,-0.53,19.28,4767,0,82,-40.0905,-3.33464,-412.294,10695.1,26379.7,2028.82,-434.017,-25.9404,0
23863,785.96,769.7,771.73,764.71,773.03,136.23,-941.89,367.19,-0.02,0.88,1.11,20.75,4774,0,82,-40.0046,-3.42168,-414.488,10827.5,26489.9,2058.5,-434.09,-26.1228,0
23898,785.81,769.64,771.63,764.66,772.93,131.35,-940.43,359.86,-0.19,1.42,-0.66,19.86,4781,0,82,-40.4103,-3.26095,-415.84,11180.7,26626.1,1963.88,-433.97,-26.8871,0
23934,785.74,769.63,771.66,764.64,772.92,127.93,-951.17,359.37,0.82,3.5,-1.32,21.02,4788,0,82,-40.7852,-3.5784,-415.467,11378.9,26562.3,1953.81,-434.066,-27.3883,0
23968,785.77,769.62,771.68,764.58,772.91,116.21,-948.73,370.12,-0.02,2.44,1.44,22.57,4795,0,82,-40.4857,-3.70024,-416.163,11419,26497.7,1891.97,-434.329,-27.4387,0
24002,785.74,769.54,771.67,764.68,772.91,125,-938.48,361.82,2.48,3.23,0.4,21.51,4801,0,82,-40.1816,-3.83462,-414.887,11458.5,26472.2,1983.83,-434.194,-27.6185,0
24036,785.79,769.64,771.66,764.67,772.94,111.82,-942.38,362.3,-0.49,1.43,2.66,20.54,4808,0,82,-40.2755,-4.03182,-418.058,11595.5,26657.6,1887.69,-434.235,-27.7365,0
24070,785.8,769.6,771.74,764.66,772.95,135.25,-950.68,338.38,1.94,-0.93,-0.83,22.84,4815,0,82,-40.2434,-3.9519,-421.339,11849.1,26902.3,1887.73,-434.15,-28.1224,0
24104,785.81,769.58,771.73,764.77,772.97,116.21,-951.17,347.66,-1.89,-0.81,0.21,21.14,4822,0,82,-40.4109,-3.52383,-421.021,11859.8,26905.6,1913.8,-434.094,-28.1691,0
24140,785.97,769.56,771.74,764.81,773.02,124.02,-941.41,369.14,1.45,-0.92,-0.05,20.31,4829,0,82,-40.1205,-3.11009,-418.092,12017.3,26747.5,1879.38,-434.025,-28.7432,0
24174,786.02,769.6,771.75,764.82,773.05,123.05,-938.96,354,0.36,0.96,0.25,20.05,4836,0,82,-39.8141,-2.95783,-416.008,11828.7,26570.9,1958.17,-434.129,-28.4337,0
24208,786.15,769.59,771.69,764.82,773.06,120.61,-945.8,365.72,-2.58,0.08,-1.28,18.09,4843,0,82,-39.5921,-2.88503,-415.274,11959.9,26519.3,2020.49,-434.14,-28.7999,0
24241,786.18,769.57,771.71,764.75,773.05,120.61,-951.66,357.42,-0.05,3.07,0.63,19.82,4849,0,82,-39.2119,-2.5653,-411.931,12196.5,26423.8,2090.24,-433.854,-29.608,0
24275,786.27,769.62,771.63,764.79,773.08,131.84,-950.68,363.28,0.24,0.98,-2.22,16.53,4856,0,82,-39.086,-2.68244,-411.502,12225.3,26363.5,2150.84,-433.933,-29.709,0
24309,786.34,769.55,771.65,764.71,773.06,127.44,-946.29,349.12,1.34,-0.25,0.7,18.62,4863,0,82,-38.7825,-2.49448,-407.465,12064,26112,2081.01,-433.916,-29.6075,0
24344,786.49,769.53,771.64,764.75,773.1,125.49,-948.73,362.3,1.21,1.11,-0.11,17.34,4870,0,82,-38.3923,-0.987285,-400.73,11779.2,25640.1,2198.05,-434.017,-29.3943,0
24377,786.55,769.64,771.65,764.74,773.15,121.09,-946.29,352.54,0.59,0.3,-1.83,16.5,4876,0,82,-37.9713,-0.419859,-394.266,11447.5,25066.3,2089.98,-434.423,-29.0351,0
24412,786.61,769.64,771.63,764.78,773.16,122.07,-927.25,372.07,0.73,1.93,-0.19,15.22,4883,0,82,-37.5956,-0.413945,-390.785,11201.8,24946.8,2048.3,-434.162,-28.6648,0
24446,786.77,769.59,771.69,764.79,773.21,127.93,-952.64,367.68,-0.7,2.7,-3.18,16.43,4890,0,82,-37.7709,0.0154215,-392.959,11460.2,25036,1961.65,-434.289,-29.1637,0
24479,786.88,769.58,771.73,764.74,773.23,130.37,-938.96,371.09,-2.38,1.63,3.05,17.83,4897,0,82,-37.6696,-0.213347,-394.598,11471.9,25186.8,1970.8,-434.171,-29.0723,0
24513,786.93,769.6,771.73,764.8,773.27,133.79,-943.36,346.19,-0.53,-1.63,-0.61,16.69,4904,0,82,-37.6629,-0.158557,-396.837,11524.1,25368.8,1929.23,-434.073,-29.0399,0
24547,786.74,769.54,771.69,764.72,773.17,122.56,-947.27,338.87,0.79,1.42,-1.1,18,4910,0,82,-38.1654,-0.372611,-397.61,11403.5,25385,1863.98,-434.156,-28.6801,0
24581,786.57,769.59,771.64,764.77,773.14,115.23,-945.8,337.89,1.87,1.8,1.18,16.27,4917,0,82,-38.4501,-0.0520055,-398.692,11297.3,25537,1769.92,-433.948,-28.3358,0
24615,786.46,769.52,771.68,764.72,773.09,118.16,-947.75,359.37,0.59,3.22,0.25,19,4924,0,82,-38.2426,0.394619,-401.281,11428.9,25659.5,1862.2,-434.056,-28.481,0
24649,786.51,769.52,771.64,764.65,773.08,130.86,-937.01,362.3,0.24,2.45,0.83,18.76,4931,0,82,-38.1802,0.21608,-403.33,11506.5,25825.2,1850.33,-433.97,-28.5287,0
24683,786.73,769.4,771.58,764.65,773.09,130.37,-945.31,363.28,0.22,0.81,0.78,17.5,4938,0,82,-38.5148,-0.127315,-405.889,11760.7,26074,1801.48,-433.761,-28.9753,0
24719,787.01,769.45,771.61,764.61,773.17,119.63,-945.31,356.93,2.01,1.29,3.02,17.53,4945,0,82,-38.4687,-0.714665,-404.392,11793,26054.7,1764.65,-433.571,-29.1621,0
24753,787.08,769.36,771.56,764.64,773.16,118.16,-938.48,354,0.18,2.6,1.63,16.18,4952,0,82,-38.3714,-1.2527,-406.266,11959.1,26142.7,1645.95,-433.651,-29.4364,0
24787,787.22,769.34,771.48,764.56,773.15,121.09,-940.92,344.73,-0.09,2.59,0.55,15.18,4958,0,82,-38.6898,-1.34501,-407.523,12156,26188.5,1700.14,-433.737,-29.8289,0
24821,787.33,769.18,771.48,764.58,773.14,116.7,-945.8,355.96,0.5,0.89,-1.61,15.69,4965,0,82,-38.8838,-1.87877,-409.157,12416.8,26388.2,1595.64,-433.506,-30.3474,0
24855,787.44,769.14,771.51,764.4,773.12,125.98,-942.38,370.12,1.6,1.13,-0.6,18.89,4972,0,82,-38.8896,-2.25728,-409.834,12512.6,26446.7,1513.65,-433.47,-30.531,0
24889,787.7,769.07,771.42,764.33,773.13,120.61,-943.85,352.05,3.25,0.31,-1.39,17.61,4979,0,82,-39.2162,-2.63412,-410.987,12590.3,26514.9,1528.08,-433.485,-30.6343,0
24924,787.75,768.99,771.33,764.34,773.11,129.88,-957.52,348.14,-0.18,3.11,-0.53,15.56,4986,0,82,-39.4122,-2.58714,-413.972,12801.1,26756.4,1439.6,-433.367,-30.9225,0
24958,787.89,768.94,771.28,764.32,773.11,125.98,-942.38,357.42,0.01,3.58,1.74,14.8,4993,0,82,-39.5653,-2.53516,-416.168,12976.2,26996.2,1507.4,-433.132,-31.1801,0
24992,787.88,769.03,771.22,764.25,773.1,128.91,-937.01,352.05,0.66,-0.51,0.3,13.51,4999,0,82,-39.596,-2.52006,-418.014,12905,27069.8,1506.02,-433.242,-30.8723,0
25026,787.99,768.87,771.27,764.15,773.07,127.93,-948.73,360.84,-0.3,1.06,-0.44,17.13,5006,0,82,-39.3826,-1.73059,-414.803,12766,26837,1580.7,-433.302,-30.7762,0
25062,788,768.91,771.24,764.25,773.1,123.54,-950.68,361.33,0.84,2.56,1.03,14.57,5013,0,82,-39.049,-1.63658,-409.537,12303.5,26504.6,1580.19,-433.282,-30.0425,0
25096,788.1,768.86,771.23,764.21,773.1,123.54,-932.13,357.91,-0.14,1.5,1.47,14.85,5020,0,82,-38.2872,-1.29151,-407.692,12319.4,26287.1,1571.37,-433.522,-30.2175,0
25132,787.96,768.87,771.2,764.24,773.07,116.7,-948.24,362.79,0.57,1.24,0.34,14.21,5027,0,82,-38.3704,-1.5495,-406.414,12344.6,26342.2,1553.59,-433.184,-30.3744,0
25166,787.87,768.97,771.22,764.28,773.08,127.44,-940.43,370.61,0.27,2.23,3.11,13.51,5034,0,82,-38.6781,-1.45504,-409.69,12832,26566,1527.08,-433.156,-31.3211,0
25200,787.82,769.01,771.3,764.33,773.11,127.44,-949.22,373.54,-0.08,1.73,-1.23,14.67,5041,0,82,-39.0321,-1.90871,-411.247,13171.4,26875.4,1498.09,-432.649,-32.0279,0
25234,787.7,769,771.32,764.37,773.1,119.14,-953.61,354.98,-0.62,2.31,0.08,14.99,5048,0,82,-39.1102,-2.10439,-411.393,13421.4,26890.8,1412.48,-432.635,-32.6242,0
25268,787.61,769.07,771.32,764.37,773.09,115.72,-936.52,347.17,3.73,1.68,-0.23,14.84,5055,0,82,-38.7986,-2.50728,-408.232,13479.7,26672.1,1363.9,-432.664,-33.0199,0
25302,787.63,769.03,771.34,764.4,773.1,124.02,-949.71,370.12,-1.13,1.8,1.79,14.86,5061,0,82,-38.6936,-2.42772,-407.788,13783.8,26719.1,1261.86,-432.478,-33.8014,0
25336,787.69,769.02,771.38,764.38,773.12,119.63,-947.27,363.77,1.58,0.98,1.66,16.23,5068,0,82,-38.2891,-2.24294,-406.271,14077.2,26698.8,1283.77,-432.283,-34.6498,0
25370,787.68,769.05,771.41,764.45,773.15,117.68,-957.03,359.37,-0.95,2.46,-1.69,15.88,5075,0,82,-38.3579,-2.94194,-405.394,14278.9,26831.2,1171,-431.814,-35.2222,0
25405,787.69,768.98,771.29,764.52,773.12,130.86,-940.43,355.47,1.05,0.72,-1.48,12.24,5082,0,82,-37.9672,-2.83491,-405.654,14611.8,26799,1129.06,-431.936,-36.0205,0
25439,787.72,768.95,771.31,764.4,773.1,119.14,-944.34,354,-0.21,2.71,0.11,14.7,5089,0,82,-38.2847,-3.0165,-404.054,14762.8,26795.7,1088.3,-431.683,-36.5368,0
25473,787.7,769.05,771.32,764.3,773.09,115.72,-958.01,344.73,0.34,0.95,-4.76,15.61,5096,0,82,-38.1159,-2.64821,-403.675,14688.4,26719.8,1059.42,-431.808,-36.3868,0
25507,787.77,769.01,771.28,764.28,773.08,127.93,-945.8,354.98,-0.02,4.59,2.09,15.07,5102,0,82,-37.8686,-2.59779,-403.285,14746.2,26668.8,1163.33,-431.871,-36.5651,0
25543,787.8,768.95,771.28,764.29,773.08,126.46,-946.29,359.37,1.06,1.67,2.73,15.22,5110,0,82,-37.9533,-3.02947,-404.331,14798.5,26803.1,1031.95,-431.71,-36.6,0
25577,787.8,768.92,771.33,764.3,773.09,133.79,-939.45,345.7,1.7,0.11,-0.06,16.57,5116,0,82,-37.635,-3.32427,-405.254,14821.1,26781.3,1010.88,-431.915,-36.5725,0
25611,787.9,768.98,771.23,764.28,773.1,142.58,-933.11,352.05,-0.15,-2.11,2.92,13.6,5123,0,82,-38.0286,-3.7051,-405.627,14603.9,26774.4,1080.37,-431.992,-36.0035,0
25645,787.84,768.95,771.3,764.36,773.11,125,-942.38,371.58,1.76,-0.5,-2.2,14.54,5130,0,82,-37.9449,-3.44987,-406.535,14407.1,26729.9,1080.82,-432.249,-35.4387,0
25679,787.87,769.09,771.34,764.3,773.15,127.44,-936.52,357.42,-0.21,2.66,-0.02,15.31,5137,0,82,-38.1527,-3.08045,-406.013,14146,26725.8,1153.29,-432.175,-34.8412,0
25714,787.73,769.03,771.31,764.37,773.11,125.98,-947.75,362.79,1.6,3.84,0.4,14.41,5144,0,82,-38.1357,-2.56462,-405.23,14041.1,26618.1,1202.78,-432.314,-34.6498,0
25748,787.73,769.07,771.35,764.41,773.14,120.12,-947.75,354,1.73,0.08,3.42,14.56,5151,0,82,-37.9427,-2.34396,-405.494,13853.5,26647.2,1140.2,-432.285,-34.1645,0
25782,787.63,769.03,771.31,764.37,773.08,121.09,-951.66,374.51,1.08,1.44,0.91,14.63,5157,0,82,-38.1012,-2.23148,-406.354,13960.8,26723.1,1164.83,-432.237,-34.3562,0
25816,787.63,769.07,771.29,764.4,773.1,129.88,-937.99,361.82,0.31,1.55,0.37,13.57,5164,0,82,-38.1205,-2.56784,-407.115,14073.5,26749.5,1093.09,-432.295,-34.5689,0
25850,787.62,769.04,771.3,764.37,773.08,117.68,-943.85,364.26,-0.23,0.71,-1.24,14.51,5171,0,82,-38.2516,-2.99459,-408.308,14102.5,26820.9,1026.67,-432.312,-34.5389,0
25883,787.47,769.13,771.4,764.34,773.08,118.65,-955.08,347.66,0.5,1.96,2.31,17.12,5178,0,82,-38.2554,-2.73212,-408.889,14161.2,26891.2,1064.95,-432.233,-34.6333,0
25917,787.5,769.16,771.39,764.42,773.12,125.49,-943.85,346.68,-4.02,0.92,0.95,15.43,5184,0,82,-38.3129,-2.77602,-407.462,14268,26809.1,1011.39,-432.205,-35.0168,0
25952,787.43,769.22,771.43,764.46,773.14,120.61,-937.01,357.91,0.08,1.18,2.11,15.48,5191,0,82,-38.2444,-2.81844,-407.316,14108.5,26748.3,1079.92,-432.33,-34.6377,0
25987,787.55,769.21,771.39,764.54,773.17,110.84,-930.18,361.33,1.18,1.98,0.08,13.18,5198,0,82,-37.7994,-2.85664,-405.858,14214.4,26664.9,1125.56,-432.3,-35.023,0
26021,787.6,769.21,771.48,764.6,773.22,122.07,-934.08,358.4,-0.05,1.72,-1.08,14.38,5205,0,82,-37.8127,-2.88324,-406.605,14447.8,26750.3,1157.56,-432.211,-35.5327,0
26055,787.52,769.18,771.37,764.59,773.17,136.72,-939.94,363.28,-0.2,0.91,0.22,12.24,5212,0,82,-37.7854,-3.45683,-407.717,14368.9,26814.4,978.342,-432.233,-35.2424,0
26089,787.33,769.13,771.48,764.63,773.14,118.16,-937.99,364.75,-1.31,3.53,1.61,15.4,5219,0,82,-38.1935,-3.27664,-408.279,14532.6,26940.3,1064.67,-432.015,-35.5947,0
26123,787.28,769.15,771.41,764.66,773.13,121.09,-948.73,357.42,0.02,0.63,-0.08,13.4,5226,0,82,-38.4554,-2.75918,-409.763,14514.4,26965.4,1052.86,-432.193,-35.4215,0
26157,787.19,769.11,771.49,764.63,773.11,105.96,-941.41,360.84,1.89,3.05,0.3,16.47,5232,0,82,-38.078,-2.83256,-409.2,14389.1,26984,1079.05,-432.057,-35.1639,0
26190,787.2,769.2,771.46,764.59,773.11,117.68,-943.85,351.56,-1.73,0.11,0.36,15.28,5239,0,82,-38.245,-2.86645,-409.246,14018.5,26758.3,1015.75,-432.615,-34.2544,0
26224,787.31,769.19,771.54,764.63,773.17,126.46,-938.48,362.3,0.17,1.36,-1.78,16.66,5246,0,82,-38.2186,-2.90808,-406.902,13952.6,26605.3,1069.28,-432.615,-34.2897,0
26258,787.2,769.35,771.58,764.8,773.23,125.49,-949.22,350.59,-1.27,1.29,0.73,14.12,5253,0,82,-37.996,-3.07029,-406.297,13932.8,26490.8,1049.91,-432.799,-34.2923,0
26292,786.94,769.38,771.52,764.71,773.14,119.63,-927.73,369.63,0.83,0.68,1.34,14.55,5259,0,82,-38.5131,-3.13182,-406.376,13873.4,26509,1050.24,-432.767,-34.1392,0
26326,786.7,769.36,771.62,764.81,773.12,134.28,-955.08,348.14,1.79,2.39,1.92,16.62,5266,0,82,-38.3471,-3.23715,-405.764,13957,26604.9,1003.28,-432.433,-34.3969,0
26362,786.4,769.54,771.64,764.83,773.1,122.56,-936.04,330.08,-1.33,-0.23,-0.53,16.36,5273,0,82,-38.2444,-3.35929,-406.198,13820.5,26537.1,961.332,-432.67,-34.024,0
26396,786.16,769.71,771.76,764.92,773.14,128.91,-945.8,355.47,0.46,2.33,3.85,17.41,5280,0,82,-38.0519,-3.09482,-405.976,13775.1,26586.9,925.866,-432.511,-33.9309,0
26430,785.99,769.67,771.84,764.99,773.12,124.51,-942.87,356.93,1,-0.39,2.27,19.24,5287,0,82,-37.8548,-3.18042,-407.649,13717.9,26560.9,826.07,-432.844,-33.6514,0
26465,785.9,769.75,771.84,765.12,773.15,124.02,-940.92,352.54,-0.68,1.34,0.97,17.04,5294,0,82,-38.1727,-3.31277,-410.794,13709.6,26772.2,885.112,-432.828,-33.3733,0
26499,785.76,769.78,771.92,765.12,773.15,113.77,-943.85,346.19,1.28,2.73,2.75,19.45,5301,0,82,-38.3331,-3.63664,-413.152,13769.6,26976.7,880.15,-432.705,-33.3281,0
26533,785.54,769.79,771.98,765.16,773.12,129.39,-953.61,355.96,-0.92,0.89,-0.94,20.84,5308,0,82,-38.9202,-3.53864,-413.566,13702,26964.8,804.913,-432.799,-33.1313,0
26567,785.37,769.88,771.89,765.24,773.09,104.49,-951.66,366.21,1.5,3.4,1.82,17.46,5314,0,82,-38.8755,-3.56043,-410.687,13556.1,26782.1,820.817,-432.787,-33.0083,0
26601,785.17,769.87,771.92,765.21,773.04,126.95,-946.78,365.23,-0.77,2.79,0.95,19.4,5321,0,82,-38.7703,-3.87518,-409.513,13138.1,26665.9,864.187,-432.884,-32.0823,0
26635,785.27,769.82,771.96,765.2,773.06,114.75,-953.12,366.21,1.19,0.52,0.65,20.34,5328,0,82,-38.8045,-3.47626,-409.017,13138.3,26668.4,900.253,-432.799,-32.1217,0
26669,785.33,769.87,771.95,765.29,773.11,135.25,-942.87,372.07,-1.4,0.78,1.37,18.5,5335,0,82,-38.4957,-3.38078,-410.752,13128.6,26737.3,913.698,-432.906,-31.9623,0
26704,785.49,769.92,771.9,765.28,773.15,125.49,-943.85,350.1,0.06,0.95,-0.15,16.19,5342,0,82,-38.5524,-4.02008,-412.84,13342,26852.7,1013.86,-432.956,-32.3175,0
26738,785.54,769.92,772.01,765.3,773.19,120.61,-942.38,359.37,-0.14,2.41,-1.23,18.48,5349,0,82,-38.9446,-4.19931,-415.446,13265.6,27108.6,1044.16,-432.748,-31.9311,0
26773,785.63,769.95,771.96,765.24,773.2,119.14,-939.94,361.82,0.18,0.35,-3.72,17.54,5356,0,82,-39.4255,-4.47766,-414.883,12853.1,26912.8,1139.59,-433.132,-30.9802,0
26808,785.66,769.94,772,765.3,773.22,114.75,-942.38,358.4,-0.01,-1.71,0.57,17.71,5363,0,82,-39.4882,-4.16072,-412.455,12544.2,26638.1,1091.84,-433.416,-30.4133,0
26842,785.62,769.98,772.02,765.22,773.21,125.98,-948.24,356.93,0.4,2.15,0.77,19.06,5369,0,82,-39.082,-3.84594,-410.822,11992.3,26498.1,1055.4,-433.5,-29.191,0
26876,785.53,770.01,771.9,765.15,773.15,113.77,-957.03,373.54,-0.6,3,-0.53,17.4,5376,0,82,-38.9765,-3.39599,-409.993,11315.7,26290.2,1248.33,-433.877,-27.5997,0
26912,785.5,769.99,771.94,765.07,773.12,116.7,-946.78,357.91,0.13,1.16,0.41,19.78,5383,0,82,-39.2994,-2.92646,-413.148,11105,26374.3,1329.33,-434.163,-26.879,0
26946,785.53,769.97,771.92,765.1,773.13,124.02,-955.57,354.98,-2.55,1.32,-1.22,19.01,5390,0,82,-39.6586,-2.79406,-414.517,10931.6,26395.3,1480.73,-434.323,-26.3718,0
26980,785.68,769.95,772,765.06,773.17,113.77,-929.69,347.66,1.29,0.88,2,21.19,5397,0,82,-39.6047,-3.42418,-414.171,10650.7,26353.1,1420.45,-434.372,-25.7157,0
27014,785.78,769.87,771.85,765.02,773.13,117.68,-940.92,350.59,-0.29,2.33,1.11,18.27,5404,0,82,-39.801,-3.17883,-412.385,10338.7,26149.6,1318.22,-434.589,-25.0704,0
27049,785.92,769.75,771.84,764.97,773.12,121.09,-943.36,350.1,1.69,3.44,-2.33,19.15,5411,0,82,-39.6045,-2.73304,-409.948,10183.5,25948.4,1417.4,-434.703,-24.8408,0
27083,786.04,769.74,771.75,764.94,773.12,133.3,-947.27,368.65,0.02,1.04,-0.25,17.23,5418,0,82,-39.2359,-2.62392,-408.878,9972.13,25864.7,1297.68,-434.742,-24.389,0
27117,786.18,769.74,771.79,764.9,773.16,126.46,-960.45,353.52,1.93,1.71,1.2,18.22,5424,0,82,-39.4803,-2.30241,-409.933,10194.6,25963,1369.02,-434.665,-24.869,0
27151,786.23,769.74,771.76,764.85,773.15,141.6,-955.08,362.79,1.06,0.62,0.02,18.07,5431,0,82,-39.4815,-3.05358,-413.695,10169.1,26189.9,1400.28,-434.693,-24.5811,0
27187,786.17,769.68,771.73,764.84,773.1,108.89,-957.03,333.98,-0.66,0.24,0.93,18.25,5438,0,82,-39.6555,-2.78127,-415.785,10392.2,26377.9,1397.52,-434.559,-24.9943,0
27221,786.25,769.65,771.68,764.79,773.09,127.44,-939.94,354.98,1.53,0.5,-0.52,17.53,5445,0,82,-39.9577,-3.47042,-417.741,10435.1,26504.4,1395.26,-434.553,-24.9798,0
27255,786.2,769.7,771.65,764.77,773.08,125,-947.75,360.84,0.06,-0.73,3.04,16.93,5452,0,82,-40.2881,-3.33175,-418.469,10659.8,26576.8,1518.68,-434.49,-25.4732,0
27289,786.23,769.63,771.69,764.7,773.06,115.23,-940.43,360.35,-1.05,0.75,-0.98,19.35,5459,0,82,-39.9591,-2.86082,-418.588,10900.4,26486.2,1542.4,-434.725,-26.0408,0
27323,786.26,769.63,771.68,764.73,773.08,125.49,-934.57,361.82,0.61,0,-2.73,18.48,5466,0,82,-40.0908,-2.921,-417.588,10865,26370.6,1553.91,-434.85,-26.0185,0
27358,786.22,769.57,771.62,764.8,773.05,126.95,-939.45,350.1,0.7,2.22,-0.47,16.68,5473,0,82,-39.9881,-2.79159,-412.133,10545.9,26108.4,1642.42,-434.651,-25.5886,0
27392,786.33,769.56,771.63,764.82,773.09,132.32,-940.92,345.21,-0.62,0.77,-1.02,16.44,5479,0,82,-40.1868,-2.03976,-411.868,10735.8,25972.2,1658.65,-434.94,-26.0662,0
27426,786.33,769.64,771.69,764.73,773.1,129.88,-938.96,349.12,2.04,1.53,-2.76,18.49,5486,0,82,-40.0151,-1.80739,-410.624,10638.4,25876.9,1610.97,-434.982,-25.9079,0
27460,786.37,769.56,771.71,764.79,773.11,123.54,-948.24,352.05,2.02,2.47,-0.15,18.52,5493,0,82,-39.4451,-1.79828,-409.033,10803.2,25861.1,1775.79,-434.775,-26.4116,0
27494,786.46,769.59,771.65,764.78,773.12,122.56,-944.82,362.79,-0.02,2.61,0.4,16.69,5500,0,82,-39.4398,-1.75612,-409.427,11223.1,25927.2,1637.04,-434.674,-27.4117,0
27527,786.51,769.55,771.62,764.75,773.11,125.98,-946.29,354.98,0.64,2.22,1.76,16.46,5506,0,82,-39.5271,-2.40693,-409.195,11292.9,25973.3,1585.11,-434.526,-27.5977,0
27561,786.49,769.52,771.64,764.75,773.1,120.61,-943.36,352.54,-0.37,0.69,2.71,17.37,5513,0,82,-39.1679,-3.06681,-409.17,11555.7,26017.8,1454.31,-434.413,-28.2418,0
27596,786.57,769.38,771.65,764.76,773.09,116.21,-940.92,352.05,2.25,0.08,1.69,18.32,5520,0,82,-39.0388,-2.72566,-408.797,11955.3,26177.3,1409.22,-433.965,-29.2452,0
27629,786.5,769.42,771.66,764.83,773.1,112.3,-937.99,358.89,3.52,2.09,2.66,17.56,5527,0,82,-39.1937,-2.7136,-408.233,11828.3,26038,1550.29,-434.218,-28.9744,0
27663,786.47,769.43,771.68,764.78,773.09,127.44,-943.85,359.86,0.84,0.22,2.66,18.82,5534,0,82,-38.9463,-2.37304,-406.551,11880.8,25985.2,1395.84,-434.084,-29.2235,0
27697,786.45,769.44,771.63,764.8,773.08,131.35,-949.71,355.96,-1.24,0.65,-1.5,17.28,5540,0,82,-38.6814,-2.38884,-405.697,11982.4,25977.7,1423.35,-433.968,-29.5354,0
27731,786.41,769.43,771.67,764.71,773.06,136.72,-944.82,357.42,0.4,0.74,0.67,19.72,5547,0,82,-38.9085,-2.34632,-405.013,12003.6,25910.5,1421.03,-434.025,-29.6375,0
27765,786.51,769.41,771.65,764.73,773.07,129.39,-944.34,348.14,-0.39,0.45,1.02,18.8,5554,0,82,-38.6943,-2.43378,-403.857,12066.2,25946.5,1371.28,-433.753,-29.8775,0
27799,786.47,769.45,771.63,764.71,773.06,127.44,-945.31,359.37,-2.08,1.33,-1.82,18.31,5561,0,82,-38.4589,-2.44795,-404.518,12099.8,25978.1,1385.56,-433.78,-29.9116,0
27833,786.4,769.45,771.59,764.69,773.03,125,-935.06,361.33,1.6,0.77,0.32,17.87,5568,0,82,-38.3429,-1.99043,-403.19,12130.4,25931.2,1410.34,-433.685,-30.086,0
27868,786.49,769.41,771.66,764.65,773.05,112.3,-950.2,350.59,1.24,0.94,-1.43,20.26,5575,0,82,-38.6544,-2.15479,-404.508,12118.9,25992.2,1294.93,-433.744,-29.9596,0
27902,786.41,769.45,771.63,764.67,773.04,123.54,-928.22,357.91,-0.51,0.37,-0.77,19.29,5581,0,82,-38.4087,-1.6898,-405.016,12270.4,26059.2,1355.68,-433.659,-30.2962,0
27936,786.42,769.38,771.61,764.63,773.01,121.09,-941.89,361.82,-1.68,2.05,-1.67,19.69,5588,0,82,-38.2183,-1.93823,-404.031,12243.7,26055.2,1279.82,-433.512,-30.3038,0
27972,786.46,769.41,771.63,764.68,773.04,118.65,-950.2,367.68,0.44,2.11,-0.15,19.36,5595,0,82,-38.3435,-2.34383,-405.31,12294.6,26148.4,1299.87,-433.485,-30.3337,0
28006,786.34,769.46,771.58,764.64,773,120.12,-946.29,356.45,-0.61,2.78,0.76,18.53,5602,0,82,-38.5663,-2.49202,-405.343,12474.1,26198.9,1333.08,-433.366,-30.7743,0
28040,786.35,769.46,771.65,764.72,773.05,124.51,-950.2,354,3.08,0.27,-0.87,18.94,5609,0,82,-38.5301,-2.36703,-406.276,12518.8,26271.4,1363.79,-433.336,-30.8136,0
28074,786.39,769.44,771.68,764.74,773.06,123.05,-942.87,363.77,-0.98,1.99,1.16,19.54,5616,0,82,-38.3362,-2.32044,-406.206,12547.3,26301.1,1403.49,-433.252,-30.8892,0
28108,786.4,769.47,771.64,764.7,773.05,125,-927.73,355.96,1.08,0.84,0.68,19.05,5623,0,82,-38.7315,-2.29946,-406.81,12705.5,26333,1312.32,-433.27,-31.2321,0
28142,786.41,769.5,771.62,764.69,773.05,126.95,-937.99,359.86,2.56,0.63,0.54,18.42,5629,0,82,-38.5537,-2.11381,-405.747,12623.3,26199.1,1461.03,-433.43,-31.1112,0
28177,786.31,769.48,771.7,764.62,773.03,128.91,-937.5,374.02,1.73,1.99,1.7,21.87,5636,0,82,-38.4631,-2.55019,-404.859,12541.5,26176.7,1361.92,-433.344,-30.9774,0
28211,786.35,769.45,771.64,764.67,773.03,113.28,-941.89,352.05,1.09,0.89,0.11,19.47,5643,0,82,-38.4052,-2.36197,-405.153,12405.8,26203.9,1384.28,-433.323,-30.6199,0
28245,786.32,769.47,771.63,764.7,773.03,126.95,-943.36,349.61,-0.92,0.82,0.66,18.87,5650,0,82,-38.6778,-2.04356,-404.609,12573.9,26185,1374.93,-433.283,-31.0768,0
28279,786.29,769.6,771.67,764.73,773.07,113.28,-937.5,351.56,1.36,2.63,1.13,18.36,5657,0,82,-38.2248,-1.97131,-405.284,12573.7,26192.3,1360.59,-433.373,-31.0243,0
28313,786.38,769.55,771.68,764.77,773.1,137.21,-944.82,359.86,1.13,-1,-1.64,18.34,5664,0,82,-38.6509,-2.30458,-403.012,12463.2,26054.7,1282.98,-433.35,-30.9252,0
28347,786.35,769.61,771.72,764.72,773.1,117.19,-945.31,371.58,1.9,1.56,0.76,19.69,5670,0,82,-38.3362,-2.09194,-403.057,12486.4,25993.3,1323.07,-433.51,-30.9792,0
28383,786.35,769.64,771.71,764.74,773.11,112.79,-938.96,357.91,0.7,2.56,1.47,18.89,5678,0,82,-38.4402,-2.55521,-402.811,12402,26002.9,1454.98,-433.446,-30.7886,0
28417,786.39,769.7,771.72,764.86,773.16,115.72,-935.06,361.82,-0.71,-0.5,-0.66,16.67,5684,0,82,-38.4906,-2.24236,-402.493,12595.2,26016.7,1407.22,-433.361,-31.2929,0
28451,786.54,769.62,771.72,764.84,773.18,137.21,-940.92,361.33,3.01,3.64,-0.07,17.22,5691,0,82,-38.504,-2.17079,-403.187,12422.4,25988.2,1424.01,-433.543,-30.8105,0
28485,786.6,769.6,771.7,764.85,773.19,127.44,-949.71,354,0,4.63,-2.33,16.47,5698,0,82,-38.4355,-1.82448,-401.617,12424.7,25887.3,1506.33,-433.542,-30.9368,0
28520,786.67,769.51,771.67,764.86,773.18,123.54,-933.11,346.68,-1.42,3.63,-0.65,15.97,5705,0,82,-38.4473,-1.80059,-402.108,12249.9,25880,1464.27,-433.639,-30.4642,0
28554,786.67,769.61,771.72,764.74,773.18,134.77,-944.82,356.45,-1.99,3.21,0.36,18.36,5712,0,82,-38.5736,-1.85256,-402.294,12320.5,25955.5,1512.72,-433.481,-30.6258,0
28588,786.75,769.56,771.7,764.73,773.19,115.23,-932.62,360.35,3.68,-0.94,0.94,17.98,5719,0,82,-38.5932,-2.21798,-403.521,12273,25999.5,1523.33,-433.568,-30.4149,0
28622,786.65,769.54,771.73,764.76,773.17,118.16,-941.89,350.59,0.18,2.51,1.82,18.77,5725,0,82,-38.4215,-1.94171,-402.727,12288.5,25896.3,1498.98,-433.698,-30.5131,0
28656,786.73,769.59,771.66,764.75,773.18,124.02,-950.68,357.42,-0.34,2.47,1.33,16.47,5732,0,82,-38.4325,-2.0177,-401.806,12104.3,25868.4,1522.35,-433.62,-30.1247,0
28690,786.84,769.49,771.71,764.79,773.21,115.72,-945.8,365.72,2.13,-0.59,1.34,17.53,5739,0,82,-38.7511,-1.51925,-403.868,12294.7,25953.8,1500.36,-433.737,-30.4425,0
28724,786.79,769.67,771.69,764.74,773.22,123.54,-943.85,354.49,0.75,1.85,1.13,16.69,5746,0,82,-38.8843,-1.93498,-403.496,12188,25990.7,1542.82,-433.586,-30.206,0
28759,786.82,769.67,771.71,764.73,773.23,123.54,-948.24,352.54,0.46,1.27,0.51,17,5753,0,82,-38.8255,-2.1593,-406.096,12371.7,26107.6,1542.81,-433.711,-30.465,0
28796,786.73,769.54,771.67,764.8,773.18,126.46,-957.52,350.1,1.4,-0.78,-2.56,16.36,5760,0,82,-39.0351,-2.06528,-406.882,12339.8,26194.5,1488.46,-433.621,-30.3278,0
28830,786.69,769.55,771.69,764.72,773.16,134.28,-954.1,364.75,0.58,0.58,-0.47,18.12,5767,0,82,-39.1343,-2.26398,-408.18,12151.8,26179.2,1497.85,-433.864,-29.7706,0
28865,786.67,769.61,771.66,764.76,773.17,111.82,-943.36,359.37,2.28,1.07,-0.71,16.45,5774,0,82,-39.3175,-1.71467,-409.477,12343.3,26277.8,1587.59,-433.826,-30.144,0
28899,786.7,769.57,771.72,764.83,773.21,121.09,-938.96,345.7,0.8,1.6,0.43,17.06,5781,0,82,-39.3392,-1.94721,-410.086,12303.6,26288.2,1624.56,-433.896,-30.0024,0
28933,786.69,769.45,771.67,764.83,773.16,119.14,-940.92,353.52,0.94,-0.2,0.28,16.92,5788,0,82,-39.3965,-2.18564,-411.196,12363.1,26406.4,1570,-433.782,-30.0662,0
28967,786.54,769.6,771.75,764.91,773.2,124.02,-934.57,346.19,-0.24,-1.42,-0.24,16.99,5794,0,82,-39.3193,-2.29054,-412.337,12655.8,26541.6,1486.47,-433.631,-30.6929,0
29001,786.51,769.6,771.73,764.91,773.19,133.79,-949.22,354.49,-1.67,2.66,-0.4,16.45,5801,0,82,-39.4535,-2.35535,-413.751,12662.7,26610,1503.68,-433.686,-30.6046,0
29035,786.54,769.49,771.73,764.88,773.16,115.72,-942.38,353.52,1.35,1.06,2.53,17.94,5808,0,82,-39.574,-2.44251,-414.015,12835,26776.8,1473.5,-433.324,-31.0012,0
29069,786.63,769.56,771.62,764.75,773.14,122.07,-940.92,352.05,-0.46,-0.13,-0.2,16.12,5815,0,82,-39.7842,-2.82264,-415.008,12798.1,26781.2,1500.6,-433.468,-30.8382,0
29103,786.66,769.51,771.6,764.69,773.12,121.09,-945.31,356.45,0.18,0.17,1.07,16.81,5822,0,82,-39.6709,-2.71592,-414.391,12704.9,26714.8,1525.79,-433.532,-30.6592,0
29136,786.68,769.49,771.66,764.73,773.14,120.61,-936.04,356.45,0.17,-0.28,-1.5,17.92,5828,0,82,-39.6073,-2.46521,-413.727,12782.5,26739.8,1472.63,-433.369,-30.896,0
29170,786.84,769.41,771.62,764.7,773.14,131.35,-947.75,344.24,-2.37,1.38,-1.46,17.35,5835,0,82,-39.4411,-2.82817,-414.812,12901,26791.5,1427.03,-433.413,-31.1009,0
29205,786.73,769.54,771.63,764.7,773.15,122.07,-943.36,361.33,1.19,-0.12,2.05,16.88,5842,0,82,-39.5486,-2.58138,-414.789,13005.6,26822.4,1439.11,-433.335,-31.3549,0
29239,786.81,769.48,771.66,764.71,773.17,123.05,-946.78,361.82,0.13,1.74,-0.98,17.58,5849,0,82,-39.6586,-3.00374,-415.922,13080.2,26861.2,1435.81,-433.418,-31.4487,0
29272,786.83,769.55,771.6,764.65,773.16,130.86,-940.43,345.7,-0.84,2.66,1.82,16.47,5855,0,82,-39.6886,-3.0026,-416.167,13019.3,26888.8,1413.31,-433.389,-31.2836,0
29307,786.84,769.5,771.65,764.72,773.18,124.02,-948.73,350.59,0.23,2.53,1.03,16.99,5862,0,82,-39.6257,-3.55157,-412.812,12724.3,26636.4,1482.15,-433.476,-30.8235,0
29341,786.88,769.59,771.66,764.67,773.2,121.09,-933.11,368.65,-0.63,1.21,0.32,17.16,5869,0,82,-39.5005,-2.93179,-413.991,12749.9,26683.1,1392.13,-433.547,-30.7975,0
29374,786.86,769.57,771.69,764.65,773.19,121.58,-943.36,354.98,-0.63,-0.08,0.76,18.49,5876,0,82,-39.4183,-2.94521,-415.427,12765.5,26826.2,1312,-433.425,-30.7288,0
29408,786.96,769.53,771.68,764.7,773.22,119.63,-948.24,360.35,1.03,0.19,1.27,17.33,5883,0,82,-39.7896,-2.88578,-416.804,12577.1,26954.2,1277.73,-433.331,-30.1752,0
29442,786.85,769.53,771.72,764.72,773.2,120.61,-943.85,349.12,-0.73,1.9,2.61,18.46,5889,0,82,-39.5962,-2.20845,-414.531,12527.7,26877.1,1261.78,-433.163,-30.2214,0
29476,786.86,769.48,771.64,764.71,773.17,107.91,-940.92,351.56,-1.51,1.31,3.45,16.97,5896,0,82,-39.3569,-2.11941,-413.666,12406.9,26596.3,1244.4,-433.706,-29.9926,0
29510,786.79,769.51,771.66,764.72,773.17,123.54,-947.75,368.16,0.07,1.41,2.05,17.36,5903,0,82,-39.6478,-2.14645,-411.574,12540.3,26514.1,1223.52,-433.579,-30.4691,0
29544,786.8,769.52,771.64,764.72,773.17,126.95,-954.1,352.54,-0.25,0.68,1.03,16.83,5910,0,82,-39.3263,-2.66644,-410.663,12662.1,26513.4,1270.75,-433.437,-30.8332,0
29578,786.74,769.55,771.56,764.7,773.14,129.39,-951.17,359.37,-0.58,0.85,1.24,15.07,5917,0,82,-39.3895,-2.71548,-411.742,12958,26542.9,1316.08,-433.535,-31.4711,0
29614,786.66,769.52,771.63,764.78,773.15,144.04,-947.75,354,-1.21,1.95,-0.34,15.98,5924,0,82,-39.1096,-2.71432,-411.104,13052.1,26535.6,1212.65,-433.453,-31.749,0
29648,786.67,769.51,771.68,764.7,773.14,125.49,-946.78,359.37,-1.18,0.47,0.36,18.57,5931,0,82,-38.9293,-3.05512,-411.426,12926.6,26482.5,1284.2,-433.632,-31.4191,0
29682,786.56,769.43,771.62,764.73,773.09,124.51,-943.36,345.7,2.73,-0.82,1.34,17.71,5937,0,82,-39.3752,-3.02607,-410.253,12965.9,26568.7,1433.87,-433.238,-31.6046,0
29716,786.58,769.5,771.64,764.74,773.12,120.61,-938.96,339.84,-2.04,2.09,0.37,17.4,5944,0,82,-39.0411,-2.75256,-411.89,13241.2,26642.6,1332.62,-433.316,-32.1475,0
29752,786.61,769.46,771.65,764.81,773.13,115.72,-937.99,362.79,1.54,0.85,-1.54,16.91,5951,0,82,-39.2347,-3.25498,-412.285,13167.3,26683.4,1254.37,-433.279,-31.9372,0
29786,786.61,769.44,771.62,764.75,773.1,125.98,-954.59,354.49,1.29,0.71,-0.87,17.24,5958,0,82,-39.1917,-3.37568,-412.598,13170.6,26682,1281.9,-433.332,-31.9211,0
29820,786.65,769.49,771.6,764.75,773.12,121.58,-943.36,355.47,-0.13,1.17,0.58,16.12,5965,0,82,-39.2242,-2.97602,-413.075,13212.3,26666.3,1256.38,-433.444,-31.9852,0
29854,786.63,769.38,771.62,764.75,773.09,123.05,-946.78,359.86,1.79,2.28,1.45,17.55,5972,0,82,-39.0524,-2.79513,-412.505,13301.2,26670.9,1279.45,-433.344,-32.245,0
29888,786.68,769.49,771.57,764.74,773.12,132.81,-944.82,355.96,1.73,-0.71,-0.19,15.3,5979,0,82,-38.933,-2.81519,-413.474,13281.9,26714.5,1296.68,-433.39,-32.1228,0
29923,786.85,769.4,771.59,764.73,773.14,118.16,-926.76,356.45,2.4,-0.12,-0.73,16.09,5986,0,82,-38.9807,-2.91822,-412.284,13088.4,26687.4,1383.04,-433.269,-31.7461,0
29957,786.95,769.42,771.6,764.7,773.17,133.79,-956.54,359.37,1.38,-1.46,1.34,16.2,5992,0,82,-39.16,-2.89815,-412.728,13151.4,26683.4,1305.74,-433.349,-31.8646,0
29991,787.02,769.37,771.57,764.66,773.15,116.21,-947.27,352.54,2,0.63,0.4,16.5,5999,0,82,-39.0737,-2.35715,-412.604,13203.3,26627.7,1216.43,-433.464,-31.9998,0
30027,787.14,769.43,771.59,764.75,773.23,143.07,-956.05,363.77,-0.59,-0.79,0.52,14.5,6006,0,82,-39.3372,-2.48499,-411.859,13156.5,26625,1386.31,-433.354,-31.9442,0
30061,787.19,769.42,771.63,764.65,773.22,120.61,-953.12,354.98,1.37,1.02,1.53,16.97,6013,0,82,-39.2027,-2.61383,-411.605,13002.3,26555.9,1309.08,-433.482,-31.5894,0
30095,787.31,769.4,771.53,764.67,773.23,125.49,-942.38,349.61,1.32,0.4,0.6,14.13,6020,0,82,-39.3128,-2.10888,-410.042,12959,26508.6,1316.27,-433.352,-31.6041,0
30129,787.26,769.35,771.52,764.62,773.19,136.23,-949.71,359.37,-0.32,2.7,0.53,14.94,6027,0,82,-38.5989,-1.69938,-408.267,12733.4,26341.8,1381.27,-433.479,-31.189,0
30163,787.42,769.42,771.5,764.65,773.25,124.02,-941.89,362.3,-1.43,1.92,0.27,12.94,6034,0,82,-38.3972,-1.49849,-406.718,12597,26316.7,1351.43,-433.295,-30.9723,0
30197,787.43,769.34,771.52,764.58,773.22,120.12,-950.2,359.86,1.37,1.1,-0.85,15.03,6040,0,82,-38.8261,-1.60621,-407.543,12567.7,26310.4,1329.6,-433.441,-30.8376,0
30231,787.56,769.46,771.54,764.66,773.3,121.09,-936.52,346.68,0.97,1.56,-0.34,13.01,6047,0,82,-38.5565,-1.88659,-407.294,12672.8,26337.8,1323.34,-433.334,-31.1148,0
30266,787.48,769.39,771.49,764.62,773.24,122.56,-937.5,363.28,-0.92,0.08,1.4,13.2,6054,0,82,-38.4427,-1.68939,-407.584,12801.1,26391.5,1385.29,-433.249,-31.4072,0
30300,787.62,769.34,771.48,764.54,773.25,117.68,-942.87,359.86,0.54,1.78,-4.53,13.92,6061,0,82,-38.5166,-1.57593,-407.16,12815,26374.2,1352.98,-433.224,-31.4741,0
30334,787.65,769.37,771.53,764.57,773.28,118.16,-954.1,353.03,-1.51,1.36,2.03,14.51,6068,0,82,-38.5024,-1.63838,-406.769,12844.7,26346.5,1247.51,-433.23,-31.5773,0
30368,787.68,769.28,771.51,764.58,773.26,125.49,-947.27,352.54,-1.36,0.78,1.7,14.44,6075,0,82,-38.692,-2.07715,-407.752,12843.6,26451.2,1257.43,-433.129,-31.4986,0
30402,787.69,769.27,771.54,764.59,773.27,123.54,-941.89,350.59,2.34,2.08,1.88,15.2,6081,0,82,-38.4756,-2.02997,-408.029,13209.3,26591,1319.31,-432.831,-32.3735,0
30438,787.66,769.25,771.48,764.55,773.23,125.98,-952.15,352.05,-0.27,1.95,2.44,14.51,6089,0,82,-38.8173,-2.3381,-411.815,13411.7,26730.4,1340.6,-433.091,-32.5673,0
30472,787.66,769.4,771.48,764.57,773.28,121.09,-948.73,347.17,-1.02,-0.55,-0.05,12.84,6095,0,82,-38.9033,-2.69743,-413.146,13467.3,26840.4,1404.87,-433.034,-32.597,0
30506,787.73,769.26,771.48,764.49,773.24,124.51,-940.92,356.45,0.53,0.96,2.55,15.18,6102,0,82,-39.2173,-2.60927,-413.834,13787.7,26924.8,1410.03,-432.938,-33.317,0
30541,787.61,769.31,771.54,764.58,773.26,116.21,-945.8,360.35,0.44,1.82,0.09,15.11,6109,0,82,-39.1426,-2.82512,-414.632,13789.7,26939.7,1306.38,-433.027,-33.2577,0
30575,787.54,769.3,771.46,764.54,773.21,132.32,-943.85,353.03,0.4,2.2,0.18,14.04,6116,0,82,-39.1123,-3.06673,-414.853,13792.9,27010.5,1401.41,-432.891,-33.2478,0
30609,787.48,769.38,771.46,764.61,773.23,133.79,-952.64,353.03,0.93,0.69,2.13,12.68,6123,0,82,-39.2364,-3.13112,-415.48,13901,27078.1,1416.46,-432.827,-33.4577,0
30643,787.4,769.34,771.46,764.51,773.18,119.14,-948.24,359.37,-1.5,1.18,0.05,14.89,6130,0,82,-39.3283,-3.39836,-416.077,13955.5,27181.4,1436.33,-432.672,-33.5407,0
30679,787.34,769.33,771.5,764.51,773.17,118.16,-954.1,354,-0.26,1.37,1.5,16.06,6137,0,82,-39.9322,-2.76757,-417.074,14217.1,27236.9,1328.94,-432.695,-34.0878,0
30713,787.44,769.29,771.46,764.59,773.2,128.91,-946.78,351.07,-0.98,4.63,1.36,13.71,6144,0,82,-39.527,-3.40999,-415.489,14265.9,27139.9,1313.54,-432.68,-34.335,0
30746,787.33,769.32,771.52,764.59,773.19,123.54,-943.36,356.45,1.29,0.89,-0.22,15.64,6150,0,82,-39.5494,-3.68056,-415.891,14245,27183.6,1383.41,-432.638,-34.2517,0
30780,787.32,769.36,771.53,764.59,773.2,136.72,-970.7,338.38,0.59,2.53,-3.41,15.47,6157,0,82,-39.3242,-3.48221,-416.627,14450.7,27211.1,1278.58,-432.687,-34.6848,0
30814,787.18,769.36,771.55,764.65,773.19,130.86,-952.15,355.47,-3.8,1.11,1.02,15.46,6164,0,82,-39.6592,-3.64123,-417.828,14562.3,27352.2,1274.36,-432.537,-34.8525,0
30849,787.08,769.39,771.48,764.62,773.14,127.44,-953.61,363.28,-3.09,1.02,-1.02,14.43,6171,0,82,-39.748,-4.02415,-418.482,14532.9,27337.4,1329.65,-432.675,-34.7277,0
30882,786.98,769.42,771.54,764.64,773.14,127.44,-940.92,359.37,-0.2,0.73,-1.14,15.6,6177,0,82,-39.5356,-3.44835,-417,14491.3,27314.4,1328,-432.498,-34.7512,0
30916,786.81,769.5,771.57,764.73,773.15,117.68,-942.38,346.19,2.27,0.67,1.4,14.99,6184,0,82,-39.4714,-3.35751,-416.967,14447.1,27246.3,1290.61,-432.656,-34.6481,0
30950,786.67,769.55,771.68,764.77,773.17,110.35,-946.78,351.56,1.13,3.96,0.31,17.22,6191,0,82,-39.3856,-3.42328,-416.492,14235.8,27263,1298.35,-432.541,-34.1802,0
30984,786.3,769.57,771.65,764.78,773.07,128.42,-929.69,353.52,1.73,0.68,-0.02,17.49,6198,0,82,-39.6609,-3.18088,-416.692,14366.1,27237.6,1240.68,-432.634,-34.4766,0
31018,786.14,769.58,771.75,764.74,773.05,104,-937.99,359.37,1.3,0.96,-0.92,20.94,6205,0,82,-39.7238,-3.09199,-416.843,14376.8,27222.1,1287.91,-432.695,-34.4898,0
31052,786.16,769.64,771.71,764.82,773.08,128.91,-937.99,349.61,2.31,0.53,-0.99,18.35,6211,0,82,-39.5562,-3.45193,-414.385,14177.4,27108.1,1284.79,-432.582,-34.2131,0
31086,786.18,769.72,771.69,764.85,773.11,125.49,-945.8,344.73,0.24,2.71,3.16,16.65,6218,0,82,-39.3396,-3.33492,-413.492,13957.7,26942.2,1211.96,-432.842,-33.7558,0
31119,786.07,769.73,771.69,764.83,773.08,119.14,-939.45,345.21,0.42,2.4,-0.34,17.2,6225,0,82,-39.1566,-3.47212,-410.345,13816.3,26784.1,1121.31,-432.728,-33.67,0
31153,786.02,769.81,771.78,764.84,773.11,119.63,-935.06,353.52,-0.61,-1.72,0.83,18.8,6232,0,82,-38.8413,-3.16534,-410.96,13873.9,26782.1,1160.63,-432.83,-33.7597,0
31187,786.06,769.96,771.79,764.9,773.18,123.54,-933.59,343.75,-2.2,0.56,1.53,16.86,6238,0,82,-38.8363,-3.29287,-411.976,14017.7,26838.4,1168.74,-432.854,-34.0256,0
31223,786.26,770.04,771.87,764.96,773.28,113.28,-919.43,348.63,0.95,0.89,4.13,16.56,6246,0,82,-38.727,-3.54844,-411.759,13937.7,26832.9,1213.96,-432.834,-33.8492,0
31257,786.22,770.05,771.94,765.06,773.32,115.72,-931.15,363.77,2.6,0.55,0.78,16.79,6252,0,82,-38.717,-3.47092,-411.634,13773,26797.9,1308.55,-432.899,-33.4595,0
31291,786.2,770.01,771.95,765.1,773.32,114.26,-939.45,343.26,1.86,2.52,0.27,16.99,6259,0,82,-38.8513,-3.34829,-411.103,13761.1,26707.3,1236.81,-433.035,-33.4737,0
31326,785.93,770,771.98,765.1,773.25,124.51,-937.01,364.26,1.27,2.28,1.53,18.8,6266,0,82,-39.1131,-3.18295,-411.42,13584.6,26680,1296.83,-433.152,-33.0187,0
31360,785.69,769.98,771.86,765.07,773.15,117.19,-952.15,363.28,0.82,1.65,0.68,17.29,6273,0,82,-38.8927,-3.10126,-410.344,13396.5,26611,1294.7,-433.149,-32.6469,0
31394,785.71,769.94,771.92,765.07,773.16,129.88,-944.34,370.61,0.79,3.29,0.05,19,6280,0,82,-38.952,-3.11756,-411.567,12992.2,26546.8,1351.67,-433.498,-31.5677,0
31428,786.04,769.81,771.82,765,773.17,112.3,-941.41,363.77,-0.24,1.54,-0.31,17.57,6287,0,82,-39.1168,-2.47016,-409.968,12663.3,26435.2,1492.55,-433.519,-30.8878,0
31462,786.53,769.86,771.84,764.91,773.29,124.02,-951.66,362.3,1.15,1.74,0.02,17.03,6293,0,82,-38.6679,-2.07096,-406.762,12225.3,26189,1565.4,-433.616,-30.0552,0
31496,786.82,770,771.78,764.9,773.37,116.7,-945.8,354.49,-2.01,1.78,-0.5,13.8,6300,0,82,-38.3912,-0.66265,-403.86,11820.1,25854.9,1623.87,-433.981,-29.2678,0
31530,786.84,769.96,771.82,764.88,773.38,111.82,-952.15,367.68,1.14,3,-0.38,15.15,6307,0,82,-38.443,-1.2076,-403.18,11700.6,25844,1731.52,-433.9,-29.0208,0
31565,786.8,769.87,771.85,764.89,773.35,132.32,-937.5,360.35,0.2,0.26,-0.04,16.72,6314,0,82,-38.6099,-1.68406,-405.19,11895.1,25901.9,1657.57,-434.075,-29.357,0
31600,786.69,769.84,771.84,764.96,773.34,122.56,-953.61,358.4,-0.63,2.32,-0.39,16,6321,0,82,-38.7136,-2.61586,-406.879,11783.8,25997.4,1701.26,-434.105,-28.9615,0
31636,786.65,769.81,771.8,764.93,773.3,122.07,-945.31,368.65,-0.74,1.02,1.19,15.71,6328,0,82,-38.9249,-2.61592,-409.561,11568.7,25920.3,1751.59,-434.712,-28.2466,0
31670,786.73,769.84,771.77,764.95,773.32,117.68,-937.01,350.1,0.05,1.29,0.47,14.16,6335,0,82,-39.8411,-2.13353,-412.65,11564.7,26025.9,1877.56,-434.93,-28.0257,0
31704,786.93,769.81,771.83,764.92,773.37,112.79,-939.45,363.77,-1.05,0.05,2,15.85,6342,0,82,-40.6586,-1.96018,-418.996,11773.3,26462.7,1805.99,-434.842,-28.0987,0
31739,786.94,769.87,771.83,764.81,773.36,123.05,-944.34,356.93,1.82,1.24,-0.87,16.73,6349,0,82,-40.7917,-1.37155,-421.577,11754.4,26700.2,1907.61,-434.666,-27.882,0
31773,786.93,769.82,771.78,764.9,773.36,121.09,-959.96,357.42,-1.09,2.56,1.21,14.69,6356,0,82,-39.8759,-1.14355,-419.721,11602.2,26501.5,1863.12,-434.859,-27.6426,0
31807,786.89,769.83,771.77,764.88,773.34,120.61,-946.78,359.37,0.11,0.66,1.3,14.71,6362,0,82,-39.6539,-0.806714,-415.335,11331.6,26201.7,1923.35,-434.914,-27.2824,0
31841,786.79,769.82,771.77,764.81,773.3,130.37,-948.73,366.21,0.76,2.05,-0.19,16.39,6369,0,82,-39.5607,-0.0588273,-407.738,11155.3,25701.5,1815.96,-434.966,-27.3589,0
31875,786.84,769.83,771.82,764.91,773.35,127.44,-939.45,354,0.6,1.91,0.08,15.78,6376,0,82,-39.3478,0.0978703,-406.625,10990.1,25572.2,1775.89,-435.111,-27.0275,0
31909,786.79,769.78,771.81,764.97,773.34,123.05,-950.68,355.47,-0.97,3.41,1.13,15.26,6383,0,82,-39.2373,-0.768105,-410.353,11508.4,25941.6,1579.8,-434.782,-28.045,0
31943,786.85,769.83,771.8,764.85,773.33,115.23,-948.24,356.45,0.92,3.87,1.58,16.25,6390,0,82,-39.664,-2.11973,-418.286,12322.3,26563.2,1522.23,-434.495,-29.459,0
31977,786.8,769.84,771.83,764.9,773.34,116.21,-944.82,352.54,0.46,0.63,-0.11,16.25,6396,0,82,-40.0348,-2.94842,-423.907,12848.4,26956.7,1464.03,-434.409,-30.3094,0
32012,786.71,769.82,771.79,764.93,773.31,129.39,-942.87,339.36,0.05,3.11,-1.82,15.2,6403,0,82,-40.3587,-3.59415,-424.995,12896.3,27137.8,1476.52,-434.146,-30.3445,0
32048,786.6,769.78,771.77,765,773.29,117.68,-937.01,347.17,1.31,3.19,0.26,14.65,6411,0,82,-39.6335,-2.91821,-423.013,12781.4,26985.5,1478.81,-434.206,-30.2151,0
32082,786.62,769.85,771.82,764.91,773.3,126.46,-970.21,340.82,-0.42,0.24,3.15,16.56,6417,0,82,-39.4645,-2.20523,-419.777,12583.5,26829.5,1568.45,-434.086,-29.9767,0
32116,786.74,769.72,771.74,764.98,773.3,132.81,-934.57,354,0.25,2.56,0.24,14.12,6424,0,82,-39.1222,-1.57594,-417.744,12681.2,26686.6,1557.61,-434.117,-30.3563,0
32150,786.95,769.66,771.66,764.9,773.29,124.51,-949.22,352.54,1.47,0.29,-0.06,13.1,6431,0,82,-38.8949,-1.73372,-417.922,12793.1,26683.7,1555.11,-434.151,-30.6113,0
32184,787.1,769.59,771.67,764.8,773.29,109.86,-948.73,350.1,-1.08,3.44,0.59,14.73,6438,0,82,-39.5302,-2.91141,-420.687,12925.4,26914.3,1442.25,-434.023,-30.7244,0
32218,787.28,769.5,771.57,764.66,773.26,132.32,-951.66,363.77,-1.31,0.82,1.77,14.28,6445,0,82,-39.9136,-3.15023,-423.207,13063.3,27074.7,1410.03,-434.025,-30.8673,0
32252,787.51,769.44,771.57,764.68,773.3,131.35,-952.15,354.49,0.21,0.52,0.32,13.82,6451,0,82,-39.6869,-2.91221,-422.735,13188.3,27048.9,1508.75,-434.015,-31.1975,0
32287,787.74,769.47,771.56,764.58,773.34,120.61,-938.48,374.51,4.4,1.67,-0.63,13.93,6458,0,82,-39.4581,-2.89727,-422.542,13066.4,27042.1,1550.36,-434.001,-30.9233,0
32321,787.84,769.36,771.54,764.64,773.34,120.61,-961.91,351.56,1.95,1.9,-0.23,13.17,6465,0,82,-39.4192,-2.69329,-422.112,13118.7,27052,1671.4,-433.913,-31.0787,0
32355,787.72,769.43,771.51,764.63,773.32,117.19,-949.22,351.56,-0.63,0.73,-0.63,12.52,6472,0,82,-39.1695,-3.06692,-421.849,12802.7,26969.4,1627.54,-434.069,-30.349,0
32388,787.69,769.41,771.54,764.55,773.3,115.72,-931.15,356.45,-1.97,0.99,0.5,14.61,6479,0,82,-39.322,-2.54805,-420.766,12802.5,26913.5,1653.89,-434.037,-30.4266,0
32422,787.81,769.35,771.56,764.63,773.34,132.32,-914.06,352.05,1.5,2.73,2.06,14.05,6485,0,82,-39.2134,-2.83544,-420.438,12844,26885.6,1518.23,-434.053,-30.5489,0
32457,787.93,769.4,771.55,764.56,773.36,134.28,-938.96,352.05,1.86,2.11,-2.08,13.91,6492,0,82,-39.9108,-2.66776,-421.221,12736.9,26967.1,1500.3,-433.979,-30.2381,0
32491,788.01,769.3,771.52,764.54,773.34,134.28,-942.38,358.4,0.43,3.33,3.86,14.14,6499,0,82,-39.3857,-2.24628,-419.705,12716.7,26814.2,1481.57,-434.112,-30.2993,0
32526,788.1,769.28,771.52,764.54,773.36,118.16,-942.87,361.33,-0.45,1.75,2.67,13.87,6506,0,82,-38.9907,-1.86083,-417.995,12629.1,26668.9,1667.29,-434.198,-30.2136,0
32560,788.26,769.34,771.55,764.54,773.42,126.95,-943.85,351.56,-1.31,-0.11,0.82,13.61,6513,0,82,-39.017,-1.47779,-415.033,12636.1,26589.3,1645.32,-433.935,-30.4461,0
32594,788.12,769.25,771.52,764.55,773.36,113.77,-942.87,362.79,0.82,1.42,-0.01,14.05,6520,0,82,-39.1597,-1.53071,-416.318,12901.4,26683.2,1609.49,-433.907,-30.9894,0
32628,788.07,769.29,771.48,764.52,773.34,127.93,-946.78,354.49,0.13,-0.37,0.26,13.3,6527,0,82,-38.8802,-2.30246,-413.88,13029.5,26658,1441.43,-433.59,-31.4817,0
32662,788.11,769.32,771.48,764.55,773.36,133.3,-939.94,343.26,0.09,2.35,2.37,12.48,6533,0,82,-38.9248,-2.17477,-413.675,13519.9,26709.2,1416.56,-433.434,-32.6824,0
32696,788.24,769.29,771.49,764.48,773.38,125.49,-938.96,354.98,-1.33,2.18,0.88,13.47,6540,0,82,-38.6319,-3.0265,-413.671,13621.9,26723.4,1282.12,-433.399,-32.9293,0
32729,788.39,769.32,771.44,764.6,773.44,126.95,-950.68,359.86,-0.6,1.52,-0.28,9.56,6547,0,82,-38.6397,-3.13541,-414.132,14101,26897,1264.61,-433.052,-34.0496,0
32763,788.44,769.38,771.52,764.57,773.48,124.51,-944.34,376.46,2.02,1.82,1.7,11.48,6554,0,82,-38.9353,-3.09385,-416.807,14467.1,27114.6,1297.98,-432.947,-34.7094,0
32797,788.39,769.34,771.51,764.61,773.46,132.81,-942.87,349.61,1.36,-0.13,0.31,10.94,6560,0,82,-38.9475,-3.41688,-417.34,14584.8,27305.6,1311.98,-432.572,-34.9471,0
32831,788.33,769.33,771.48,764.53,773.42,124.02,-939.45,358.89,1.26,2.74,2.76,11.86,6567,0,82,-38.6976,-3.02887,-416.725,14433.2,27239.9,1184.88,-432.633,-34.6348,0
32867,788.39,769.27,771.57,764.55,773.44,128.91,-939.45,358.89,1.69,1.52,0.79,14.23,6574,0,82,-38.7221,-2.6446,-416.808,14453.9,27145.9,1291.42,-432.872,-34.6777,0
32901,788.5,769.42,771.49,764.45,773.47,119.14,-945.8,341.31,0.15,1.71,2.02,11.87,6581,0,82,-38.7238,-2.8269,-416.535,14307.1,27193.2,1249.51,-432.716,-34.3478,0
32935,788.62,769.27,771.52,764.48,773.48,115.23,-948.73,353.03,1.32,0.31,2.37,13.11,6588,0,82,-38.7778,-2.9793,-417.38,14489.5,27279.1,1300.67,-432.642,-34.7153,0
32970,788.54,769.31,771.46,764.5,773.46,130.37,-936.52,351.07,-0.11,1.63,2.09,11.25,6595,0,82,-38.7543,-3.81583,-418.545,14806.1,27512.4,1188.91,-432.267,-35.3752,0
33004,788.45,769.43,771.57,764.59,773.51,142.09,-954.59,354.49,-0.61,3.57,1.91,12.1,6602,0,82,-38.7793,-3.87609,-420.254,15006.6,27546.4,1259.87,-432.453,-35.7084,0
33038,788.27,769.46,771.53,764.62,773.47,122.07,-947.75,348.63,0.27,0.76,2.92,10.99,6609,0,82,-38.9551,-4.2009,-419.309,14920.5,27570.9,1309.96,-432.247,-35.5836,0
33072,788.11,769.41,771.56,764.62,773.42,130.86,-937.99,354.49,0.79,1.4,-0.34,12.73,6615,0,82,-38.8308,-3.65277,-419.772,15069.6,27501.2,1273.94,-432.485,-35.8995,0
33106,788.03,769.44,771.58,764.72,773.44,121.09,-957.03,356.45,0.79,0.89,0.04,11.86,6622,0,82,-38.7973,-3.73425,-418.735,14990.6,27445.1,1224.87,-432.457,-35.7996,0
33140,788.02,769.48,771.56,764.67,773.43,119.63,-951.66,360.84,0.3,3.83,1.74,11.78,6629,0,82,-38.7663,-3.61236,-418.33,14968.6,27397.8,1087.33,-432.507,-35.7819,0
33174,787.96,769.44,771.6,764.69,773.42,125.49,-939.45,352.54,1.89,0.76,-1.23,12.83,6636,0,82,-39.0179,-3.88015,-419.228,14959.6,27479.4,1125.03,-432.452,-35.6838,0
33209,787.91,769.44,771.62,764.72,773.42,129.88,-939.45,342.77,-0.46,1.33,-2.48,13.05,6643,0,82,-39.144,-3.81773,-421.909,15218.2,27694.5,1151.7,-432.359,-36.0699,0
33243,787.86,769.48,771.56,764.76,773.41,139.65,-934.57,363.28,0.09,0.57,1.23,10.84,6650,0,82,-39.4617,-4.38025,-425.479,15226.2,27976.9,1137.69,-432.246,-35.7861,0
33279,787.85,769.45,771.56,764.75,773.4,125.49,-948.73,355.96,-0.4,2.54,0.88,11.28,6657,0,82,-39.2285,-4.82063,-423.826,15254.5,27851.8,1074.14,-432.285,-35.9923,0
33313,787.74,769.49,771.56,764.68,773.37,119.63,-955.08,358.89,1.32,0.49,-0.18,12.52,6664,0,82,-39.0563,-4.85298,-423.557,15008.4,27850.4,1164.42,-432.246,-35.4341,0
33347,787.67,769.39,771.62,764.75,773.36,129.88,-942.38,355.47,0.82,-0.37,0.69,13.93,6670,0,82,-39.0859,-4.32304,-424.025,15129.1,27792.4,1262.56,-432.456,-35.6797,0
33381,787.56,769.43,771.63,764.7,773.33,105.96,-947.27,357.91,-0.19,2.94,-1.73,14.8,6677,0,82,-39.261,-4.21184,-425.08,15279.5,27899.8,1290.63,-432.366,-35.945,0
33415,787.54,769.41,771.57,764.71,773.31,126.46,-942.87,344.24,1.56,0.42,1.44,13.53,6684,0,82,-39.322,-5.19499,-426.338,15404.9,27988.1,1240.56,-432.352,-36.133,0
33451,787.48,769.51,771.59,764.73,773.32,124.51,-951.66,344.73,0.9,2.46,1.02,13.05,6691,0,82,-39.2194,-5.42039,-426.391,15384.8,28011.9,1314.3,-432.305,-36.0815,0
33485,787.42,769.48,771.61,764.76,773.32,111.82,-957.52,366.7,-1.24,1.62,-3.33,13.59,6698,0,82,-38.9226,-5.0094,-426.347,15169,27915.8,1296.45,-432.523,-35.579,0
33519,787.23,769.52,771.57,764.77,773.27,130.37,-941.89,359.37,0.35,1.96,-0.15,12.85,6705,0,82,-39.2916,-4.56442,-423.822,14774.1,27739.1,1205.92,-432.55,-34.8593,0
33553,787.07,769.5,771.57,764.82,773.24,121.09,-945.8,351.07,0.99,1.56,-3.2,12.69,6712,0,82,-39.3772,-3.83739,-423.638,14421.9,27641.8,1270.94,-432.751,-34.0428,0
33587,786.94,769.57,771.55,764.78,773.21,130.86,-943.36,354.49,1.11,0.31,-1.15,12.83,6718,0,82,-39.2439,-3.84802,-423.062,14355.6,27620.1,1145.58,-432.714,-33.9326,0
33622,786.92,769.59,771.65,764.86,773.25,124.51,-945.31,351.56,0.61,1.19,-0.18,13.88,6725,0,82,-39.2681,-3.54632,-423.241,14308,27645.2,1165.69,-432.682,-33.8059,0
33656,786.81,769.65,771.69,764.79,773.23,114.26,-954.1,352.05,3.03,0.92,4.21,15.8,6732,0,82,-38.7388,-3.95973,-422.152,14202,27661.8,1178.15,-432.474,-33.642,0
33692,786.74,769.7,771.72,764.94,773.27,114.26,-949.22,357.42,-0.31,-1.38,-0.81,14.18,6739,0,82,-38.78,-3.96216,-422.37,14167.5,27700.3,1143.62,-432.417,-33.5428,0
33726,786.71,769.73,771.76,764.94,773.29,122.56,-946.78,353.03,-2.55,0.1,0.16,15.13,6746,0,82,-38.9303,-3.76777,-422.442,14174.7,27651.1,1100.85,-432.545,-33.5542,0
33760,786.57,769.82,771.84,764.99,773.3,120.12,-924.8,369.63,0.14,1.81,0.82,16.09,6753,0,82,-39.0132,-3.71466,-421.355,14185.2,27603.1,1218.37,-432.49,-33.6658,0
33794,786.4,769.85,771.82,765.01,773.27,129.88,-937.01,348.14,0.71,3.3,-1.14,15.85,6760,0,82,-38.8822,-3.94288,-421.632,14097.1,27534.6,1355.34,-432.695,-33.4347,0
33828,786.16,769.95,771.86,765.12,773.27,120.61,-950.2,359.86,-0.43,0.93,-0.6,15.03,6767,0,82,-39.1007,-4.21101,-419.818,13801.6,27352.1,1218.4,-432.848,-32.8751,0
33862,786.19,769.93,771.95,765.15,773.3,112.79,-953.61,347.66,-0.73,2.05,1.58,16.9,6773,0,82,-38.6056,-4.3812,-417.74,13710,27244.7,1238.94,-432.781,-32.8193,0
33897,786.11,770.01,771.96,765.17,773.31,122.07,-945.31,357.42,0.36,2.5,-2,16.55,6780,0,82,-38.5927,-3.74217,-416.435,13724.9,27074.7,1255.72,-432.985,-32.958,0
33931,786.18,769.93,771.96,765.19,773.31,108.4,-941.89,354,0.38,1.02,-0.37,16.78,6787,0,82,-38.6563,-3.65436,-415.786,13555.5,27046.6,1191.42,-432.951,-32.6022,0
33965,786.14,769.9,771.95,765.18,773.3,116.21,-942.38,352.54,1.37,0.73,0.54,16.94,6794,0,82,-38.3922,-3.88927,-414.59,13335.6,26853.9,1023.97,-433.228,-32.1656,0
33999,786.14,769.93,771.94,765.21,773.31,131.84,-945.31,354.98,-1.7,-0.05,3.97,15.84,6801,0,82,-38.3575,-3.30425,-411.597,13180.9,26733.3,1061.62,-433.05,-32.0239,0
34032,786.06,769.93,771.94,765.17,773.28,121.58,-949.71,355.47,0.82,2.04,2.29,16.8,6807,0,82,-38.4154,-3.28882,-410.673,12862.4,26525.2,1023.6,-433.41,-31.3202,0
34066,786.09,769.87,771.92,765.28,773.29,131.35,-942.38,346.19,2.65,1.32,-0.66,15.13,6814,0,82,-38.3132,-3.33771,-411.192,12848.4,26537.6,1067.55,-433.462,-31.2468,0
34101,785.97,769.97,771.92,765.25,773.27,122.07,-937.99,350.59,1.47,-0.68,-2.07,15.2,6821,0,82,-38.2968,-2.8725,-411.533,12753.7,26532.8,1094.93,-433.527,-30.9906,0
34135,785.98,770.02,771.96,765.24,773.3,125.49,-952.64,362.79,1.04,-0.55,-0.82,15.89,6828,0,82,-38.2037,-3.09628,-414.367,12628.3,26664.2,1169.85,-433.651,-30.476,0
34169,785.99,769.96,771.97,765.32,773.31,119.63,-943.85,365.23,0.53,2.11,0.44,15.52,6835,0,82,-38.4749,-3.06028,-415.929,12546.4,26702.3,1212.76,-433.801,-30.1648,0
34203,785.96,769.94,772.02,765.28,773.3,120.61,-940.43,356.45,-1.55,0.98,2.21,17.6,6842,0,82,-38.49,-3.57532,-418.817,12223.2,26767.5,1197.52,-434.088,-29.1851,0
34237,785.9,769.97,771.97,765.26,773.28,110.35,-940.92,345.7,1.28,-0.69,1.4,16.55,6848,0,82,-38.8058,-3.48447,-419.702,12047.2,26819.1,1235.67,-434.099,-28.7044,0
34271,785.82,770,771.99,765.33,773.29,124.51,-943.85,369.14,-1.37,0.78,3.53,16.04,6855,0,82,-38.8834,-2.82328,-420.462,11872.3,26798.6,1227.93,-434.264,-28.2363,0
34304,785.75,769.97,772.05,765.31,773.27,116.21,-952.15,346.19,1.61,1.85,-1.84,18.29,6862,0,82,-38.8685,-2.93606,-419.548,11405.2,26580.7,1250.49,-434.644,-27.1845,0
34338,785.84,770.02,772.04,765.29,773.3,114.26,-934.08,358.4,-0.17,-0.98,-1,17.81,6869,0,82,-38.7775,-2.55457,-418.827,11437.2,26596.9,1228.93,-434.497,-27.3078,0
34374,785.62,770.05,772.02,765.3,773.25,130.37,-943.36,354.98,1.56,1.76,-1.24,17.5,6876,0,82,-38.8048,-2.46219,-418.858,11239.3,26599.8,1409.99,-434.495,-26.8331,0
34407,785.58,770.03,772.03,765.36,773.25,122.56,-931.64,362.3,2.57,2.27,1.14,17.16,6882,0,82,-38.7747,-2.69788,-418.386,11235.2,26586.8,1374.54,-434.454,-26.8537,0
34442,785.52,770.05,772.03,765.33,773.24,125.98,-950.68,357.42,0.32,-0.85,0.52,17.66,6889,0,82,-38.8758,-2.7082,-420.156,11448.3,26662,1321.52,-434.543,-27.2477,0
34477,785.56,770.08,772.02,765.42,773.27,125.98,-938.96,349.61,0.04,2.08,0.34,15.84,6896,0,82,-38.7365,-3.29641,-419.479,11275.6,26713.9,1312.25,-434.317,-26.88,0
34512,785.47,770.04,772.07,765.35,773.23,127.93,-931.64,356.93,2.06,2.89,0.95,18.62,6903,0,82,-38.8518,-3.32966,-420.281,11402.8,26730.8,1350.4,-434.398,-27.1314,0
34546,785.33,769.98,772.06,765.39,773.19,123.54,-944.34,353.52,-0.65,1.74,0.01,18.67,6910,0,82,-38.7641,-3.16527,-419.802,11235.5,26623.7,1459.98,-434.58,-26.7637,0
34580,785.17,770.04,772.1,765.4,773.18,124.51,-933.59,348.14,-0.47,1.15,0.65,19.57,6917,0,82,-38.9139,-3.37528,-419.037,11095.3,26603.3,1553.74,-434.513,-26.4782,0
34614,785.12,770.02,772.08,765.37,773.15,134.28,-944.34,354.49,0.44,2.89,-0.58,20.12,6924,0,82,-38.7663,-3.34639,-419.79,11097.9,26639.6,1456.29,-434.541,-26.4366,0
34648,785.08,770.02,772.09,765.38,773.15,120.12,-934.08,349.61,1.27,2.37,0.12,20.15,6931,0,82,-38.5596,-3.2894,-420.076,11335.6,26745,1528.9,-434.333,-26.9846,0
34682,785.13,770.04,772.09,765.28,773.14,125.98,-939.94,370.61,1.68,1.37,-0.35,21.34,6937,0,82,-38.6585,-3.58104,-420.385,11341.2,26805.1,1471.65,-434.237,-26.9781,0
34716,785.13,770.02,772.11,765.35,773.15,137.7,-947.75,355.47,0.57,1.92,0.05,20.94,6944,0,82,-38.5559,-3.69883,-419.658,11172.5,26739.6,1510.54,-434.282,-26.6227,0
34751,785.04,769.95,772.04,765.35,773.09,114.75,-958.5,359.37,0.78,1.76,0.69,20.05,6951,0,82,-38.6468,-3.6759,-419.961,10997.5,26695.1,1506.88,-434.434,-26.187,0
34785,785.08,769.94,772.08,765.36,773.12,126.46,-945.8,350.1,-0.2,2.39,1.11,21,6958,0,82,-38.5974,-3.78373,-419.302,10815.2,26630.3,1561.24,-434.489,-25.7932,0
34819,785.09,770.02,772.08,765.35,773.14,126.95,-946.29,362.3,1.71,-0.18,0.58,20.39,6965,0,82,-38.6275,-3.38926,-419.223,10903.9,26697.3,1500.52,-434.317,-26.0097,0
34853,785.07,769.95,772.13,765.4,773.14,122.56,-957.52,349.12,1.52,3.53,0.68,21.46,6972,0,82,-38.8016,-3.28361,-419.653,10796.4,26665.7,1493.85,-434.458,-25.7269,0
34889,785.15,769.89,772.04,765.31,773.09,119.63,-943.36,354.98,0.6,2.22,-0.35,20.73,6979,0,82,-38.6053,-3.71401,-418.096,10513.3,26583.3,1522.45,-434.418,-25.1457,0
34923,785.13,769.93,772.03,765.31,773.1,127.44,-938.48,358.89,-1.66,1.03,1.2,20.31,6986,0,82,-38.8622,-3.15504,-418.804,10680,26633.9,1479.87,-434.405,-25.5012,0
34957,785.22,769.88,771.97,765.24,773.08,132.32,-950.68,356.93,0.26,-0.63,-1.73,19.97,6992,0,82,-38.9851,-3.51691,-417.935,10592.1,26652.5,1587.49,-434.228,-25.3439,0
34991,785.23,769.87,772.03,765.29,773.11,125.49,-950.68,362.79,-0.53,0.65,-1.83,20.8,6999,0,82,-38.8786,-3.87966,-417.669,10457.8,26583.9,1513.77,-434.352,-25.0386,0
35025,785.2,769.87,772.04,765.24,773.09,117.19,-943.36,361.82,0.18,1.29,1.24,21.75,7006,0,82,-38.9062,-3.26213,-416.32,10161,26452.2,1548.08,-434.462,-24.4067,0
35060,785.31,769.88,771.98,765.2,773.09,116.21,-953.12,350.59,-0.89,2.21,-0.53,20.49,7013,0,82,-38.7835,-2.84681,-413.882,10100.4,26252.2,1578.51,-434.571,-24.4041,0
35094,785.4,769.86,771.95,765.26,773.12,127.93,-941.41,364.75,1.6,0.89,-1.6,18.78,7020,0,82,-38.6947,-3.34914,-413.391,10035.9,26227.2,1489.9,-434.556,-24.277,0
35128,785.43,769.92,771.95,765.25,773.14,121.09,-933.11,352.54,1.15,0.1,0.11,18.08,7027,0,82,-38.488,-3.04532,-413.245,10145.2,26225.7,1573.56,-434.537,-24.55,0
35162,785.46,769.86,772,765.36,773.17,133.79,-945.8,354.49,2.01,2.28,-0.38,18.27,7033,0,82,-38.3861,-3.1585,-414.15,10210.4,26273.8,1620.26,-434.56,-24.6538,0
35196,785.47,769.82,772.02,765.28,773.15,113.28,-944.82,354,0.15,1.54,0.39,20,7040,0,82,-38.6624,-3.68698,-413.217,10053.1,26283.6,1598.13,-434.393,-24.3289,0
35230,785.39,769.85,771.99,765.22,773.11,135.74,-932.62,353.03,3.03,-1.75,2.61,20.28,7047,0,82,-38.6422,-3.2559,-413.078,10223.6,26243.1,1634.17,-434.469,-24.7497,0
35264,785.35,769.85,772,765.36,773.14,120.61,-946.29,360.35,-0.09,0.52,1.05,18.64,7054,0,82,-38.5691,-3.5483,-412.666,10276.5,26224.6,1524.66,-434.451,-24.9029,0
35302,785.43,769.86,772.05,765.33,773.17,128.42,-945.8,368.16,-1.33,4.51,-1.27,20.05,7061,0,82,-38.2816,-3.93326,-411.997,10155.1,26220.1,1524.87,-434.358,-24.6484,0
35336,785.46,769.91,771.99,765.36,773.18,115.23,-950.68,353.52,-1.84,-0.07,-0.53,17.57,7068,0,82,-38.7563,-3.6484,-412.825,10193.7,26277.7,1540.68,-434.347,-24.6926,0
35370,785.33,769.94,771.95,765.36,773.15,115.23,-946.78,339.84,2,3.39,1,16.76,7075,0,82,-38.4629,-3.85263,-412.869,10266.6,26282.7,1497.97,-434.341,-24.8665,0
35404,785.35,769.95,772.02,765.31,773.16,123.05,-952.15,359.37,0.78,0.57,1.53,19.18,7082,0,82,-38.4099,-3.50908,-413.312,10391.5,26300.1,1469.38,-434.367,-25.142,0
35438,785.29,769.89,772.05,765.4,773.16,117.68,-952.15,361.33,1.1,1.36,0.58,19.03,7089,0,82,-38.2685,-3.71844,-411.824,10447.5,26348.4,1550.43,-434.02,-25.369,0
35472,785.23,769.94,772.07,765.41,773.16,118.16,-952.15,342.29,1.18,0.73,-0.31,19.29,7095,0,82,-38.3948,-3.96909,-412.713,10461.1,26359.8,1458.19,-434.13,-25.3471,0
35506,785.24,770,772.06,765.41,773.18,125.49,-952.64,348.14,-0.6,1.37,-0.1,18.68,7102,0,82,-38.2599,-3.75396,-412.062,10592.9,26302.6,1582.11,-434.168,-25.7071,0
35541,785.22,769.99,772.15,765.42,773.2,123.05,-935.55,363.28,1.37,0.56,-0.88,20.77,7109,0,82,-38.0756,-3.59289,-411.864,10844.6,26373,1481.46,-433.967,-26.3305,0
35575,785.3,769.99,772.08,765.46,773.21,113.77,-950.68,366.21,0.42,2.45,0.56,18.31,7116,0,82,-38.1719,-4.07491,-414.127,10960.8,26544,1435.67,-433.904,-26.4673,0
