currTime,s1,s2,s3,s4,s,AccX,AccY,AccZ,GyroX,GyroY,GyroZ,GRF,Frame,SubFrame,Weight,Fx,Fy,Fz,Mx,My,Mz,Cx,Cy,Cz
11290,799.33,768.21,759.34,761.64,772.13,59.08,-729.49,1066.89,-17.24,8.68,-21.51,-276.74,2259,0,82,-9.35385,-3.36666,-82.0414,6203.1,-6857.98,-4.78513,-83.591,-75.5595,0
11329,806.09,772.5,760.08,764.17,775.71,30.27,-931.15,621.58,2.05,5.04,-11.98,-353.25,2267,0,82,35.0238,-4.12623,-308.244,16621.9,-20194,1393.76,-65.5032,-53.9367,0
11365,810.09,776.96,760.95,766.95,778.74,9.77,-849.12,601.07,4.92,2.71,-7.92,-421.86,2274,0,82,51.6767,7.21143,-407.03,17849.5,-25671.5,1229.5,-63.0705,-43.8607,0
11401,814.87,780.09,761.57,768.69,781.31,-5.37,-851.56,550.29,2.6,3.98,-4.85,-473.78,2281,0,82,66.1092,8.82878,-480.775,17815.2,-29075.8,1252.41,-60.4787,-37.0589,0
11438,823.8,782.07,761.89,769.79,784.39,-44.43,-874.51,538.09,1.56,-1.15,-0.74,-528.37,2289,0,82,79.298,14.7904,-560.121,16210.5,-32804.9,788.899,-58.5679,-28.9429,0
11474,831.99,783.37,762.12,770.66,787.03,-33.2,-865.72,550.78,-1.62,2.41,0.42,-573.95,2296,0,82,89.675,10.8629,-639.762,18126.1,-36882.9,1372.33,-57.6511,-28.3323,0
11510,834.85,784.39,762.36,771.33,788.23,-41.02,-866.21,565.92,-3.5,-1.11,-2.89,-595.85,2303,0,82,95.9507,8.02451,-708.416,21073.1,-40665.6,2185.2,-57.4035,-29.7462,0
11549,834.98,785.25,762.55,772.25,788.76,-24.9,-876.46,530.76,-3.24,-1.72,-1.95,-612.08,2311,0,82,94.5911,3.27399,-750.713,22581.2,-42962.3,2732.97,-57.2288,-30.0798,0
11585,834.28,785.61,762.64,772.59,788.78,-26.37,-860.35,563.96,-2.44,0.33,-2.34,-615.21,2318,0,82,93.0047,4.81841,-759.614,21865.6,-43055,2565.52,-56.6801,-28.7852,0
11621,833.92,785.83,762.66,772.69,788.78,-33.2,-862.3,543.46,-4.58,2.27,-2.23,-616.76,2325,0,82,85.3261,7.07126,-762.42,20521.7,-43317.3,2117.92,-56.8156,-26.9166,0
11657,833.53,785.88,762.68,772.84,788.73,-32.23,-856.93,551.27,-9.14,0.46,0.66,-617.46,2332,0,82,79.3471,7.14275,-757.047,19877.5,-43104.1,2015.34,-56.9371,-26.2567,0
11694,831.87,785.81,762.7,772.89,788.32,-35.64,-874.02,537.11,-9.82,2.26,-0.62,-611.68,2340,0,82,74.0855,6.33376,-751.493,19662.5,-42772.8,1741.24,-56.9171,-26.1646,0
11730,830.13,785.71,762.77,772.97,787.9,-42.97,-868.16,547.36,-9.25,-2.15,1.16,-604.24,2347,0,82,69.2822,5.61565,-739.869,18842.8,-41898,1763.89,-56.629,-25.4676,0
11769,828.39,785.76,762.66,772.97,787.44,-35.64,-867.68,528.81,-12.63,0.4,-0.98,-601.42,2355,0,82,65.3102,3.74771,-716.134,17532.9,-40400.5,1853.31,-56.4148,-24.4827,0
11805,825.64,786.13,762.76,773.39,786.98,-47.36,-877.44,545.9,-12.82,2.81,0.34,-598.65,2362,0,82,63.8058,4.1874,-705.136,16580.3,-39494.2,2123.82,-56.0092,-23.5135,0
11841,823.74,786.88,763.03,774.1,786.93,-42.48,-911.13,507.32,-2.86,-3.76,-3.3,-601.75,2369,0,82,61.0872,2.68468,-680.967,14978,-37753.7,1900.15,-55.4412,-21.9949,0
11877,820.37,787.15,763.13,774.55,786.3,-42.97,-877.44,518.07,-0.47,0.44,-1.21,-596.59,2376,0,82,59.8445,-3.75449,-669.86,13576.1,-36580.9,2290.12,-54.6097,-20.267,0
11913,816.47,787.15,763.34,774.78,785.43,-20.02,-879.39,526.86,-1.1,1.31,-2.52,-581.43,2384,0,82,57.544,-1.17458,-667.282,11351.8,-36484.4,1838.89,-54.6764,-17.0114,0
11952,812.76,787.21,763.44,775.06,784.62,-23.93,-864.75,522.46,0.18,-0.78,-2.11,-570.85,2391,0,82,54.1278,7.06431,-644.998,8635.72,-35316,892.481,-54.7537,-13.3882,0
11989,810.05,787.01,763.42,774.99,783.87,-29.79,-876.46,520.02,0.6,-1.92,-2.29,-559.36,2399,0,82,54.2826,13.8188,-617.018,6189.67,-33636.2,155.888,-54.5141,-10.0312,0
12025,809.26,786.44,763.29,774.39,783.34,-24.41,-864.75,528.81,-1.69,1.6,0.87,-546.26,2406,0,82,55.7277,18.8178,-599.673,4212.11,-32511.9,-367.076,-54.2162,-7.02376,0
12061,809.91,785.38,763.07,773.55,782.98,-33.69,-880.37,521.97,0.52,1.37,-0.89,-533.22,2413,0,82,54.1561,19.1728,-586.386,3692.71,-31907.1,-560.962,-54.4132,-6.29741,0
12097,809.8,784.23,762.88,772.75,782.41,-17.58,-877.44,537.6,-2.08,1.54,0.56,-516.69,2420,0,82,51.7483,15.6776,-579.024,4820.4,-32204.6,-671.594,-55.6187,-8.32504,0
12134,808.65,783,762.67,771.64,781.49,-30.76,-894.04,511.72,-2.31,2.4,-1.2,-491.64,2428,0,82,52.072,12.0233,-570.476,6434.72,-32368.1,-673.455,-56.7389,-11.2798,0
12172,807.7,781.23,762.28,770.28,780.37,-40.04,-889.65,524.41,-0.8,2.18,0.14,-463.99,2435,0,82,50.8182,10.3202,-545.035,6737.01,-31257.1,-775.556,-57.3488,-12.361,0
12210,808.84,779.35,761.81,769,779.75,-26.37,-894.53,515.62,0.84,-2.63,1.07,-445.7,2443,0,82,48.2877,9.86006,-510.95,7097.93,-29756,-678.052,-58.2373,-13.8919,0
12246,811.17,778.09,761.62,768.26,779.79,-44.43,-881.84,515.14,1.44,-1.66,0.11,-437.4,2450,0,82,46.2311,9.07583,-485.665,8359.66,-28688.3,-336.849,-59.07,-17.2133,0
12282,812.18,777.21,761.46,767.79,779.66,-36.13,-883.79,511.23,2.22,-0.75,-0.1,-430.81,2457,0,82,49.3197,8.84694,-480.285,10839.5,-28662,469.856,-59.677,-22.5687,0
12318,814.12,776.75,761.43,767.36,779.91,-33.2,-876.46,532.23,1.79,0.75,1.27,-428.24,2465,0,82,52.0818,10.4738,-474.466,12399.3,-28603.2,1015.57,-60.2851,-26.1333,0
12354,815,776.04,761.21,766.71,779.74,-33.69,-883.3,526.86,-2.18,2.49,-0.05,-421.4,2472,0,82,52.8349,11.0339,-478.672,13651.5,-28987.8,1121.57,-60.5587,-28.5194,0
12393,814.09,775.29,761.04,765.83,779.06,-39.55,-875.49,514.65,-4.05,3.12,-2.09,-403.65,2480,0,82,54.9548,10.9862,-482.174,14992.4,-29322.5,1478.25,-60.8131,-31.0939,0
12429,812.14,774.26,760.8,764.85,778.01,-36.13,-882.32,516.11,-4.18,3.78,-1.07,-380.37,2487,0,82,53.3668,9.82906,-464.208,15022.4,-28264.2,1300.28,-60.8867,-32.3615,0
12465,809.74,773.38,760.66,764.11,776.97,-43.95,-887.21,521.97,-3.14,3.29,-0.05,-357.41,2494,0,82,48.5077,7.39203,-437.001,14656.2,-26736,894.21,-61.1806,-33.5386,0
12502,808.08,772.61,760.53,763.58,776.2,-26.37,-896.97,509.28,-1.5,2.73,1.29,-340.86,2501,0,82,41.8197,4.70813,-399.704,13769.8,-24764.6,470.585,-61.9576,-34.4504,0
12538,805.78,771.91,760.35,763.18,775.31,-62.99,-896.48,512.21,-1.96,2.08,0.24,-326.1,2509,0,82,36.7226,2.81792,-371.949,13149.5,-23396.5,-79.6573,-62.9025,-35.3529,0
12574,804.37,771.23,760.33,763,774.73,-36.62,-876.46,514.16,1.96,-0.49,-1.22,-313.64,2516,0,82,32.7509,1.64902,-352.936,12780.8,-22532.6,-433.039,-63.8433,-36.2132,0
12613,804.08,771.02,760.21,762.92,774.56,-41.5,-869.63,512.21,2.66,0.4,-1.6,-312.79,2524,0,82,29.1866,0.804559,-335.515,12198.4,-21860.2,-805.469,-65.1543,-36.3573,0
12649,804.23,770.83,760.28,762.69,774.51,-52.25,-884.77,521,1.65,-0.5,-1.09,-306.57,2531,0,82,28.9255,1.18218,-335.091,12266.1,-22100.6,-846.67,-65.9538,-36.6053,0
12685,804.11,770.77,760.21,762.46,774.39,-49.32,-883.3,520.02,0.84,1.55,-1.07,-303.94,2538,0,82,30.4379,1.38097,-341.487,12563,-22577,-938.81,-66.1139,-36.7892,0
12721,805.19,770.55,760.11,762.15,774.5,-45.41,-871.58,506.35,1.82,2.41,-0.11,-304.01,2545,0,82,31.2421,0.904501,-338.568,12765.6,-22583.8,-998.626,-66.7037,-37.7046,0
12757,806.91,770.62,760.06,761.72,774.83,-48.34,-880.37,521,5.27,-0.59,0.16,-305.46,2552,0,82,32.4745,-0.260581,-341.617,13259.8,-22729,-831.568,-66.5336,-38.8147,0
12795,808.93,770.44,759.95,761.3,775.16,-31.74,-885.74,517.58,3.83,1.15,-2.21,-307.36,2560,0,82,34.1261,-2.05237,-349.757,14605,-23261.1,-530.008,-66.5065,-41.7577,0
12834,810.99,770.33,759.87,761.04,775.56,-40.04,-885.25,529.79,2.6,3.06,-0.02,-311.8,2568,0,82,36.5933,-3.79933,-364.286,16072.9,-24060.8,-425.182,-66.0495,-44.1215,0
12870,811.84,770.27,759.9,761.11,775.78,-56.64,-882.81,509.28,2.61,-0.69,-0.33,-314.62,2575,0,82,37.8727,-5.39036,-372.791,17618.5,-24600.1,-186.355,-65.9889,-47.2608,0
12907,812.66,770.46,759.88,761.12,776.03,-34.18,-892.58,525.88,-0.28,0.44,3.08,-319.44,2582,0,82,39.7769,-6.15329,-377.229,18308.8,-24791.8,26.653,-65.7207,-48.5351,0
12943,813.39,770.49,759.91,761.13,776.23,-45.41,-878.91,518.07,0.05,-0.68,-1.56,-321.62,2590,0,82,40.2165,-4.8575,-387.412,18671.5,-25241.6,61.9028,-65.1543,-48.1953,0
12979,813.92,770.53,759.91,761.14,776.37,-50.29,-876.46,523.44,-1.49,-1.12,0.66,-323.8,2597,0,82,40.8732,-5.0816,-391.986,18884,-25571.6,182.958,-65.2359,-48.1751,0
13018,814.62,770.67,759.93,761.27,776.62,-40.53,-864.26,529.79,-0.35,-1.19,1.76,-328.89,2605,0,82,41.5977,-4.37729,-397.722,19202.2,-25908.7,299.045,-65.1428,-48.2806,0
13054,814.8,770.71,759.97,761.28,776.69,-42.48,-876.95,514.16,-1.79,-0.69,-1.93,-329.06,2612,0,82,42.2685,-3.81903,-401.411,19386.7,-26011,401.582,-64.7988,-48.2964,0
13091,815.63,770.78,759.93,761.32,776.91,-54.69,-898.93,504.39,0.32,0.56,-2.22,-333.88,2619,0,82,43.2483,-2.40251,-406.098,19396.1,-26172.2,357,-64.448,-47.7622,0
13127,816.01,770.92,759.99,761.34,777.07,-31.25,-882.81,514.65,-1.22,0.54,0.13,-335.07,2626,0,82,43.3618,-2.46143,-407.114,19409.2,-26165.6,473.286,-64.2712,-47.6751,0
13163,816.86,770.89,759.99,761.37,777.28,-39.06,-874.02,515.14,0.55,-0.22,0.17,-338.18,2634,0,82,43.4021,-2.82009,-413.363,19985,-26466.5,551.597,-64.0273,-48.3474,0
13200,816.98,770.87,759.87,761.39,777.28,-37.6,-875,523.44,-1.74,2.23,1.85,-341.74,2641,0,82,43.8826,-2.79519,-417.014,20241.5,-26798.6,527.444,-64.2633,-48.5396,0
13239,817.1,770.72,759.9,761.45,777.29,-40.53,-873.54,514.16,3.85,-1.34,0.03,-341.19,2649,0,82,44.0381,-2.2833,-424.184,20512.4,-27236,753.165,-64.208,-48.3574,0
13275,817.32,770.81,759.98,761.49,777.4,-32.71,-883.3,524.41,0.89,0.27,-1.41,-341.42,2656,0,82,43.9437,-2.66106,-420.999,20300.4,-27084.3,789.817,-64.3336,-48.2196,0
13311,817.46,770.83,759.88,761.57,777.43,-35.64,-885.25,523.93,-1.01,0.69,0.4,-345.43,2663,0,82,43.7935,-3.15868,-423.606,20613.8,-27281.3,785.244,-64.4026,-48.6627,0
13348,818.15,771.01,759.9,761.64,777.67,-51.76,-874.02,518.07,-0.52,-0.23,-0.83,-349.85,2671,0,82,43.8633,-3.21415,-426.437,20577.6,-27397.4,791.367,-64.2471,-48.2548,0
13384,818.42,771.16,759.87,761.82,777.81,-54.2,-876.46,525.88,-0.97,2.54,0.37,-355.28,2678,0,82,44.235,-3.4473,-431.985,20797.7,-27792.6,770.278,-64.337,-48.1444,0
13420,818.53,771.38,760.01,761.86,777.95,-42.97,-872.07,522.95,-0.74,3.18,-0.69,-354.69,2685,0,82,45.2049,-4.04428,-439.833,20992.3,-28227.2,805.706,-64.1771,-47.7281,0
13458,818.26,771.56,760.08,762.09,778,-37.6,-890.14,520.51,-3.14,-2.6,-0.09,-356.89,2693,0,82,46.2105,-3.71507,-445.921,20926.4,-28666.5,795.382,-64.286,-46.9285,0
13494,818.01,771.91,760.12,762.52,778.14,-36.13,-875.98,539.55,-0.9,2.73,-1.19,-364.01,2700,0,82,46.1542,-3.5849,-447.865,20597.3,-28675.9,650.93,-64.028,-45.99,0
13530,816.78,772.13,760.21,762.91,778.01,-53.22,-884.28,514.65,-3.01,2.02,-1.02,-364.98,2707,0,82,46.6632,-3.44856,-450.399,20193.6,-28901.2,513.576,-64.1681,-44.835,0
13567,816.12,772.43,760.34,763.18,778.02,-36.62,-865.72,533.2,-0.64,3.22,-1.28,-366.05,2714,0,82,46.581,-2.95814,-450.799,19295.4,-28792.3,382.154,-63.8694,-42.8025,0
13603,815.29,772.69,760.41,763.45,777.96,-37.11,-872.07,518.55,-1.41,-0.38,2.05,-367.64,2722,0,82,46.2013,-2.50221,-449.522,18190,-28788.9,265.9,-64.0434,-40.4653,0
13639,814.56,772.79,760.48,763.74,777.9,-44.92,-889.65,508.79,0.93,-1.51,-0.92,-368.27,2729,0,82,45.501,-2.66305,-449.51,17403.2,-28685.1,138.856,-63.8141,-38.7158,0
13677,813.57,772.92,760.54,763.88,777.73,-40.53,-875,521.97,-2.34,0.63,-2.75,-366.44,2736,0,82,45.7328,-2.2352,-446.333,16807.1,-28402.9,40.257,-63.6364,-37.656,0
13714,812.91,773.01,760.51,764.07,777.63,-42.97,-885.74,510.74,-1.66,-0.52,0.08,-368.51,2744,0,82,45.391,-2.94473,-443.253,16042.9,-28043.9,141.076,-63.2683,-36.1934,0
13750,811.98,773.13,760.61,764.3,777.51,-45.9,-890.14,506.84,-0.47,2.12,-3.18,-367.15,2751,0,82,44.8599,-3.49426,-438.477,15509,-27626,82.8394,-63.0045,-35.3703,0
13786,810.17,773.27,760.62,764.44,777.13,-41.99,-900.88,516.11,0.52,-0.83,-3.04,-363.92,2758,0,82,44.7559,-3.41101,-436.688,15039.3,-27589.1,4.17996,-63.1781,-34.4393,0
13822,808.78,773.42,760.69,764.61,776.88,-45.9,-874.51,521.97,-0.88,1.26,-0.2,-361.05,2765,0,82,43.4423,-2.63212,-429.529,13934.7,-26989.6,-90.8515,-62.8353,-32.4416,0
13861,807.43,773.4,760.68,764.84,776.59,-47.85,-887.7,508.79,-1.21,-2.03,0.18,-359.78,2773,0,82,41.8473,-1.43388,-417.2,12690.4,-26211.1,-206.904,-62.8261,-30.4179,0
13897,806.51,773.36,760.72,764.94,776.38,-29.79,-877.93,514.65,-0.48,-0.6,-0.34,-356.87,2780,0,82,40.7971,-0.555796,-413.527,11959.5,-26035,-360.689,-62.9585,-28.9206,0
13934,806.6,773.54,760.74,765.05,776.48,-28.81,-885.25,514.65,1.81,-2.03,-2.33,-359.79,2788,0,82,39.8609,0.399938,-406.669,11205.8,-25721.8,-701.569,-63.2499,-27.555,0
13970,807.78,773.72,760.8,765.11,776.85,-50.78,-882.81,513.67,1.98,0.01,-0.27,-364.71,2795,0,82,39.8662,1.29985,-407.141,11090.4,-25778.8,-685.931,-63.3167,-27.2397,0
14006,808.8,773.64,760.69,764.92,777.01,-45.9,-889.16,521,0.91,0.27,-0.05,-367.46,2802,0,82,41.6591,1.32175,-418.356,11610.3,-26599.5,-678.844,-63.5813,-27.7521,0
14042,808.9,773.6,760.77,764.8,777.02,-41.02,-885.25,517.58,-2.61,1.73,-0.89,-363.79,2809,0,82,43.0699,-0.461582,-432.863,12553.9,-27425.5,-445.654,-63.3584,-29.0021,0
14080,807.89,773.6,760.77,764.72,776.75,-44.92,-879.88,511.23,-2.46,0.89,-0.75,-359.01,2817,0,82,43.0117,-2.47306,-435.106,13223.8,-27834.4,-509.645,-63.9716,-30.3922,0
14116,807.46,773.56,760.82,764.74,776.65,-33.69,-880.86,513.18,0.38,2.27,0.54,-356.32,2824,0,82,41.6187,-4.30239,-425.122,12840.7,-27029.3,-525.834,-63.5802,-30.2046,0
14153,807.21,773.66,760.78,764.72,776.59,-39.06,-877.93,521.97,-0.4,0.6,-1.36,-357.13,2832,0,82,41.1466,-3.8999,-412.491,12282.8,-26155.3,-500.779,-63.4082,-29.7771,0
14188,806.91,773.66,760.8,764.85,776.56,-46.39,-884.77,523.93,-0.66,-0.59,-0.47,-357.39,2839,0,82,41.5246,-3.38061,-411.857,12022.5,-25987.4,-598.57,-63.0983,-29.1909,0
14224,806.77,773.86,760.83,765.08,776.63,-35.16,-879.88,518.07,1.13,1.5,-1.69,-361.31,2846,0,82,41.5232,-3.11972,-412.339,11906.4,-26023.8,-762.293,-63.1127,-28.8753,0
14260,806.6,773.95,760.8,765.13,776.62,-34.67,-885.74,516.6,-0.38,4.79,-0.61,-362.86,2853,0,82,41.5363,-3.18702,-411.545,11611.3,-25957.6,-855.946,-63.0734,-28.2138,0
14299,806.1,773.97,760.83,765.2,776.53,-37.6,-877.93,519.53,-1.69,0.24,-1.05,-361.62,2861,0,82,41.7853,-2.85766,-416.601,11449.4,-26274.2,-749.18,-63.0679,-27.4828,0
14335,805.27,774.21,760.89,765.48,776.47,-45.41,-871.09,516.6,0.37,-1.93,1.45,-363.2,2868,0,82,41.9203,-2.84077,-415.248,11120.4,-26174.5,-898.537,-63.0334,-26.7801,0
14371,804.76,774.45,761.01,765.83,776.51,-34.67,-878.42,518.55,-1.88,1.48,-1.23,-365.58,2875,0,82,41.8125,-2.51061,-414.216,10757.5,-26016.7,-985.135,-62.8096,-25.9708,0
14406,803.8,774.96,761.14,766.25,776.54,-47.36,-887.7,527.83,-0.22,-0.24,0.44,-369.34,2882,0,82,41.2877,-2.11393,-413.544,10128.2,-25939.1,-1037.11,-62.7239,-24.4912,0
14442,802.59,775.36,761.27,766.71,776.48,-40.04,-881.84,507.81,-0.65,0.34,-0.93,-371.8,2889,0,82,41.2793,-2.30876,-416.691,9508.93,-26027,-1043.79,-62.4613,-22.8203,0
14478,801.2,775.88,761.3,767.11,776.37,-35.64,-865.23,511.23,-0.24,0.16,-2.4,-376.51,2897,0,82,41.7345,-1.2272,-417.673,8536.82,-26048.6,-1208.49,-62.366,-20.4391,0
14517,800.04,776.32,761.47,767.6,776.36,-45.9,-866.21,520.51,0.56,-0.85,-1.31,-378.83,2904,0,82,41.6982,-0.540017,-417.268,7423.29,-25829.9,-1401.38,-61.9025,-17.7902,0
14553,798.99,776.79,761.62,768.11,776.37,-30.76,-891.6,517.58,0.92,5.28,-0.33,-382.85,2912,0,82,41.3848,0.281676,-416.299,6401.13,-25751.5,-1626.77,-61.8581,-15.3762,0
14589,798.1,777.08,761.73,768.36,776.32,-37.11,-884.77,526.37,0.73,1.39,-2.5,-383.08,2919,0,82,41.4113,0.362277,-419.422,5563.04,-25743.4,-1721.6,-61.3783,-13.2636,0
14625,797.56,777.34,761.65,768.65,776.3,-35.64,-870.12,517.58,-1.45,-0.55,-2.11,-389.7,2926,0,82,41.2725,0.800411,-420.725,4819.84,-25599.8,-1851.04,-60.8468,-11.456,0
14661,796.76,777.55,761.75,768.7,776.19,-41.5,-866.7,521.48,-2.01,1,-1.34,-386.84,2933,0,82,40.3884,0.750207,-420.912,4392.14,-25564.5,-1914.78,-60.7361,-10.4348,0
14700,796.16,777.74,761.85,768.7,776.11,-35.16,-889.65,503.91,-0.69,-0.34,-1.02,-383.67,2941,0,82,40.6376,0.672656,-418.015,3861.32,-25298.6,-1947.25,-60.5209,-9.23725,0
14736,796.52,777.81,761.89,768.79,776.25,-28.81,-883.3,516.6,1.95,0.8,-0.82,-385.78,2948,0,82,40.685,1.74592,-413.418,3405.77,-24905.5,-2055.66,-60.243,-8.23806,0
14772,797.51,778.04,761.91,768.85,776.58,-37.11,-884.77,518.55,2.03,2.86,1.69,-391.38,2955,0,82,40.8311,1.94065,-415.718,3452.36,-24940.5,-2092.23,-59.9937,-8.30456,0
14808,798.1,777.99,761.91,768.86,776.71,-32.71,-890.62,525.39,-0.3,-0.34,0.27,-393.27,2963,0,82,42.5014,0.850731,-428.707,4311.26,-25879,-1918.05,-60.365,-10.0561,0
14845,798.08,777.93,761.83,768.72,776.64,-39.06,-889.65,520.02,-0.44,-0.42,1.29,-392.86,2970,0,82,42.6874,-0.502591,-437.252,4832.6,-26381.6,-1895.83,-60.335,-11.0522,0
14881,797.39,777.86,761.89,768.59,776.43,-20.51,-880.86,520.02,-1.95,-1.31,0.05,-386.35,2977,0,82,43.2038,-1.48666,-439.1,5175.83,-26618.6,-1931.35,-60.6208,-11.7874,0
14919,796.83,777.7,761.85,768.7,776.27,-26.37,-889.16,497.56,-2.57,-2.96,1.5,-385.66,2985,0,82,43.2323,-0.96186,-430.234,4673.68,-25889.5,-1845.62,-60.1753,-10.863,0
14956,796.87,777.69,761.86,768.75,776.29,-27.83,-884.28,521.97,2.92,-0.78,-1.18,-386.21,2992,0,82,42.9849,1.07762,-420.332,4302.64,-25460.1,-1896.78,-60.5717,-10.2364,0
14992,797.83,777.62,761.79,768.51,776.44,-23.44,-884.77,525.39,2.24,-0.15,-0.13,-387.1,2999,0,82,42.6592,2.34533,-417.895,4100.15,-25283.3,-2054.96,-60.5016,-9.81141,0
15028,798.69,777.35,761.71,768.21,776.49,-34.67,-882.81,523.44,0.13,1.66,2.18,-385.4,3007,0,82,42.7583,1.88087,-425.869,4729.63,-25912.9,-2044.9,-60.8471,-11.1058,0
15064,798.79,777.02,761.66,768.01,776.37,-42.97,-882.32,519.53,0.24,2.24,-1.09,-381.69,3014,0,82,42.843,0.808887,-433.734,5697.94,-26654.3,-2033.51,-61.4532,-13.1369,0
15100,798.73,776.9,761.6,767.74,776.24,-32.71,-875,523.93,-1.89,0.63,0.01,-378.09,3021,0,82,42.8804,-0.421699,-430.833,6355.95,-26686.6,-1883.03,-61.9419,-14.7529,0
15139,798.97,776.75,761.58,767.54,776.21,-43.95,-873.05,524.9,-0.29,1.05,-1.19,-374.99,3029,0,82,43.2278,0.323362,-424.775,6553.59,-26256.6,-1865.18,-61.8129,-15.4285,0
15176,799.29,776.6,761.55,767.39,776.21,-28.32,-883.3,513.67,0.64,-1.79,1.01,-373.41,3036,0,82,42.7478,0.263333,-420.207,6595.94,-25936.5,-1761.73,-61.7231,-15.6969,0
15212,799.87,776.53,761.51,767.35,776.32,-41.99,-880.37,515.14,0.46,2.11,-3.85,-375.35,3043,0,82,42.3662,0.246755,-417.665,6913.81,-25817.6,-1828.62,-61.8141,-16.5535,0
15248,800.24,776.44,761.49,767.32,776.37,-35.64,-880.37,524.41,0.86,0.24,0.15,-376.03,3051,0,82,41.9647,0.509243,-420.049,7447.93,-26019.3,-1878.36,-61.9435,-17.731,0
15284,800.87,776.41,761.59,767.2,776.52,-41.99,-880.37,522.95,-0.43,3.24,-0.91,-373.59,3058,0,82,41.9778,0.390272,-423.005,7817.84,-26276.9,-1744.5,-62.1195,-18.4816,0
15321,800.9,776.35,761.46,767.21,776.48,-33.69,-877.93,517.58,1.16,1.2,-0.47,-376.7,3065,0,82,42.6345,0.245207,-426.819,8119.55,-26513.1,-1780.26,-62.1178,-19.0234,0
15359,800.7,776.29,761.49,767.13,776.4,-48.34,-885.74,522.46,-0.32,-1.47,2.28,-373.56,3073,0,82,42.811,0.206376,-426.412,8414.51,-26627.5,-1847.47,-62.4457,-19.7333,0
15395,800.52,776.13,761.44,767.12,776.3,-35.64,-882.32,524.9,0.32,-3.35,1.66,-372.64,3080,0,82,42.2089,0.356389,-425.859,8251.97,-26438.9,-1816.47,-62.0836,-19.3772,0
15432,800.58,776.04,761.5,767.05,776.29,-30.27,-881.35,513.67,-0.08,3.64,0.95,-369.66,3087,0,82,41.1849,0.591541,-421.216,8203.23,-26259.8,-1753.89,-62.343,-19.4752,0
15468,800.94,776,761.36,766.93,776.31,-40.53,-879.39,518.55,0.76,0.13,2.38,-372.41,3095,0,82,40.2207,0.839798,-418.224,8157.24,-26080.6,-1677.29,-62.3605,-19.5045,0
15504,801.3,775.95,761.41,766.85,776.37,-41.99,-878.42,522.46,-0.02,0.31,-2.66,-370.76,3102,0,82,41.0037,0.0335627,-419.5,8379.67,-26188,-1566.18,-62.4266,-19.9754,0
15540,801.56,775.85,761.33,766.72,776.36,-52.25,-883.79,522.95,-1.14,1.78,0.8,-370.9,3109,0,82,41.5324,-0.0452314,-422.233,8769.47,-26415.3,-1561.52,-62.5608,-20.7692,0
15582,801.67,775.54,761.27,766.54,776.25,-35.64,-884.28,519.53,0.36,0.02,-2.76,-367.72,3117,0,82,41.6908,-0.292698,-424.349,9112.11,-26659.5,-1609.62,-62.8244,-21.4731,0
15618,802.02,775.24,761.25,766.35,776.21,-48.34,-880.86,517.09,0.93,1.83,1.21,-364.23,3125,0,82,41.923,-0.322571,-422.178,9356.39,-26638,-1460.1,-63.0965,-22.1622,0
15654,802.43,775,761.17,766.16,776.19,-37.6,-889.16,527.34,0.13,0.69,1.34,-362.8,3132,0,82,42.1944,-0.394298,-421.941,9759.64,-26864.8,-1481.86,-63.6696,-23.1303,0
15691,802.98,774.76,761.14,765.91,776.2,-39.06,-880.86,524.9,0.15,-0.6,-1.09,-359.96,3139,0,82,41.4479,-0.305169,-421.062,10097.6,-26871.3,-1360.59,-63.8179,-23.9812,0
15727,803.32,774.58,761.07,765.63,776.15,-49.32,-889.16,524.9,-0.91,0.02,0.41,-357.33,3146,0,82,42.0196,-0.757957,-421.807,10543.7,-26934.2,-1287.16,-63.8542,-24.9966,0
15766,803.99,774.25,760.98,765.5,776.18,-46.88,-878.42,523.93,-1.09,-0.08,-1.09,-357.14,3154,0,82,41.6425,-1.3372,-418.727,11096.2,-26949,-1337.27,-64.3595,-26.4997,0
15802,804.35,774.15,761.01,765.37,776.22,-25.88,-880.86,532.23,0.12,-0.05,-3.44,-354.91,3161,0,82,41.1316,-1.99438,-417.57,11548.1,-26806.7,-1106.75,-64.1969,-27.6554,0
15838,804.76,774.21,761,765.24,776.3,-40.53,-875.98,514.65,-0.79,0.35,0.92,-355.34,3169,0,82,41.1466,-2.46513,-416.549,12026.9,-26835.5,-1034.8,-64.4234,-28.8726,0
15874,804.91,774.09,760.99,765.13,776.28,-40.04,-893.55,528.32,-4.02,2.82,-1.61,-353.28,3176,0,82,41.4285,-2.5985,-417.581,12270.1,-26894.4,-942.718,-64.4052,-29.3837,0
15910,805.05,774.12,760.93,765.04,776.28,-39.06,-896.48,519.53,0.21,0.05,-0.63,-354.21,3183,0,82,41.0651,-2.87242,-417.942,12419,-26831.5,-912.111,-64.199,-29.7146,0
15947,805.09,774.01,761.03,764.99,776.28,-40.53,-878.42,526.86,0.31,1.71,-0.43,-350.34,3190,0,82,41.2093,-3.28821,-416.036,12506.8,-26618.3,-1036.95,-63.9808,-30.062,0
15986,805.12,774.08,760.97,765.22,776.35,-45.9,-867.19,529.3,1.07,-2.24,-1.91,-355.79,3198,0,82,41.4632,-2.53306,-415.199,12518.6,-26532.9,-1148.95,-63.9041,-30.1507,0
16022,805.31,774.16,761.01,765.17,776.41,-46.39,-876.46,527.83,0.07,1.07,-1.9,-355.51,3205,0,82,41.0983,-2.42893,-415.499,12521.2,-26513.1,-1005.63,-63.8104,-30.1353,0
16058,805.28,774.12,760.96,765.19,776.39,-49.32,-881.35,506.35,1.09,-0.29,-0.76,-356.51,3213,0,82,40.9055,-2.4407,-418.625,12498.7,-26761.4,-1115.6,-63.927,-29.8565,0
16094,805.13,774.27,760.95,765.19,776.39,-40.53,-881.84,525.88,-0.89,1.56,-2.18,-357.55,3220,0,82,41.1032,-2.33188,-418.359,12523.1,-26766.8,-1088.54,-63.9804,-29.9339,0
16130,805.14,774.18,760.96,765.25,776.38,-46.39,-876.95,521.97,0.3,0.02,-2.4,-357.5,3227,0,82,40.8769,-2.1341,-418.742,12405.6,-26687.8,-1143.59,-63.7334,-29.6258,0
16166,805.12,774.17,760.99,765.34,776.41,-38.09,-881.84,510.74,-1.05,-0.34,0.82,-357.86,3234,0,82,40.9188,-2.22033,-418.329,12381.4,-26671.3,-1095.59,-63.7569,-29.5972,0
16205,804.73,774.26,760.96,765.39,776.33,-41.5,-875.98,535.16,-0.47,-1.78,0.8,-358.64,3242,0,82,41.1382,-1.958,-418.832,12259.7,-26695.3,-1183.76,-63.7375,-29.2711,0
16241,804.66,774.25,761.02,765.42,776.34,-43.95,-875,520.02,0.08,0.71,-1.18,-357.3,3249,0,82,41.2105,-1.50214,-415.308,11951.7,-26489.8,-1157.36,-63.7835,-28.778,0
16277,804.42,774.19,761.07,765.46,776.29,-46.88,-882.81,521.97,-0.85,-1.92,-3.92,-355.2,3256,0,82,41.128,-1.06736,-417.008,11829.7,-26530.6,-1060.43,-63.6212,-28.3682,0
16314,804.38,774.31,761.06,765.5,776.31,-41.5,-885.25,528.81,0.46,0.89,0.56,-357.04,3264,0,82,41.2302,-0.974417,-414.368,11655.6,-26485.2,-1129.24,-63.9173,-28.1287,0
16350,804.31,774.23,760.99,765.54,776.27,-41.5,-876.46,517.09,-1.36,-1.79,-1.05,-358.43,3271,0,82,41.0151,-0.785865,-414.608,11487.1,-26466.1,-1292.94,-63.8339,-27.706,0
16386,804.26,774.25,761.06,765.59,776.29,-51.27,-888.67,522.95,0.34,-0.82,-1.57,-357.53,3278,0,82,40.8237,-0.760417,-417.048,11528.2,-26639.7,-1197.33,-63.877,-27.6423,0
16426,804.19,774.43,761.04,765.62,776.32,-30.27,-879.88,519.04,-0.6,0,-0.39,-359.63,3286,0,82,40.6967,-0.855657,-417.857,11466.9,-26768.9,-1219.11,-64.0623,-27.4421,0
16462,803.89,774.5,761.14,765.73,776.31,-53.71,-885.25,512.7,0.11,-0.6,-1.56,-358.14,3293,0,82,40.7674,-0.825373,-418.259,11399.6,-26738.2,-1268.6,-63.9274,-27.255,0
16498,803.73,774.53,761.11,765.7,776.27,-57.13,-889.65,519.04,0.3,2.71,0.08,-358.28,3301,0,82,40.6608,-0.848759,-417.236,11149.1,-26589.6,-1252.73,-63.7279,-26.7214,0
16534,803.5,774.63,761.19,765.76,776.27,-47.36,-880.86,510.74,0.37,-0.63,0.3,-357.26,3308,0,82,40.6481,-1.01506,-417.424,10988.3,-26556.2,-1433.98,-63.6192,-26.3241,0
16571,803.26,774.78,761.21,765.94,776.3,-45.41,-888.18,518.07,-0.03,-0.18,-1.37,-359.68,3315,0,82,40.8192,-0.734248,-415.415,10722.2,-26465.2,-1424.81,-63.708,-25.8109,0
16607,802.88,774.9,761.2,765.97,776.24,-35.64,-886.23,519.04,-2.45,0.34,-4.78,-360.03,3322,0,82,40.865,-0.677384,-415.338,10471.3,-26377.3,-1479.24,-63.508,-25.2114,0
16646,802.53,775.08,761.18,766.15,776.23,-46.88,-878.42,520.51,0.69,-0.43,-1.56,-363.43,3330,0,82,40.7991,-0.230713,-414.627,10131.1,-26327,-1681.09,-63.4956,-24.4342,0
16682,802.15,775.16,761.26,766.28,776.21,-36.62,-877.93,513.18,0.54,1.02,0.68,-362.65,3337,0,82,41.1526,-0.237955,-415.139,9750.71,-26196.2,-1587.36,-63.1022,-23.4879,0
16718,801.52,775.25,761.22,766.4,776.1,-41.02,-882.32,510.74,0.53,0.06,-1.66,-364.02,3345,0,82,41.1647,-0.216431,-413.026,9500.21,-26084.9,-1681.41,-63.1557,-23.0015,0
16755,801.23,775.42,761.26,766.54,776.11,-40.53,-884.28,518.07,0.18,0.12,-0.24,-365.62,3352,0,82,41.0441,0.444476,-413.956,8984.77,-25971.9,-1678.78,-62.7406,-21.7046,0
16791,800.97,775.47,761.31,766.65,776.1,-32.71,-879.88,521,0.19,-3.79,-1.17,-365.37,3359,0,82,40.74,0.826418,-411.626,8539.93,-25819.2,-1762.16,-62.7248,-20.7468,0
16830,800.95,775.54,761.38,766.57,776.11,-46.39,-872.56,516.11,-0.46,-0.67,-1.9,-362.89,3367,0,82,40.6335,1.66322,-411.028,8256.16,-25667.5,-1729.49,-62.4471,-20.0866,0
16866,801.17,775.59,761.35,766.63,776.18,-34.18,-878.91,512.7,0.33,-0.61,1.45,-365.66,3374,0,82,40.8718,1.73676,-411.722,8095.75,-25579,-1662.83,-62.1269,-19.6632,0
16903,801.48,775.65,761.37,766.63,776.28,-51.27,-879.88,507.81,-0.54,-1.4,0.32,-366.8,3382,0,82,40.9088,2.12936,-412.3,8214.89,-25614.2,-1603.87,-62.1253,-19.9245,0
16939,801.96,775.66,761.28,766.6,776.37,-41.5,-890.62,519.04,-0.36,-0.82,-0.69,-370.09,3389,0,82,41.2088,1.62001,-416.38,8394.63,-25875.3,-1656.69,-62.1435,-20.161,0
16975,802.13,775.63,761.35,766.46,776.39,-40.04,-882.32,508.79,-0.64,-0.1,-1.29,-366.86,3396,0,82,40.8425,0.969701,-418.1,8703.17,-25979.8,-1705.76,-62.1378,-20.8159,0
17011,802.52,775.65,761.38,766.4,776.49,-40.04,-880.86,512.21,-1.26,1.93,0.21,-366.67,3403,0,82,41.2321,0.140973,-421.066,9081.18,-26188.8,-1644.52,-62.1964,-21.5671,0
17051,802.58,775.62,761.32,766.36,776.47,-28.81,-888.67,526.86,-1.05,-1.06,-1.06,-367.58,3411,0,82,41.4544,-0.587012,-421.463,9446.25,-26160.1,-1597.52,-62.0697,-22.413,0
17088,802.68,775.64,761.34,766.4,776.52,-34.67,-892.09,517.58,-0.24,-0.73,-0.27,-368.13,3419,0,82,41.9881,-0.575525,-422.078,9583.71,-26135.6,-1559.11,-61.9212,-22.706,0
17124,802.83,775.73,761.32,766.36,776.56,-33.2,-883.79,519.04,0.6,0.45,1.23,-369.22,3426,0,82,42.2331,-0.614973,-419.926,9554.62,-26085.9,-1615.29,-62.1205,-22.7531,0
17160,803.03,775.6,761.26,766.32,776.55,-41.5,-869.14,525.39,-0.72,-1.76,-1.28,-369.84,3433,0,82,41.8934,-0.536185,-419.708,9570.63,-26017.1,-1646.33,-61.9886,-22.803,0
17197,803.35,775.57,761.29,766.24,776.61,-39.06,-891.11,515.14,1.79,-0.57,-0.44,-368.65,3440,0,82,42.1027,-0.270744,-419.908,9695.51,-26147.6,-1608.74,-62.27,-23.0897,0
17233,803.67,775.46,761.25,766.17,776.64,-34.67,-875,512.7,-0.58,1.13,-0.98,-369.09,3448,0,82,41.6424,-0.641846,-423.089,10014.8,-26380.4,-1508.75,-62.352,-23.6708,0
17272,803.79,775.37,761.31,766.06,776.63,-47.36,-886.23,521.97,0.48,-0.94,1.85,-365.58,3455,0,82,41.9653,-0.489292,-423.541,10303.6,-26444.7,-1465.46,-62.4371,-24.3273,0
17309,803.94,775.35,761.21,765.97,776.62,-37.11,-891.6,520.02,-0.05,0.85,0.39,-367.06,3463,0,82,41.7057,-1.25173,-423.488,10566.5,-26422,-1436.21,-62.3914,-24.9512,0
17345,804.07,775.37,761.21,765.94,776.65,-41.5,-877.44,519.53,-1.13,-3.24,-0.75,-367.05,3470,0,82,41.8364,-1.35547,-422.832,10795.5,-26414.1,-1415.88,-62.4695,-25.5314,0
17381,804.02,775.36,761.21,765.89,776.62,-33.2,-878.42,508.79,-0.74,-0.38,0.03,-366.15,3477,0,82,41.3107,-1.95306,-422.377,10923.7,-26439.6,-1525.92,-62.5971,-25.8624,0
17417,804.12,775.48,761.25,765.89,776.69,-29.79,-875,521.48,-0.76,1.34,-0.64,-366.67,3484,0,82,41.2787,-2.18962,-422.344,10918.2,-26350.3,-1544.32,-62.3906,-25.8514,0
17454,804.26,775.52,761.27,765.87,776.73,-50.29,-880.86,523.93,0.27,2.4,-0.54,-366.47,3492,0,82,41.7081,-2.10683,-421.136,10901.5,-26336.8,-1646.92,-62.5376,-25.8859,0
17493,804.5,775.59,761.3,765.85,776.81,-38.57,-885.74,515.14,-1.01,0.37,-0.82,-366.91,3500,0,82,41.704,-2.26862,-424.321,11016.5,-26466,-1683.78,-62.3726,-25.9627,0
17528,804.92,775.73,761.18,766.02,776.96,-37.6,-886.23,521,0.66,-0.37,-0.62,-374.92,3507,0,82,42.0167,-2.57457,-426.723,11148.8,-26537.9,-1653.06,-62.1899,-26.1265,0
17565,805.29,775.96,761.22,766.02,777.12,-41.02,-873.05,513.18,0.27,-0.14,-0.03,-377.08,3514,0,82,43.1531,-2.27153,-431.499,11246.9,-26804.5,-1728.36,-62.1196,-26.0647,0
17601,805.18,775.94,761.24,766.01,777.1,-40.53,-873.54,521.97,0.38,-1.69,1.4,-375.83,3521,0,82,44.1775,-2.57117,-436.741,11464,-27260.7,-1836.97,-62.4186,-26.2489,0
17636,804.16,775.85,761.32,765.94,776.82,-39.06,-873.54,533.69,-3.42,0.7,0.76,-368.56,3528,0,82,44.5109,-2.90749,-442.171,11462.2,-27454.9,-1880.79,-62.0912,-25.9224,0
17676,803.1,775.86,761.31,766,776.57,-29.79,-878.91,514.16,-0.28,-3.37,-1.26,-366.22,3536,0,82,43.7463,-2.20832,-432.634,10888.1,-26900.6,-1874.89,-62.179,-25.1671,0
17712,802.98,775.82,761.27,766.02,776.52,-46.88,-879.39,521,-2.45,0.56,0.5,-366.57,3543,0,82,42.3136,-1.56497,-418.098,9969.11,-25776.5,-1852.59,-61.6517,-23.8438,0
17748,802.81,775.75,761.32,766.12,776.5,-27.83,-880.37,513.18,0.17,0.47,-1.64,-365.69,3551,0,82,42.2364,-0.89453,-412.081,9573.72,-25386.7,-1961.35,-61.6062,-23.2326,0
17784,802.39,775.66,761.32,766.04,776.35,-35.64,-885.74,525.39,-0.15,1.73,0.08,-362.51,3558,0,82,41.6522,-1.71351,-412.526,9612.74,-25388,-1835.47,-61.5428,-23.3022,0
17820,802.08,775.64,761.29,766.14,776.29,-33.69,-876.95,517.09,-1.68,2.06,-0.73,-363.57,3565,0,82,41.2345,-2.27396,-410.229,9393.87,-25268.3,-1797.14,-61.5956,-22.899,0
17856,801.41,775.64,761.32,766.17,776.13,-40.53,-886.23,517.58,-2.9,-0.95,-0.75,-361,3572,0,82,41.2286,-1.77546,-406.384,9218.93,-25059.1,-1626.75,-61.6636,-22.6853,0
17895,800.73,775.69,761.44,766.27,776.03,-32.23,-882.32,516.6,0.15,-1.52,-2.09,-357.42,3580,0,82,40.9648,-1.83668,-402.316,8828.85,-24838.7,-1447.7,-61.7393,-21.9451,0
17932,800.32,775.81,761.4,766.52,776.01,-44.43,-885.25,533.2,2.11,-1.13,-0.69,-361.72,3587,0,82,40.835,-1.26352,-399.158,8346.37,-24584.8,-1657.27,-61.5916,-20.9098,0
17968,799.89,775.94,761.43,766.7,775.99,-48.83,-871.09,520.02,-1.08,1.63,1.41,-363.16,3595,0,82,40.3226,-0.556202,-397.326,7804.83,-24404.6,-1588.1,-61.4221,-19.6435,0
18004,799.42,776.15,761.5,766.96,776.01,-41.5,-880.37,524.41,-0.67,-0.83,-1.16,-365.31,3602,0,82,40.672,-0.0637397,-397.823,7448.28,-24548.8,-1642.63,-61.7078,-18.7227,0
18041,798.62,776.46,761.55,767.33,775.99,-28.81,-881.35,518.07,-0.1,0.79,1.06,-369.31,3609,0,82,40.81,0.0515552,-401.17,7057.48,-24562.6,-1632.91,-61.2276,-17.5923,0
18078,797.59,776.73,761.64,767.52,775.87,-36.62,-891.6,524.9,-0.62,0.29,-3.87,-368.46,3617,0,82,40.6798,0.0876768,-400.163,6375.82,-24508.7,-1851.39,-61.2471,-15.9334,0
18117,796.69,777.05,761.72,767.78,775.81,-31.74,-869.63,520.02,1.34,-1.05,0.44,-369.59,3624,0,82,40.6424,0.616431,-398.245,5526.46,-24179.4,-1989.4,-60.7149,-13.877,0
18153,796.44,777.18,761.77,767.85,775.81,-37.6,-887.21,514.16,0.69,-0.27,1.78,-369.6,3632,0,82,41.2922,1.10545,-394.031,4637.06,-23699,-1983.45,-60.1456,-11.768,0
18189,795.42,777.26,761.83,767.97,775.62,-32.23,-878.42,522.95,-1.95,2.79,-0.13,-367.03,3639,0,82,41.4523,1.60233,-398.622,4414.89,-23835.4,-1933,-59.7945,-11.0754,0
18226,794.71,777.36,761.87,768.06,775.5,-33.2,-886.23,507.81,-0.89,-0.7,-4.15,-365.84,3646,0,82,41.0112,1.18775,-394.592,3937.73,-23634.5,-2163.41,-59.8962,-9.97906,0
18262,794.41,777.5,761.83,768.2,775.49,-37.11,-885.25,511.23,-0.45,0.65,-1.76,-368.97,3653,0,82,40.5963,2.03041,-387.304,3406.04,-23145.2,-2160.51,-59.7598,-8.79405,0
18298,794.3,777.67,761.85,768.2,775.51,-29.3,-891.11,517.58,0.36,-0.16,-0.16,-369.55,3661,0,82,40.8061,2.13923,-387.219,3100.69,-22981,-2114.02,-59.3488,-8.00758,0
18340,794.13,777.9,761.87,768.42,775.58,-38.09,-880.86,518.07,-1.85,-0.19,-0.02,-373.38,3669,0,82,40.8047,1.44343,-390.121,2984.08,-23042.3,-2023.89,-59.0645,-7.64912,0
18376,793.84,778,762.01,768.64,775.62,-31.74,-890.14,509.28,-0.35,-0.75,2.04,-373.12,3676,0,82,41.6115,0.822381,-393.013,2927.25,-23164.2,-2157.37,-58.9403,-7.44833,0
18413,793.31,778.12,762.03,768.7,775.54,-35.64,-883.79,505.86,-0.7,0.53,-1.64,-372.5,3684,0,82,42.1124,0.868051,-393.562,2667.43,-23152.7,-2040.73,-58.8286,-6.77765,0
18449,792.97,778.1,762,768.74,775.45,-33.2,-887.21,513.18,-1.42,3.06,0.17,-372.63,3691,0,82,41.8763,1.62868,-392.343,2277.75,-22997.3,-2007.88,-58.6155,-5.80549,0
18485,792.74,778.16,762.02,768.72,775.41,-34.18,-885.74,509.28,2.13,-0.84,-2.1,-371.33,3698,0,82,41.2454,2.24824,-390.245,1965.13,-22870.4,-1958.41,-58.6055,-5.03574,0
18524,792.78,778.17,761.98,768.81,775.44,-33.2,-872.07,513.67,-0.02,0.31,1.53,-373.96,3706,0,82,40.8686,2.51301,-388.969,1825.9,-22727.6,-1970.06,-58.4304,-4.69424,0
18561,792.75,778.19,762.05,768.79,775.44,-30.76,-892.09,534.18,1.04,-2.47,0.24,-372.01,3713,0,82,40.8135,2.48448,-388.549,1854.27,-22799.1,-2117.07,-58.6776,-4.7723,0
18597,792.72,778.16,762.01,768.7,775.4,-49.32,-884.77,512.21,0.87,0.39,0.45,-371.31,3720,0,82,40.69,2.51832,-390.365,1858.17,-22817,-2058.55,-58.4504,-4.76008,0
18633,792.77,778.11,762.01,768.63,775.38,-37.6,-884.28,519.04,-1.66,-2.01,1.47,-370.27,3728,0,82,41.1966,2.58165,-387.918,1953.52,-22772.2,-1981.22,-58.7041,-5.03608,0
18669,792.93,778.09,761.96,768.52,775.38,-33.2,-875.98,529.79,-0.25,-0.18,-2.04,-370.05,3735,0,82,40.7575,2.22022,-388.371,2078.35,-22715.9,-1863.41,-58.4903,-5.35146,0
18706,793,778.03,762,768.52,775.39,-49.8,-867.68,521.97,-2.91,-1.11,-1.76,-368.91,3742,0,82,41.0187,2.02698,-387.934,2330.89,-22795,-1899.09,-58.7601,-6.00842,0
18745,793.09,777.91,761.97,768.38,775.34,-33.2,-888.67,520.51,-0.57,-1.21,-2.57,-366.98,3750,0,82,40.7185,1.64567,-387.175,2447.51,-22769.2,-1952.25,-58.8085,-6.32148,0
18781,793.28,777.88,761.95,768.34,775.36,-43.46,-900.88,517.58,-0.48,2.21,0.89,-367.15,3757,0,82,41.1322,1.44833,-387.908,2641.38,-22780.6,-1908.51,-58.7269,-6.80928,0
18817,793.43,777.81,761.77,768.21,775.3,-30.76,-886.72,502.44,-1.6,0.68,-1.23,-369.71,3764,0,82,40.8839,1.76155,-387.406,2829.52,-22810.7,-1736.34,-58.8806,-7.30376,0
18854,793.62,777.63,761.89,768.15,775.32,-21.48,-891.11,515.14,0.7,1.85,0.79,-365.16,3772,0,82,41.1262,1.57528,-387.65,3042.26,-22829.2,-1688.87,-58.8913,-7.84788,0
18890,793.97,777.6,761.82,768.12,775.37,-47.85,-880.37,521,0.66,0.81,1.11,-367.27,3779,0,82,41.2403,1.08831,-386.495,3290.81,-22853,-1788.44,-59.1287,-8.5145,0
18926,794.56,777.57,761.77,767.91,775.45,-43.95,-890.14,521.48,0.94,1.19,-0.15,-367.36,3786,0,82,41.3681,0.733837,-387.718,3499.46,-22917.7,-1793.85,-59.1092,-9.0258,0
18965,795.16,777.26,761.79,767.72,775.48,-51.27,-883.79,521.48,-1.02,1.06,2.6,-363.68,3794,0,82,41.332,0.691795,-390.787,4124.97,-23230.1,-1790.04,-59.4446,-10.5554,0
19002,795.8,777.04,761.62,767.53,775.5,-40.53,-873.05,525.39,1.06,1.74,-0.24,-365.37,3801,0,82,41.3197,-0.0479275,-392.615,4647.62,-23430,-1751.87,-59.6769,-11.8376,0
19039,796.33,776.87,761.7,767.39,775.57,-34.67,-894.53,516.6,-0.1,0.82,-1.32,-361.71,3809,0,82,41.3966,-0.401669,-394.114,5347.3,-23793,-1781.16,-60.3708,-13.5679,0
19075,796.95,776.74,761.59,767.28,775.64,-36.13,-891.11,516.11,1.36,0.71,3.36,-363.87,3816,0,82,41.8554,-0.590165,-396.677,5863.72,-24006.8,-1630.18,-60.5198,-14.7821,0
19111,797.57,776.57,761.52,767.02,775.67,-41.02,-884.77,521.48,0.24,-1.75,1.35,-362.52,3823,0,82,41.6145,-1.21323,-397.719,6356.16,-24159.9,-1504.9,-60.7463,-15.9815,0
19148,798.17,776.38,761.57,766.88,775.75,-32.71,-887.7,523.93,0.47,0.62,-4.06,-359.9,3831,0,82,41.1782,-1.68756,-399.578,6967.46,-24346.2,-1439.21,-60.9298,-17.437,0
19187,798.84,776.18,761.42,766.66,775.77,-33.2,-870.61,534.18,-2.08,0.4,2.85,-361.24,3838,0,82,41.4573,-1.85261,-400.255,7408.24,-24520,-1499.39,-61.2611,-18.5088,0
19223,799.38,776.05,761.47,766.44,775.84,-31.25,-871.58,498.54,-0.65,1.08,0.95,-357.3,3846,0,82,41.0365,-1.90655,-400.842,8034.07,-24610.5,-1327.91,-61.397,-20.043,0
19259,799.94,775.83,761.4,766.25,775.86,-38.09,-876.46,514.65,0.08,-3.09,1.85,-356.42,3853,0,82,41.1468,-2.25943,-402.075,8567.85,-24716.7,-1256.89,-61.4729,-21.309,0
19295,800.47,775.73,761.36,766.16,775.93,-29.79,-879.88,519.04,-1.89,1.2,0.98,-357.33,3860,0,82,41.4266,-2.53541,-401.934,9056.16,-24818.2,-1305.14,-61.7471,-22.5315,0
19332,800.78,775.6,761.28,766.02,775.92,-45.9,-877.93,524.9,0.31,1.89,-0.58,-357.31,3867,0,82,40.9866,-2.54279,-401.737,9415.91,-24734.6,-1227.49,-61.5693,-23.4381,0
19368,801.14,775.53,761.25,765.84,775.94,-33.2,-889.16,514.16,-0.23,3.72,1.27,-356.02,3875,0,82,41.2003,-2.90251,-401.34,9738.87,-24762.7,-1139.91,-61.7001,-24.2658,0
19407,801.41,775.53,761.27,765.93,776.04,-41.02,-877.93,520.02,-0.45,-0.2,-0.4,-357.59,3882,0,82,40.9001,-3.14169,-402.07,10035.9,-24783.2,-1025.58,-61.639,-24.9607,0
19443,801.46,775.6,761.23,765.96,776.06,-32.71,-883.3,502.93,-2.76,5.31,-2.16,-359.83,3890,0,82,41.0883,-3.47264,-401.406,10208.2,-24776.5,-1108.11,-61.7244,-25.4312,0
19479,801.37,775.63,761.2,765.96,776.04,-44.92,-879.39,526.37,-2.36,2.5,0.82,-360.59,3897,0,82,41.1547,-3.51995,-403.361,10266.2,-24836.2,-1118.48,-61.5732,-25.4517,0
19515,801.05,775.85,761.32,766.11,776.08,-34.67,-879.39,520.51,-0.95,1.95,-1.31,-360.61,3904,0,82,41.4113,-3.53117,-401.708,10198.7,-24718.8,-1169.31,-61.5347,-25.3884,0
19551,800.41,776.05,761.34,766.24,776.01,-33.2,-880.86,522.46,0.4,-2.47,0.9,-361.36,3911,0,82,41.2433,-2.89216,-401.344,9832.63,-24566.2,-1359.92,-61.2099,-24.4993,0
19590,799.71,776.16,761.41,766.47,775.94,-33.69,-881.84,509.77,-2.82,-1.44,-3.13,-361.29,3919,0,82,41.1284,-1.94704,-399.039,9296.41,-24351.3,-1559.93,-61.0249,-23.2969,0
19626,799.23,776.32,761.41,766.51,775.87,-28.32,-880.86,517.09,-0.13,1.01,-1.85,-361.68,3926,0,82,40.7165,-1.3376,-395.29,8527.04,-24024.3,-1483.47,-60.7763,-21.5715,0
19663,798.85,776.43,761.46,766.69,775.86,-42.97,-885.74,522.95,-0.74,-0.14,0.3,-362.67,3934,0,82,40.5882,-0.387125,-394.077,7978.28,-23848.1,-1730,-60.5163,-20.2455,0
19699,798.27,776.6,761.49,766.84,775.8,-31.25,-880.37,524.9,-1.13,0.05,0.35,-363.44,3941,0,82,40.6979,-0.0356343,-394.028,7576.85,-23760.9,-1669.98,-60.3027,-19.2293,0
19735,797.62,776.58,761.64,766.85,775.67,-43.95,-887.21,512.7,-1.08,0.91,0.37,-357.46,3948,0,82,40.4253,0.18002,-393.195,7283.25,-23670.7,-1848.02,-60.2009,-18.5232,0
19772,797.36,776.61,761.53,766.91,775.6,-42.48,-887.21,522.95,-0.68,-0.37,-1.06,-360.44,3955,0,82,40.1711,0.633855,-390.352,6699.3,-23401.1,-1744.01,-59.9486,-17.1621,0
19811,797.13,776.68,761.47,767.06,775.59,-41.5,-878.91,496.58,0.42,1.65,-1.5,-363.89,3963,0,82,39.6841,0.969454,-387.931,6344.84,-23238.8,-1697.9,-59.9045,-16.3556,0
19847,797.02,776.66,761.5,767.11,775.57,-41.99,-900.88,514.65,-1.37,0.37,-1.99,-363.28,3970,0,82,39.6008,1.3661,-386.891,6161.81,-23307.2,-1726.56,-60.2422,-15.9266,0
19884,796.8,776.67,761.59,767.12,775.54,-48.83,-890.62,521.48,-0.53,0.91,-0.38,-360.57,3978,0,82,39.3006,1.64072,-388.188,6023.71,-23311.5,-1841.4,-60.0522,-15.5175,0
19920,796.75,776.72,761.56,767.14,775.54,-36.62,-879.39,515.62,-0.24,-0.34,-1.03,-361.8,3985,0,82,39.1381,1.84528,-386.863,6007.78,-23346.2,-1809.43,-60.3473,-15.5295,0
19956,797.05,776.63,761.55,767.14,775.59,-32.23,-885.25,517.09,-1.46,0.29,0.31,-362.48,3992,0,82,39.0761,2.26915,-387.507,5826.06,-23322.9,-1808.26,-60.187,-15.0347,0
19993,797.45,776.59,761.55,767.06,775.66,-34.67,-882.81,522.46,1.26,-1.16,-0.96,-362.34,4000,0,82,39.5064,2.35297,-388.89,5920.13,-23481.6,-1904.65,-60.3811,-15.2231,0
20032,797.94,776.48,761.48,766.89,775.7,-27.83,-884.77,526.37,-1.11,-2.76,-1.05,-362.43,4007,0,82,39.4431,2.28881,-392.556,6311.46,-23793.4,-1767.79,-60.6116,-16.0779,0
20069,798.06,776.28,761.43,766.74,775.63,-39.55,-893.07,515.62,-0.5,1.5,-1.2,-360.18,4015,0,82,39.6661,2.0411,-394.952,6739.25,-24012.5,-1731.73,-60.7986,-17.0635,0
20105,798.47,776.27,761.48,766.58,775.7,-39.55,-878.91,516.6,-0.16,-2.12,1.41,-357.98,4022,0,82,39.4735,1.67935,-394.179,7105.01,-23951.7,-1719.46,-60.7636,-18.0248,0
20141,799.07,776.13,761.38,766.45,775.76,-34.67,-877.44,526.86,-1.03,3.24,1.6,-359.51,4029,0,82,39.5004,1.78738,-392.781,7369.74,-23907.5,-1687.58,-60.8674,-18.763,0
20178,799.78,776.06,761.32,766.32,775.87,-36.62,-883.3,525.39,-0.34,-0.35,-0.65,-360.76,4037,0,82,39.9533,2.02735,-394.081,7951.94,-24077.3,-1580.95,-61.0973,-20.1784,0
20214,800.61,775.9,761.36,766.01,775.97,-20.51,-884.28,514.16,0.35,-1.52,-0.81,-356.9,4044,0,82,40.303,1.8786,-396.708,8551.32,-24226.9,-1486,-61.0699,-21.5556,0
20253,801.2,775.82,761.27,765.9,776.05,-39.55,-877.44,523.93,0.02,1.19,-0.68,-359.01,4052,0,82,40.1633,2.0542,-397.906,9213.16,-24233.3,-1451.72,-60.9021,-23.1541,0
20290,801.45,775.63,761.21,765.69,775.99,-35.64,-880.86,519.04,1.04,0.44,-1.44,-356.62,4059,0,82,40.4338,2.05866,-398.446,9638.87,-24143.8,-1323.83,-60.595,-24.1912,0
20326,801.9,775.41,761.16,765.46,775.98,-43.95,-887.21,522.46,-1.68,-0.17,-0.03,-354.08,4066,0,82,40.1171,3.07914,-395.438,9898,-24034.2,-1336.09,-60.7787,-25.0304,0
20362,802.55,775.28,761.14,765.2,776.04,-38.57,-876.95,521.48,-2.33,0.07,-1.91,-352.02,4073,0,82,39.361,3.0929,-393.401,10235,-23863.2,-1403.12,-60.6588,-26.0168,0
20399,803.46,775.24,761.05,765.08,776.21,-31.74,-871.58,529.79,-0.69,0.66,-2.47,-355.34,4081,0,82,39.6783,2.39346,-391.754,10834.4,-23994.3,-1435.67,-61.2485,-27.6562,0
20438,804.47,775.13,761.05,764.83,776.37,-39.55,-883.3,517.58,-0.17,0.04,0.94,-354.34,4089,0,82,40.1973,1.36878,-396.667,11553,-24254.1,-1399.29,-61.1447,-29.1252,0
20474,805.58,775.1,761,764.66,776.58,-36.13,-878.42,516.11,1.07,0.82,1.26,-356.42,4096,0,82,41.1948,0.299726,-400.794,12131.1,-24678.6,-1450.4,-61.5743,-30.2678,0
20510,806.54,774.92,760.94,764.49,776.72,-41.5,-880.86,524.41,-0.38,1.97,1.38,-357.43,4103,0,82,41.7192,-0.895477,-406.516,12846.7,-24912.9,-1384.87,-61.2839,-31.6019,0
20547,806.92,774.84,760.93,764.38,776.77,-47.36,-882.32,512.21,-1.24,1.37,0.48,-356.75,4110,0,82,42.8433,-2.69612,-412.473,13678.1,-25359.7,-1419.01,-61.4822,-33.1612,0
20583,806.97,774.89,760.96,764.33,776.79,-44.92,-888.67,521.48,0.46,1.03,1.43,-355.87,4118,0,82,42.4955,-4.16667,-413.778,14229.7,-25475.3,-1282.47,-61.5675,-34.3897,0
20619,806.82,774.84,760.94,764.39,776.75,-35.16,-889.65,510.25,-0.33,0.34,0.31,-356.34,4125,0,82,42.2648,-4.68261,-412.913,14253.6,-25471.7,-1281.98,-61.6879,-34.5196,0
20659,806.62,774.93,761.06,764.48,776.77,-41.02,-888.67,511.23,-0.8,-1.73,2.27,-354.6,4133,0,82,41.2508,-5.30488,-411.036,14097.9,-25393.9,-1289.48,-61.7803,-34.2983,0
20695,806.25,775.19,761.04,764.79,776.82,-38.57,-886.72,513.18,-0.24,-1.7,0.93,-360.68,4140,0,82,40.7485,-4.98651,-410.555,13997.1,-25300.8,-1297.76,-61.6259,-34.0932,0
20731,805.78,775.37,761.01,765.03,776.8,-41.5,-875,506.84,-0.21,2.53,1.21,-364.75,4147,0,82,41.0074,-4.31755,-411.892,13662.4,-25384.4,-1337.88,-61.6288,-33.1699,0
20768,805.28,775.69,761.05,765.34,776.84,-39.55,-868.16,527.83,2.2,-0.08,-1.67,-369.03,4155,0,82,40.9874,-2.93799,-412.493,13030.5,-25309,-1470.69,-61.3563,-31.5897,0
20804,804.51,776.04,761.22,765.74,776.88,-44.43,-870.12,516.6,-0.45,1.4,-1.69,-371.02,4162,0,82,40.9466,-2.14764,-414.285,12501.7,-25443.4,-1490.13,-61.4155,-30.177,0
20840,803.58,776.48,761.3,766.14,776.87,-33.69,-888.67,512.21,0.02,0.52,-0.98,-375.23,4169,0,82,41.2883,-1.18518,-417.719,11643,-25512.4,-1653.2,-61.0756,-27.8727,0
20879,802.67,776.88,761.45,766.43,776.86,-43.46,-883.3,518.07,-1.18,-0.47,-1.24,-375.81,4177,0,82,41.3873,0.222063,-416.922,10584,-25352,-1932.64,-60.8076,-25.386,0
20916,801.74,777.17,761.56,766.83,776.82,-36.62,-885.74,516.11,-0.42,-0.29,-2.08,-378.17,4184,0,82,41.7388,1.25433,-417.992,9698.5,-25340,-2039.76,-60.6231,-23.2026,0
20952,800.61,777.62,761.62,767.16,776.75,-27.83,-889.65,510.74,-1.79,0.44,-0.98,-381.17,4191,0,82,42.1253,1.7669,-418.547,8964.02,-25130.3,-2115.65,-60.0418,-21.4169,0
20988,799.28,778.07,761.77,767.58,776.67,-34.67,-882.81,504.88,-1.58,-2.21,-2.28,-382.69,4199,0,82,42.1447,2.30249,-418.237,7761.42,-24915.7,-2262.38,-59.5732,-18.5574,0
21024,797.74,778.47,761.88,768.09,776.54,-32.71,-878.42,511.23,-2.63,-0.12,-1.64,-385.34,4206,0,82,42.0881,3.21027,-417.99,6790.47,-24813.3,-2619.81,-59.3634,-16.2455,0
21061,796.23,778.82,761.98,768.52,776.39,-36.13,-872.07,522.46,-0.05,-1.84,-0.8,-386.72,4213,0,82,41.6392,3.73232,-414.194,5560.82,-24387.1,-2522.25,-58.8786,-13.4256,0
21100,794.89,779.1,762.11,768.83,776.23,-33.69,-888.67,512.7,0.35,1.08,0.8,-385.83,4221,0,82,41.5701,5.0226,-410.728,4085.11,-24007,-2771.65,-58.4498,-9.94576,0
21136,793.91,779.49,762.22,769.31,776.23,-29.79,-878.42,507.81,0.19,-1.2,-0.87,-389.84,4228,0,82,41.3049,5.27199,-406.976,3051.3,-23644.4,-2729.71,-58.0977,-7.49746,0
21175,792.95,779.86,762.41,769.7,776.23,-46.88,-889.65,515.14,0.04,0.01,-1.63,-390.63,4236,0,82,40.8292,6.14691,-406.962,2199.91,-23579,-2846.66,-57.9391,-5.40571,0
21211,792.22,779.99,762.43,769.86,776.12,-37.6,-870.61,511.23,-0.14,-2.02,0.55,-390.97,4243,0,82,40.8653,7.06719,-408.632,1465.08,-23744.3,-2972.46,-58.1067,-3.58532,0
21247,791.6,780.13,762.43,770.11,776.07,-38.09,-877.44,518.55,-0.21,-1.73,-1.65,-393.78,4250,0,82,40.5771,7.10429,-409.229,638.183,-23643.5,-3069.72,-57.7757,-1.55948,0
21283,790.97,780.22,762.54,770.11,775.96,-46.88,-879.39,517.09,-0.63,0.35,0.08,-389.33,4258,0,82,41.0213,7.55134,-408.512,158.386,-23634,-3129.17,-57.8539,-0.387826,0
21322,790.65,780.18,762.57,770.18,775.89,-30.27,-878.42,520.51,0.02,2.2,-2.01,-388.31,4265,0,82,40.8472,7.60233,-407.667,-236.876,-23517.8,-3182.33,-57.6888,0.581074,0
21358,790.56,780.09,762.58,770.25,775.87,-29.3,-884.28,515.14,-1.45,1.33,-0.64,-387.9,4273,0,82,40.7079,7.7623,-403.751,-497.889,-23383.3,-3268.96,-57.9152,1.23316,0
21395,790.5,780,762.42,770.17,775.77,-23.93,-888.67,513.67,1.21,-2.6,-2.25,-390.03,4280,0,82,40.5277,7.75549,-404.349,-566.02,-23325.9,-3282.58,-57.6877,1.39984,0
21431,790.68,779.95,762.5,770.13,775.81,-44.43,-890.62,525.39,0.72,2.76,-1.11,-387.64,4287,0,82,40.8478,7.2133,-404.276,-418.189,-23424.1,-3187.2,-57.9409,1.03446,0
21467,790.85,779.73,762.4,770.05,775.76,-25.88,-882.81,512.7,-0.08,-2.6,1.3,-387.68,4294,0,82,41.0442,7.40254,-404.59,-211.336,-23509.9,-3183.15,-58.108,0.522356,0
21506,791.24,779.47,762.38,769.77,775.72,-40.04,-881.35,521,-0.85,0.45,1.42,-383.19,4302,0,82,41.1285,7.5758,-404.641,118.044,-23624.3,-3093.92,-58.3834,-0.291726,0
21543,791.79,779.17,762.28,769.44,775.67,-30.27,-886.72,509.28,0.63,-2.31,1.58,-380.25,4310,0,82,40.7644,6.75023,-403.395,599.265,-23742.3,-2878.13,-58.8563,-1.48554,0
21579,792.46,778.67,762.1,768.99,775.56,-24.41,-887.21,525.88,-0.15,-2.15,-1.84,-376.46,4317,0,82,40.6144,6.12449,-403.391,1255.48,-23863.4,-2696.67,-59.157,-3.11229,0
21615,793.16,778.25,762.04,768.66,775.53,-30.27,-874.51,513.67,-0.01,-3.18,-0.53,-372.34,4324,0,82,39.8897,5.50312,-401.529,2072.51,-23836.5,-2529.76,-59.3644,-5.16178,0
21652,794,777.99,761.93,768.25,775.54,-34.18,-872.56,532.71,0.54,-1.28,-1.63,-369.85,4331,0,82,39.6605,4.65785,-399.903,2958.28,-23895.7,-2439,-59.7537,-7.39755,0
21688,794.97,777.57,761.78,767.87,775.55,-31.74,-882.32,521,2.78,-1.86,2.34,-367.88,4339,0,82,39.4056,3.74121,-398.17,4020.56,-23958.9,-2307.44,-60.1726,-10.0976,0
21727,795.97,777.25,761.71,767.44,775.59,-29.79,-881.84,529.3,0.8,-0.81,0.79,-364.17,4346,0,82,39.4817,2.80105,-397.913,5019.52,-24039,-2141.16,-60.4126,-12.6147,0
21764,796.55,776.99,761.71,767.22,775.62,-40.04,-879.88,522.46,0.04,-1.65,-1.38,-360.76,4354,0,82,39.0905,1.549,-397.222,6036.55,-24283.9,-1971.39,-61.1344,-15.1969,0
21800,797.02,776.74,761.6,767.1,775.62,-30.76,-882.81,523.44,-1.01,1.89,-0.42,-361.34,4361,0,82,38.5463,1.09513,-397.09,6675.54,-24295,-1921.83,-61.1825,-16.8111,0
21836,797.58,776.54,761.59,766.97,775.67,-38.09,-889.65,524.41,1.05,-1.37,-0.7,-360,4368,0,82,38.7503,0.80578,-394.617,7113.46,-24257.8,-1820.41,-61.472,-18.0264,0
21873,797.83,776.38,761.48,766.79,775.62,-31.74,-884.28,526.37,-1.37,1.25,-0.03,-359.56,4376,0,82,38.5784,0.705077,-396.874,7628.65,-24387.9,-1982.41,-61.45,-19.2218,0
21909,798.03,776.26,761.54,766.66,775.62,-40.04,-874.51,520.02,0.24,2.48,-0.38,-355.94,4383,0,82,38.7793,0.606466,-396.28,7937.41,-24434.5,-1854.74,-61.66,-20.0302,0
21949,798.02,776.13,761.43,766.62,775.55,-44.92,-877.44,525.39,0.55,0.95,-1.67,-357.14,4391,0,82,38.7109,1.01465,-394.064,8141.7,-24261.3,-1700.24,-61.5668,-20.6609,0
21985,798.22,776.05,761.38,766.6,775.56,-25.88,-880.86,509.77,3.32,-1.9,-1.05,-358.18,4398,0,82,38.6418,1.16913,-391.426,8172.71,-24121.1,-1658.04,-61.6235,-20.8793,0
22021,798.36,775.99,761.41,766.66,775.6,-40.04,-877.44,522.95,1.15,0.46,-1.7,-358.18,4405,0,82,38.7352,0.807133,-390.007,8242.6,-24127,-1596.95,-61.8631,-21.1345,0
22058,798.42,776.04,761.44,766.59,775.62,-41.99,-884.28,513.67,-0.66,-0.68,-0.6,-357.12,4413,0,82,38.9026,1.09739,-391.542,8359.63,-24160.8,-1571.74,-61.7068,-21.3505,0
22094,798.52,775.98,761.36,766.53,775.6,-39.55,-880.37,527.83,-1.36,-1.16,-1.02,-358.16,4420,0,82,38.9062,1.31928,-392.775,8481.14,-24288.9,-1595.19,-61.8392,-21.5928,0
22130,798.64,775.9,761.46,766.57,775.65,-31.25,-868.16,525.88,1.23,-0.32,-1.55,-356.03,4427,0,82,38.9342,1.19257,-394.067,8570.01,-24357.8,-1545.83,-61.8114,-21.7476,0
22169,798.78,775.88,761.38,766.5,775.63,-43.46,-874.51,517.58,-0.51,-0.4,-0.73,-357.13,4435,0,82,39.3145,1.25325,-394.629,8568.49,-24471.7,-1590.01,-62.012,-21.7128,0
22206,798.9,775.96,761.34,766.55,775.69,-42.97,-880.86,518.55,0.95,1.78,-2.83,-359.77,4442,0,82,39.2387,1.07136,-395.525,8654.3,-24527.4,-1623.86,-62.0121,-21.8805,0
22242,799.01,775.99,761.41,766.53,775.74,-35.64,-876.95,515.14,0.55,1.56,-1.63,-358.55,4449,0,82,39.2955,0.563901,-394.974,8774.37,-24619,-1713.04,-62.3307,-22.2151,0
22278,799.33,775.98,761.39,766.55,775.81,-33.2,-875.49,521,0.22,2.9,-3.13,-360.51,4457,0,82,39.2159,0.667061,-398.673,8806.33,-24822.9,-1721.11,-62.2637,-22.0891,0
22315,799.66,776.1,761.42,766.53,775.93,-41.99,-875.49,524.41,1.11,0.3,-1.49,-361.39,4464,0,82,39.6492,0.413353,-399.947,8944.29,-25052.7,-1693.31,-62.64,-22.3637,0
22354,800,776.14,761.46,766.48,776.02,-39.55,-875.98,525.88,0.06,4.35,-1.95,-361.17,4472,0,82,40.3004,0.342284,-405.63,9161.84,-25186.6,-1767.52,-62.0926,-22.5867,0
22390,800.18,776.12,761.48,766.47,776.07,-41.5,-891.11,514.16,0.84,2.01,1.14,-360.86,4479,0,82,40.636,0.211247,-408.7,9351.5,-25439,-1798.77,-62.2438,-22.8811,0
22427,800.01,776.08,761.4,766.4,775.97,-41.99,-885.25,527.34,0.44,1.34,0.18,-360.99,4486,0,82,40.4763,0.0263928,-410.381,9539.88,-25547.2,-1808.65,-62.2523,-23.2464,0
22463,799.88,776.17,761.39,766.37,775.95,-41.5,-893.55,518.07,-1.34,-2.53,-0.84,-361.16,4494,0,82,40.6341,-0.0183015,-408.711,9476.21,-25371.5,-1886.11,-62.077,-23.1856,0
22499,799.85,776.06,761.31,766.29,775.88,-36.62,-870.61,523.93,-0.02,-0.99,-1.74,-361.01,4501,0,82,40.4551,0.161009,-404.078,9222.01,-25034.6,-1783.22,-61.9549,-22.8223,0
22536,799.97,775.99,761.45,766.31,775.93,-46.88,-884.28,528.81,0.64,0.11,0.43,-357.43,4508,0,82,40.48,0.424263,-401.713,9182.17,-24769.7,-1925.19,-61.6601,-22.8575,0
22575,800.12,775.87,761.4,766.29,775.92,-33.69,-885.74,521.48,0.17,0.57,-0.45,-358.01,4516,0,82,40.541,0.514457,-402.094,9352.6,-24844.7,-1821.92,-61.7883,-23.2597,0
22611,800.36,775.83,761.3,766.16,775.91,-47.36,-878.91,524.9,-0.22,-0.26,0.34,-359.18,4523,0,82,41.0037,0.333479,-402.744,9507.07,-24948,-1718.38,-61.9452,-23.6058,0
22647,800.45,775.82,761.45,766.17,775.97,-41.02,-879.88,506.84,1.89,0.98,-2.49,-355.81,4530,0,82,40.9304,0.597979,-401.914,9761.04,-24975.9,-1636.71,-62.1424,-24.2863,0
22683,800.43,775.79,761.33,766.22,775.94,-42.48,-882.32,520.51,-0.93,1.11,-0.47,-359.21,4538,0,82,40.676,0.068164,-402.559,9978.15,-24989.6,-1526.07,-62.077,-24.7868,0
22719,800.36,775.72,761.35,766.16,775.9,-44.92,-867.68,524.9,-0.41,-0.11,-1.58,-357.04,4545,0,82,40.7423,0.303655,-399.77,9928.04,-24913.3,-1588.11,-62.3192,-24.8344,0
22756,800.23,775.73,761.35,766.23,775.89,-36.13,-875.49,515.14,0.31,-2.86,-2.5,-357.59,4552,0,82,40.2419,0.0866263,-401.247,9893.76,-24911.6,-1497.92,-62.0854,-24.6575,0
22795,800.12,775.82,761.43,766.28,775.91,-27.83,-878.42,517.09,3.42,-0.33,-1.65,-356.84,4560,0,82,40.4122,0.393715,-400.173,9703.69,-24973.3,-1522.29,-62.4065,-24.2487,0
22831,800.09,775.79,761.4,766.36,775.91,-41.02,-875.98,519.53,-0.4,0.76,-2.12,-358.26,4567,0,82,40.2933,0.648519,-400.881,9483.56,-24967,-1591.5,-62.2804,-23.6568,0
22867,799.95,775.85,761.41,766.37,775.9,-39.06,-880.86,513.18,-0.18,0.04,0.28,-358.25,4574,0,82,40.1901,0.949011,-401.764,9440.41,-24950.1,-1598.3,-62.1015,-23.4974,0
22904,799.65,775.86,761.39,766.43,775.83,-32.71,-880.37,513.67,-1.4,-3.26,0.26,-358.87,4582,0,82,40.0425,1.12426,-402.099,9381.53,-25044.7,-1663.92,-62.2848,-23.3313,0
22940,799.43,775.94,761.4,766.48,775.81,-37.6,-878.42,509.28,0.25,-0.15,0.28,-359.13,4589,0,82,40.2273,1.03433,-399.54,9102.15,-24822.9,-1610.93,-62.1286,-22.7815,0
22976,799.3,775.95,761.35,766.48,775.77,-34.18,-869.63,521.48,-0.51,0.85,-1.05,-359.94,4596,0,82,40.3909,1.25039,-397.719,8845.41,-24721.3,-1701.47,-62.1577,-22.2404,0
23015,798.9,775.99,761.41,766.55,775.71,-44.43,-888.18,519.04,-3.12,-2.1,0.46,-358.54,4604,0,82,40.0484,1.0404,-398.753,8746.97,-24739.6,-1705.56,-62.0425,-21.9358,0
23051,798.49,776.04,761.51,766.66,775.67,-24.41,-881.35,512.7,-1.46,2,-1.69,-356.48,4611,0,82,40.2482,1.0491,-396.569,8510.11,-24568.8,-1715.53,-61.9534,-21.4593,0
23087,798.1,776.18,761.55,766.85,775.67,-41.5,-885.25,526.86,0.36,0.37,-0.47,-358.12,4618,0,82,39.8115,1.10292,-394.134,8153.53,-24366.2,-1688.42,-61.822,-20.6872,0
23124,797.69,776.3,761.57,766.97,775.63,-35.16,-881.35,518.55,-0.98,-0.37,-1.02,-359.02,4626,0,82,39.6791,1.15477,-392.511,7777.52,-24233.9,-1671.04,-61.7406,-19.8149,0
23160,797.22,776.55,761.6,767.13,775.63,-36.13,-886.23,506.84,-0.37,-1.08,-2.9,-361.1,4633,0,82,40.0199,1.45556,-393.595,7412.66,-24185.3,-1855.6,-61.4472,-18.8332,0
23199,796.66,776.76,761.71,767.4,775.64,-26.86,-886.72,521,-1.85,0.31,-1.99,-361.94,4641,0,82,39.5978,1.66301,-393.401,6884.57,-24218.8,-1857.87,-61.5627,-17.5002,0
23235,796.1,777.01,761.81,767.6,775.63,-33.2,-893.07,506.84,-1.13,-0.34,-1.02,-362.56,4648,0,82,40.009,2.3137,-394.457,6325.96,-24094.8,-1941.6,-61.0835,-16.0371,0
23271,795.7,777.25,761.78,767.77,775.63,-47.85,-875.98,521.97,0.11,0.25,-4.71,-366.2,4655,0,82,40.0505,2.85432,-394.732,5817.45,-24034.1,-2087.49,-60.8872,-14.7377,0
23307,795.62,777.39,761.78,767.75,775.64,-34.67,-886.23,528.32,-2.69,0.56,0.3,-366.81,4662,0,82,40.358,3.56396,-395.498,5236.33,-24033.6,-2229.6,-60.768,-13.2399,0
23343,795.58,777.44,761.73,767.75,775.63,-41.99,-872.07,513.67,-0.63,-0.93,-1.53,-368.22,4670,0,82,40.812,3.79291,-398.226,5032.41,-23978.6,-2395.17,-60.2136,-12.6371,0
23380,795.5,777.48,761.78,767.75,775.63,-38.57,-889.16,520.02,-2.56,0.58,-0.73,-367.29,4677,0,82,41.4857,3.28789,-397.663,5032.6,-23914.4,-2465.15,-60.1374,-12.6555,0
23419,795.35,777.51,761.85,767.75,775.61,-32.71,-884.77,507.81,0.53,0.22,-0.64,-365.25,4685,0,82,41.9962,3.44727,-396.789,4980.49,-23746.1,-2394.19,-59.8458,-12.552,0
23455,795.37,777.57,761.83,767.69,775.61,-32.23,-885.25,522.95,-1.49,-1.45,2.03,-365.22,4692,0,82,42.4161,3.35839,-395.825,4899.76,-23685.6,-2470.39,-59.8387,-12.3786,0
23491,795.27,777.61,761.8,767.71,775.6,-33.69,-888.18,506.35,0.21,-2.33,-0.75,-366.45,4699,0,82,42.2863,3.69878,-395.634,4870.97,-23612.5,-2467.05,-59.6829,-12.3118,0
23527,795.49,777.51,761.8,767.58,775.59,-47.85,-877.93,523.44,0.43,0.59,-0.55,-364.33,4706,0,82,42.4001,3.98041,-394.478,4904.05,-23565.7,-2407.86,-59.7392,-12.4318,0
23563,795.81,777.36,761.72,767.53,775.61,-37.6,-878.42,515.14,0.44,1.85,0.27,-365.71,4714,0,82,42.7287,3.64371,-395.276,5015.22,-23630.3,-2472.09,-59.7819,-12.6879,0
23599,796.1,777.27,761.76,767.5,775.66,-50.29,-884.77,519.53,0.26,0.18,-0.93,-364.46,4721,0,82,42.7676,3.50345,-396.022,5337.95,-23919.7,-2437.97,-60.4001,-13.479,0
23638,796.32,777.14,761.78,767.5,775.68,-42.97,-880.37,521.48,-0.64,-1.44,-2.65,-363.56,4729,0,82,42.7155,3.01082,-399.314,5637.77,-24094.2,-2303.77,-60.3391,-14.1186,0
23675,796.5,777.26,761.7,767.46,775.73,-42.48,-893.55,513.67,-1.93,1.38,1.76,-366.39,4736,0,82,42.5016,2.52152,-399.609,5976.85,-24220.6,-2287.24,-60.6107,-14.957,0
23711,796.46,777.06,761.67,767.39,775.65,-41.99,-888.18,511.72,-1.14,-1.93,0.85,-364.77,4743,0,82,42.2885,2.11556,-400.489,6081.46,-24217.8,-2272.96,-60.4707,-15.1851,0
23747,796.22,777.03,761.71,767.43,775.6,-31.25,-890.14,524.41,-1.6,-0.69,0.58,-363.01,4750,0,82,42.1239,1.62006,-400.327,6228.2,-24216.5,-2195.88,-60.4918,-15.5578,0
23783,796.14,776.93,761.63,767.37,775.52,-38.09,-885.25,525.88,1.16,1.76,-0.83,-362.91,4758,0,82,42.3023,2.12913,-396.955,6089.25,-24082,-2138.88,-60.6669,-15.3399,0
23819,796.2,776.93,761.69,767.34,775.54,-45.9,-884.28,526.86,1.26,0.89,-2.47,-361.34,4765,0,82,41.9141,2.75426,-393.713,5945.23,-23882.8,-1998.29,-60.6604,-15.1004,0
23859,796.51,776.86,761.68,767.24,775.57,-36.13,-885.74,516.6,-0.29,2.4,0.85,-360.73,4773,0,82,41.9026,3.10923,-395.082,6038.27,-24005.7,-1990.51,-60.7612,-15.2836,0
23895,796.77,776.72,761.66,767.33,775.62,-25.88,-888.67,516.11,-1.51,0.58,-1.41,-362.29,4780,0,82,42.0733,2.87193,-396.783,6281.54,-24180.4,-1878.94,-60.941,-15.8311,0
23931,796.98,776.69,761.64,767.22,775.63,-32.23,-883.79,513.67,-1.25,-1.05,-0.44,-361.61,4787,0,82,41.7711,1.91652,-398.026,6557.55,-24425.7,-1890.07,-61.3672,-16.4751,0
23970,797.08,776.54,761.59,767.2,775.6,-32.23,-898.93,504.88,-1.02,-0.2,2.92,-361.57,4795,0,82,41.1004,0.994741,-400.876,6887.85,-24610.4,-1847.22,-61.3916,-17.182,0
24006,797.27,776.43,761.55,767.17,775.61,-33.2,-880.86,521.48,-0.61,1.41,0.57,-362.09,4802,0,82,41.2383,0.539601,-398.665,6995,-24612.6,-1841.95,-61.7376,-17.546,0
24042,797.26,776.35,761.6,767.1,775.58,-29.79,-881.84,522.46,-1,0.21,-1.4,-359.18,4809,0,82,40.4495,-0.228028,-399.01,7196.52,-24630,-1693.72,-61.7279,-18.0359,0
24081,797.29,776.24,761.45,767.08,775.51,-41.02,-875.98,527.34,1.12,0.66,0.47,-361.77,4817,0,82,40.8273,-0.356336,-398.438,7320.53,-24778.8,-1680.21,-62.1899,-18.3731,0
24118,797.36,776.19,761.49,767.05,775.52,-25.88,-865.72,507.81,-0.45,0.44,-1.55,-360.16,4825,0,82,40.7834,0.176065,-398.936,7373.3,-24690.9,-1698.3,-61.892,-18.4824,0
24154,797.51,776.11,761.48,766.96,775.51,-45.41,-879.88,503.42,-0.63,0.74,-1.08,-359.04,4832,0,82,40.2158,0.100678,-395.524,7372,-24501,-1581.03,-61.9459,-18.6387,0
24190,797.86,775.95,761.43,766.92,775.54,-41.99,-879.39,530.76,0.44,0.38,2.25,-359.54,4839,0,82,40.192,0.461355,-396.609,7504,-24599.1,-1664.75,-62.0236,-18.9203,0
24226,798.2,775.9,761.43,766.87,775.6,-41.02,-878.42,517.58,-0.66,0.59,-2.81,-359.33,4846,0,82,40.3242,-0.102451,-397.407,7832.67,-24685.9,-1425.68,-62.1176,-19.7095,0
24265,798.58,775.64,761.42,766.84,775.62,-35.16,-878.91,525.39,-1.31,-0.04,0.47,-358.69,4854,0,82,40.4123,-0.673881,-398.733,8193.82,-24883.9,-1198.36,-62.4075,-20.5496,0
24300,799.21,775.59,761.32,766.79,775.73,-25.39,-884.28,527.34,1.03,-1.5,1.4,-362.13,4861,0,82,39.78,-0.56376,-399.921,8528.33,-24979.8,-963.073,-62.4618,-21.3251,0
24337,799.72,775.55,761.43,766.72,775.85,-34.67,-874.02,529.3,0.48,-2.11,-1,-359.77,4868,0,82,40.2589,-0.9214,-400.701,8981.64,-25106.4,-881.261,-62.6562,-22.4147,0
24372,799.97,775.63,761.36,766.66,775.9,-44.92,-869.14,522.46,1.52,-0.92,1.6,-362,4875,0,82,40.5925,-0.926297,-405.599,9406.17,-25456.9,-854.599,-62.7638,-23.1909,0
24408,800.16,775.51,761.32,766.64,775.91,-35.64,-898.93,527.83,0.02,-0.18,-1.99,-362.62,4883,0,82,40.7003,-1.42511,-408.053,9698.42,-25688.7,-862.352,-62.9544,-23.7675,0
24444,800.35,775.63,761.36,766.61,775.99,-33.69,-881.84,523.44,-0.18,0.74,-0.06,-362.71,4890,0,82,40.5255,-1.5817,-410.163,9835.19,-25857,-876.224,-63.0407,-23.9788,0
24483,800.53,775.68,761.38,766.55,776.04,-36.62,-873.54,521.97,-2.03,-1.11,-2.79,-362.35,4898,0,82,41.148,-1.72358,-410.073,9936.45,-25839.6,-1063.55,-63.0125,-24.2309,0
24519,800.54,775.63,761.46,766.59,776.06,-33.69,-876.95,510.25,-1.02,2.39,0.07,-360.58,4905,0,82,41.498,-2.18597,-412.043,10026.7,-25809.6,-999.036,-62.6382,-24.3341,0
24555,800.4,775.62,761.41,766.58,776.01,-42.48,-884.77,522.95,0.37,-1.11,-1.27,-361.07,4912,0,82,41.5074,-2.08788,-410.434,10078.7,-25761.6,-1105.44,-62.7667,-24.5563,0
24591,800.36,775.63,761.41,766.57,775.99,-41.99,-891.11,528.32,-0.93,0.44,-2.11,-360.95,4919,0,82,41.5243,-1.8634,-411.033,9992.17,-25730.5,-1141.51,-62.5996,-24.3099,0
24627,800.31,775.66,761.37,766.63,775.99,-43.95,-884.77,530.27,0.05,0.63,-2.04,-362.91,4926,0,82,41.543,-1.75933,-409.464,9907.27,-25723.3,-1267.3,-62.8218,-24.1957,0
24663,800.1,775.61,761.46,766.54,775.93,-37.11,-876.46,515.62,-0.09,0.17,-0.51,-357.98,4934,0,82,41.7309,-1.60665,-409.998,9807.14,-25710.1,-1259.59,-62.708,-23.92,0
24702,799.82,775.58,761.45,766.55,775.85,-28.81,-875.49,520.51,-0.19,2.58,-1.36,-357.4,4941,0,82,41.4607,-0.823199,-408.453,9626.94,-25583.6,-1132.59,-62.6353,-23.5693,0
24738,799.63,775.58,761.35,766.5,775.77,-47.85,-884.77,521.97,-0.6,0.78,1.38,-358.6,4949,0,82,40.8881,-0.772792,-403.731,9412.76,-25342.5,-1163.24,-62.7709,-23.3146,0
24774,799.67,775.53,761.41,766.5,775.78,-40.04,-891.6,521,-0.35,0.27,0.53,-356.76,4956,0,82,40.5636,-0.527216,-401.414,9301.16,-25094.3,-1062.21,-62.5147,-23.171,0
24810,799.59,775.45,761.35,766.47,775.71,-35.64,-870.12,512.21,-0.92,3.15,0.53,-356.68,4963,0,82,40.3646,-1.12754,-398.789,9298.62,-24982.2,-1065.29,-62.6454,-23.3172,0
24847,799.66,775.49,761.44,766.48,775.77,-30.76,-884.77,525.39,0.08,-3.9,-0.63,-355.34,4970,0,82,40.2741,-1.08442,-399.254,9328.78,-25085,-1080.87,-62.8297,-23.3655,0
24884,799.79,775.55,761.32,766.53,775.8,-39.55,-880.37,507.81,-0.47,1.54,-0.51,-359.77,4978,0,82,39.8195,-1.37008,-397.904,9387.57,-24940.2,-1101.11,-62.6792,-23.5925,0
24923,799.85,775.47,761.34,766.46,775.78,-43.95,-872.07,521.48,-0.69,1.02,-1.47,-357.83,4986,0,82,40.2192,-1.15252,-399.606,9414.29,-25080.2,-1034.81,-62.7622,-23.559,0
24959,799.76,775.56,761.37,766.5,775.8,-30.76,-891.6,527.83,-1.37,0.92,-1.8,-358.06,4993,0,82,39.8396,-1.07557,-400.375,9570.31,-25167.4,-1089.98,-62.8597,-23.9034,0
24995,799.51,775.53,761.43,766.51,775.74,-53.71,-874.51,524.9,0.29,0.04,-2.84,-355.7,5000,0,82,40.0758,-0.846603,-402.48,9490.81,-25109.7,-1120.75,-62.3874,-23.5808,0
25031,799.29,775.51,761.43,766.57,775.7,-40.53,-884.28,525.39,-0.8,2.37,-0.18,-355.63,5007,0,82,39.4067,-0.65075,-400.1,9349.83,-24965.9,-1102.02,-62.3993,-23.3687,0
25068,799.35,775.5,761.37,766.51,775.68,-25.88,-877.44,518.55,0.59,0.14,-0.56,-356.56,5015,0,82,39.4628,0.103581,-396.887,9039.4,-24787.3,-1285.88,-62.4544,-22.7757,0
25107,799.68,775.49,761.34,766.44,775.74,-38.09,-869.14,527.83,0.17,2.89,-0.16,-357.18,5022,0,82,39.5257,0.486002,-395.847,8974.65,-24756.2,-1249.49,-62.5398,-22.6721,0
25143,800.1,775.37,761.31,766.39,775.79,-48.83,-876.46,514.16,1.15,0.56,1.29,-357.67,5030,0,82,39.7477,0.438898,-396.595,9200.92,-24819.3,-1252.58,-62.581,-23.1998,0
25179,800.38,775.27,761.3,766.31,775.82,-51.27,-873.05,520.51,-1.18,-0.24,-1.92,-357.03,5037,0,82,39.8685,-0.0402793,-400.352,9622.53,-24988.7,-1150.5,-62.4169,-24.0351,0
25216,800.58,775.12,761.27,766.23,775.8,-45.9,-863.28,516.11,-0.63,0.07,0.26,-356.2,5044,0,82,39.8502,-0.502592,-401.58,9998.76,-25177.6,-1058.3,-62.6962,-24.8986,0
25252,801.03,774.97,761.26,766.16,775.85,-47.36,-875.49,512.21,-0.11,-1,0.69,-355.69,5051,0,82,39.8605,-0.440203,-401.49,10223.7,-25197.9,-1032.57,-62.761,-25.4644,0
25288,801.22,774.95,761.29,766.21,775.92,-40.04,-882.81,525.39,0.21,-0.48,-0.08,-356.23,5059,0,82,39.7943,-0.553648,-401.593,10615.5,-25392.7,-852.509,-63.2299,-26.4335,0
25327,801.55,774.87,761.19,766.11,775.93,-42.48,-884.77,526.37,0.8,0.67,-1.73,-357.61,5066,0,82,39.8753,-0.912171,-404.15,10910.6,-25545.8,-774.71,-63.2088,-26.9963,0
25364,801.54,774.85,761.25,766.13,775.94,-54.2,-883.79,525.39,-0.38,1.58,-1.21,-356.18,5074,0,82,39.7348,-0.660156,-405.5,11093,-25760.9,-786.62,-63.5287,-27.3563,0
25400,801.56,774.84,761.27,766.15,775.95,-39.06,-872.07,529.79,-0.38,2.35,-1.16,-355.97,5081,0,82,40.2077,-0.617707,-407.5,11109.1,-25757.9,-860.177,-63.2095,-27.2615,0
25436,801.45,774.83,761.28,766.12,775.92,-43.46,-874.51,524.41,1.95,0.06,1.76,-354.81,5088,0,82,40.404,-0.681229,-405.729,11127.5,-25769,-783.515,-63.5129,-27.4258,0
25472,801.56,774.89,761.25,766.09,775.95,-39.06,-877.44,526.86,0.44,-0.83,-0.36,-356.02,5095,0,82,40.5274,-0.4066,-405.756,10928,-25698.8,-713.38,-63.3359,-26.9325,0
25509,801.67,774.89,761.3,766.16,776,-44.43,-878.91,515.14,-0.59,-2.4,-2.05,-356.05,5103,0,82,40.2096,-0.698962,-404.921,10912,-25627.3,-752.059,-63.2896,-26.9485,0
25548,801.58,775.06,761.31,766.35,776.08,-45.9,-878.91,521.97,0.28,-1.34,-2.18,-359.67,5111,0,82,40.0304,-0.847478,-405.739,11038.9,-25649.9,-842.807,-63.2177,-27.207,0
25584,800.98,775.25,761.31,766.43,776,-59.57,-871.09,513.67,-2.47,0.27,-0.94,-360.37,5118,0,82,40.2852,-1.19923,-406.118,10876.5,-25651.9,-797.504,-63.1637,-26.7816,0
25621,800.52,775.4,761.49,766.55,775.99,-42.97,-880.86,525.88,-1.99,-0.09,-0.96,-357.29,5125,0,82,40.3701,-1.05187,-406.394,10548.3,-25536.9,-821.837,-62.8377,-25.9559,0
25657,800.2,775.53,761.46,766.61,775.95,-49.8,-879.88,523.93,0.27,0.73,0.18,-358.8,5132,0,82,40.5397,-0.658164,-405.97,9970.56,-25435.9,-1046.27,-62.6545,-24.5598,0
25693,799.82,775.61,761.45,766.67,775.89,-39.06,-889.16,515.14,1.47,0.98,-1.33,-359.35,5140,0,82,40.6286,0.2269,-404.167,9447.93,-25228.1,-1115.38,-62.42,-23.3763,0
25730,799.95,775.62,761.42,766.65,775.91,-40.53,-883.3,517.58,-2.03,-1.35,-0.82,-360.24,5147,0,82,39.8977,0.636276,-402.624,9102.62,-25011.7,-1144.59,-62.1217,-22.6082,0
25769,800.06,775.62,761.36,766.69,775.93,-44.43,-883.79,523.93,1.82,-1.16,-1.46,-362.91,5155,0,82,40.0149,0.730384,-402.332,9026.85,-25085.5,-1273.05,-62.3502,-22.4363,0
25806,799.97,775.66,761.34,766.64,775.9,-45.41,-882.32,529.3,-0.32,-1.75,0.43,-362.65,5162,0,82,39.9891,0.110767,-403.555,9246.03,-25112.8,-1098.69,-62.2288,-22.9115,0
25842,800.01,775.66,761.39,766.62,775.92,-20.51,-876.46,531.25,0.14,-2.46,-0.56,-361.11,5169,0,82,40.2663,0.28209,-404.132,9199.9,-25261.9,-1198.3,-62.5094,-22.7646,0
25879,800,775.51,761.38,766.57,775.87,-37.6,-874.51,525.88,0.27,0.34,-2.17,-359.3,5177,0,82,40.3359,-0.0865904,-405.048,9256.73,-25170.8,-1092.9,-62.1428,-22.8534,0
25915,800.08,775.47,761.42,766.53,775.88,-39.06,-891.11,524.41,-0.92,0.75,-4.94,-357.66,5184,0,82,40.2108,0.137052,-402.802,9326.14,-25171.4,-1039.77,-62.4911,-23.1533,0
25951,800.28,775.44,761.34,766.41,775.87,-39.06,-872.56,519.04,0.73,0.8,2.42,-358.35,5191,0,82,39.7905,-0.10471,-402.919,9347.79,-25095.9,-998.587,-62.2852,-23.2002,0
25990,800.57,775.37,761.37,766.5,775.95,-33.2,-884.28,516.11,-0.52,-1.15,-0.53,-359.4,5199,0,82,39.6024,0.0184382,-400.837,9490.5,-25115.4,-1050.08,-62.6574,-23.6767,0
26027,800.5,775.42,761.38,766.37,775.92,-36.13,-871.09,528.32,0.54,0.78,-0.96,-357.61,5206,0,82,39.843,-0.608727,-402.786,9834.35,-25152.8,-878.665,-62.4471,-24.4159,0
26063,800.41,775.36,761.41,766.47,775.91,-34.18,-886.23,515.62,-1.47,1.28,-0.89,-357.6,5214,0,82,39.8734,-0.777568,-402.721,9952,-25193.5,-974.51,-62.5584,-24.712,0
26099,800.21,775.37,761.4,766.41,775.85,-38.09,-891.6,528.32,0.49,0.47,-2.53,-356.11,5221,0,82,39.7904,-0.785313,-402.478,9840.65,-25152.7,-921.494,-62.4947,-24.4502,0
26135,800.01,775.45,761.43,766.47,775.84,-40.53,-885.25,517.09,-1.68,-1.32,0.32,-356.05,5228,0,82,39.9336,-0.292045,-402.034,9730.08,-24992.3,-958.815,-62.1647,-24.2021,0
26174,799.86,775.46,761.4,766.55,775.82,-46.39,-869.14,535.64,0.9,-2.18,-2.02,-357.89,5236,0,82,39.7226,0.182899,-400.299,9414.1,-24940.9,-1050.89,-62.3056,-23.5176,0
26210,799.92,775.39,761.41,766.5,775.81,-25.39,-882.32,525.39,0.87,2.13,0.79,-356.55,5243,0,82,38.9467,0.239079,-398.019,9276.05,-24853.6,-1081.39,-62.4434,-23.3056,0
26246,800.01,775.44,761.39,766.45,775.82,-31.25,-882.81,518.55,-2.14,1.45,-1.24,-357.03,5250,0,82,38.8058,0.378125,-397.682,9342.96,-24830.4,-1207.23,-62.438,-23.4935,0
26283,800.06,775.5,761.35,766.4,775.83,-36.62,-870.12,527.83,1.77,0.7,-2.34,-357.79,5258,0,82,38.8872,-0.136664,-399.304,9392.54,-24936.2,-1102.2,-62.4492,-23.5223,0
26319,799.95,775.39,761.39,766.42,775.79,-41.02,-879.39,523.44,0.66,-0.41,-0.89,-355.82,5265,0,82,38.8827,-0.502469,-397.239,9513.8,-24961,-1226.8,-62.8365,-23.9497,0
26355,799.71,775.46,761.38,766.44,775.75,-40.04,-877.44,513.67,-0.18,3.4,-0.08,-356.09,5272,0,82,39.0529,-0.63877,-397.937,9481.79,-24888.6,-1242.49,-62.544,-23.8273,0
26394,799.48,775.58,761.41,766.49,775.74,-40.04,-888.67,517.09,1.93,0.04,-0.95,-356.43,5280,0,82,39.3903,-0.624591,-395.31,9327.73,-24745.8,-1408.97,-62.5985,-23.596,0
26430,799.7,775.61,761.38,766.47,775.79,-38.57,-880.37,525.39,1.85,-0.84,-2.46,-357.84,5287,0,82,39.4615,-0.228714,-394.531,9036.54,-24574.1,-1404.57,-62.2869,-22.9045,0
26466,800,775.72,761.42,766.5,775.91,-38.57,-884.28,531.25,0.34,-0.02,-1.09,-359.1,5294,0,82,39.8679,-0.336155,-396.708,9010,-24668.7,-1478.85,-62.1835,-22.7119,0
26503,800.12,775.73,761.43,766.46,775.93,-37.11,-877.44,524.9,-1.26,-0.31,1.12,-358.55,5302,0,82,40.0386,-0.524232,-401.814,9243.78,-24989.5,-1404.55,-62.1919,-23.0051,0
26539,799.78,775.77,761.4,766.59,775.88,-36.62,-877.44,522.95,0.04,1.63,-1.7,-360.6,5309,0,82,40.1679,-0.437361,-404.884,9421.24,-25219.3,-1543.22,-62.2877,-23.269,0
26575,799.56,775.79,761.42,766.62,775.85,-42.48,-875.49,520.51,-1.44,1.34,0.03,-360.04,5316,0,82,39.8531,-0.424818,-402.979,9218.29,-25073.9,-1497.57,-62.2214,-22.8753,0
26614,799.26,775.81,761.52,766.77,775.84,-29.3,-891.6,517.58,0.15,2.25,-0.89,-358.59,5324,0,82,39.9859,0.142917,-400.016,8982.12,-24805.8,-1400.32,-62.0119,-22.4544,0
26651,799.02,775.96,761.48,766.88,775.84,-35.16,-874.51,522.95,0.55,-1.71,-0.85,-361.65,5331,0,82,40.1883,0.0496374,-399.041,8777.49,-24728.9,-1483.32,-61.971,-21.9965,0
26687,798.64,776.23,761.55,767.13,775.89,-44.43,-890.62,558.59,1.15,0.69,-1.85,-364.42,5338,0,82,39.9134,0.528221,-399.714,8447.84,-24708.7,-1407.48,-61.816,-21.1347,0
26723,798.14,776.39,761.58,767.42,775.88,-30.27,-885.74,504.39,-1.55,-0.26,-1.48,-367.67,5346,0,82,40.3223,0.584808,-400.962,8130.27,-24798.5,-1470.59,-61.8475,-20.277,0
26760,797.33,776.66,761.72,767.55,775.82,-32.23,-876.95,519.53,0.35,-4.04,-3.51,-365.49,5353,0,82,40.7553,1.12275,-403.271,7536.37,-24797.5,-1566.41,-61.4909,-18.688,0
26799,796.41,776.89,761.72,767.8,775.71,-41.99,-875,513.18,-0.31,1.32,-1.16,-367.82,5361,0,82,40.5589,1.74799,-401.64,6743.91,-24658.2,-1696.44,-61.394,-16.7911,0
26838,795.85,776.97,761.73,767.93,775.62,-37.11,-880.86,527.34,2.01,-0.07,-1.73,-368.19,5369,0,82,40.3403,2.36938,-400.663,5957.91,-24414.1,-1787.11,-60.9342,-14.8701,0
26875,795.73,777.17,761.83,768.04,775.69,-38.09,-887.21,520.51,-0.88,4.41,2.33,-368.67,5376,0,82,40.2054,2.78547,-396.956,5313.79,-24112.3,-1887.54,-60.743,-13.3862,0
26911,795.81,777.29,761.91,768.09,775.78,-43.95,-880.86,520.02,1.03,1.19,0.31,-368.43,5383,0,82,40.7258,2.35213,-399.696,5133.31,-24144.7,-1977.84,-60.4078,-12.8431,0
26947,795.9,777.38,761.81,768.06,775.79,-46.88,-872.07,504.39,0.23,0.11,0.92,-371.67,5390,0,82,41.0844,2.52116,-402.405,5118.62,-24346.7,-2099.55,-60.5029,-12.7202,0
26984,795.81,777.29,761.84,768.14,775.77,-31.25,-882.32,518.07,-0.47,-0.28,1.84,-370.88,5398,0,82,41.6341,2.80324,-405.308,5120.9,-24509.9,-2065.19,-60.4724,-12.6346,0
27020,795.69,777.33,761.9,767.95,775.72,-37.6,-879.39,527.34,-1.05,-0.19,-1.88,-366.5,5405,0,82,41.0406,2.72368,-404.634,5174.11,-24451,-2133.94,-60.4275,-12.7871,0
27059,795.66,777.31,761.82,767.89,775.67,-33.2,-872.07,524.9,-0.56,-0.03,-0.31,-367.43,5413,0,82,41.0232,2.54941,-402.327,5130.96,-24326.4,-2111.74,-60.4643,-12.7532,0
27095,795.71,777.17,761.77,767.78,775.61,-48.83,-882.81,515.62,-1.04,1.76,1.41,-366.15,5420,0,82,41.1116,2.48746,-400.602,5100.82,-24150.2,-2148.35,-60.2849,-12.7329,0
27131,795.6,776.98,761.8,767.65,775.51,-31.25,-882.81,521.48,-1.3,0.2,0.58,-361.57,5427,0,82,40.7923,2.18045,-398.43,5268.45,-24126.6,-2078.78,-60.5543,-13.2231,0
27168,795.61,776.88,761.77,767.58,775.46,-43.46,-869.14,528.81,0.97,-2.81,-1.41,-360.66,5435,0,82,39.9417,1.91496,-393.843,5383.17,-23792.3,-1846.73,-60.4106,-13.6683,0
27204,795.77,776.78,761.77,767.61,775.48,-36.13,-877.93,505.37,-1.21,0.8,0.65,-360.82,5442,0,82,39.6312,1.7739,-388.634,5482.15,-23565.8,-1816.75,-60.6376,-14.1063,0
27243,796.09,776.82,761.64,767.65,775.55,-36.62,-891.6,514.16,0.34,-2.03,0.38,-365.86,5450,0,82,39.271,1.93823,-388.954,5664.93,-23627.8,-1657.01,-60.7469,-14.5645,0
27279,796.41,776.72,761.71,767.62,775.62,-26.37,-884.77,522.95,0.81,-1.5,-0.74,-363.86,5457,0,82,39.321,2.40664,-391.677,5858.59,-23912.1,-1599.62,-61.0507,-14.9577,0
27316,796.86,776.6,761.67,767.62,775.69,-34.18,-884.28,527.83,2.01,-1.5,-1.07,-365.42,5464,0,82,39.4233,2.35618,-396.391,6157.29,-24234.4,-1539.4,-61.1377,-15.5333,0
27352,797.17,776.48,761.65,767.44,775.68,-46.88,-888.67,516.6,0.89,1.61,1.21,-363.61,5471,0,82,39.8795,1.63445,-399.603,6462.96,-24476.7,-1383.28,-61.2526,-16.1734,0
27388,797.62,776.32,761.61,767.34,775.72,-35.16,-888.18,522.46,-0.21,-0.01,-2.27,-363.37,5479,0,82,39.7734,1.32759,-400.896,6899.77,-24652.4,-1311.89,-61.4934,-17.2109,0
27424,797.98,776.2,761.51,767.08,775.7,-37.11,-875,522.46,-0.02,2.06,0.12,-362.29,5486,0,82,39.5667,1.04036,-400.802,7239.52,-24705.2,-1224.76,-61.6394,-18.0626,0
27463,798.5,775.97,761.51,766.99,775.74,-34.18,-888.67,519.04,-0.44,-1.87,-0.25,-360.97,5494,0,82,39.4558,0.201065,-400.345,7699.11,-24739.2,-1078.65,-61.7945,-19.2311,0
27500,798.9,775.9,761.46,766.87,775.78,-50.78,-881.35,513.67,0.28,1.1,1.73,-361.04,5501,0,82,39.5835,-0.260901,-400.672,8198.76,-24810.4,-1089.77,-61.9219,-20.4626,0
27536,799.27,775.79,761.41,766.65,775.78,-37.6,-878.42,528.81,-1.92,1.27,-0.05,-359.59,5508,0,82,39.5462,-0.613176,-400.06,8611.61,-24810.4,-965.462,-62.0169,-21.5258,0
27572,799.72,775.7,761.4,766.61,775.86,-49.32,-887.7,517.58,1.29,2.53,-2.18,-360.05,5515,0,82,39.4564,-0.852214,-400.16,8919.41,-24886.7,-1059.98,-62.1919,-22.2896,0
27609,799.91,775.65,761.41,766.52,775.87,-42.48,-887.21,542.48,0.27,0.28,-0.62,-358.86,5523,0,82,40.022,-1.28452,-402.142,9433.85,-24980.6,-968.608,-62.1189,-23.459,0
27645,800.16,775.63,761.38,766.56,775.93,-42.48,-878.91,512.21,0.56,0.27,-1.01,-360.81,5530,0,82,39.7605,-1.76665,-402.865,9652.86,-25011.1,-978.142,-62.0831,-23.9606,0
27683,800.38,775.66,761.4,766.49,775.98,-30.27,-894.53,521.97,0.75,-2.22,-0.41,-360.2,5538,0,82,39.9348,-1.54156,-402.713,9824.54,-25008.3,-948.398,-62.0995,-24.3959,0
27719,800.49,775.71,761.4,766.56,776.04,-39.55,-876.46,529.79,-1.18,2.08,1.95,-362.15,5545,0,82,39.9529,-1.3827,-405.831,9973.41,-25214.8,-973.787,-62.1314,-24.5753,0
27756,800.48,775.69,761.33,766.5,776,-32.23,-888.18,519.04,-3.74,-0.86,-0.89,-362.66,5552,0,82,40.4351,-1.83161,-405.485,10075.4,-25284.5,-861.103,-62.3563,-24.8479,0
27792,800.45,775.65,761.3,766.49,775.97,-41.02,-881.84,526.37,-1.75,-2.54,0.23,-362.9,5559,0,82,40.4191,-1.33419,-406.741,10076,-25330.2,-900.397,-62.2761,-24.7725,0
27828,800.31,775.76,761.39,766.51,775.99,-33.69,-874.02,523.93,-0.11,0.2,0.82,-361.28,5567,0,82,40.6401,-1.62956,-406.424,10063.9,-25236.8,-1115.46,-62.0948,-24.7622,0
27864,800.18,775.85,761.44,766.54,776,-45.9,-881.35,515.62,-1.47,1.68,-1.75,-360.88,5574,0,82,40.8385,-0.983092,-405.207,9900.55,-25114.3,-996.598,-61.979,-24.4332,0
27903,800.04,775.78,761.42,766.55,775.95,-39.06,-875,519.04,-1.98,-1.83,0.92,-360.56,5582,0,82,40.4246,-0.815705,-403.545,9655.93,-24944,-1153.25,-61.8123,-23.9278,0
27939,800.03,775.88,761.34,766.6,775.96,-41.99,-887.7,512.21,0.95,1.17,-1.34,-363.85,5589,0,82,40.2117,-0.481361,-402.9,9513.26,-24966.1,-1171.6,-61.9662,-23.612,0
27975,800,775.89,761.4,766.58,775.97,-46.39,-872.07,530.27,1.05,-2.82,-0.73,-362.06,5596,0,82,40.6588,-0.494647,-403.684,9431.03,-24881.1,-1219.61,-61.6349,-23.3624,0
28011,799.97,775.97,761.39,766.68,776,-50.78,-872.56,524.9,0.51,-0.92,-1.48,-364.46,5603,0,82,40.5688,-0.518098,-403.364,9404.47,-24887.7,-1276.85,-61.7004,-23.3151,0
28047,800.12,775.93,761.43,766.56,776.01,-28.32,-871.58,519.53,-1.04,0.04,-1.57,-361.74,5610,0,82,40.7599,-0.432947,-404.313,9352.8,-24985.8,-1339.19,-61.7983,-23.1326,0
28086,800.1,775.84,761.5,766.57,776,-40.53,-873.54,527.34,0.41,-0.15,-1.85,-359.57,5618,0,82,40.7345,-0.582661,-403.653,9383.28,-24920.5,-1213.11,-61.7375,-23.246,0
28123,800.15,775.93,761.43,766.6,776.03,-27.83,-876.46,509.28,-0.85,-0.89,-0.19,-362.44,5626,0,82,40.5173,-0.942819,-404.625,9495.78,-24970.1,-1071.57,-61.7119,-23.4681,0
28159,800.12,775.89,761.46,766.58,776.01,-42.97,-886.72,520.51,-0.53,0.11,-0.61,-361.02,5633,0,82,40.4034,-0.890538,-403.322,9453.11,-24931.5,-1052.29,-61.8156,-23.4382,0
28195,800.26,775.81,761.48,766.59,776.03,-37.11,-868.65,523.44,0.37,0.02,-0.97,-360.63,5640,0,82,40.5975,-0.573277,-404.328,9436.01,-24896.8,-1121.64,-61.5758,-23.3378,0
28232,800.39,775.82,761.41,766.57,776.05,-23.44,-893.07,518.07,-0.13,0.6,-2.62,-362.39,5647,0,82,40.6189,-0.460833,-405.702,9487.47,-25040.4,-1061.43,-61.7213,-23.3855,0
28268,800.43,775.83,761.43,766.57,776.06,-38.09,-878.91,529.79,-0.1,-0.78,-3.43,-362.25,5655,0,82,40.1821,-0.465564,-407.921,9780.92,-25286.1,-1155.06,-61.9878,-23.9775,0
28307,800.43,775.89,761.4,766.48,776.05,-43.95,-875.49,518.07,2.11,-0.11,0.93,-362.18,5662,0,82,40.2946,-0.653507,-407.809,9806.88,-25314.2,-1041.76,-62.0736,-24.0477,0
28343,800.52,775.84,761.4,766.57,776.08,-33.69,-879.88,515.62,-1,-0.44,0.21,-363.35,5670,0,82,40.9662,-0.732594,-407.11,9833.3,-25283.9,-999.146,-62.106,-24.1539,0
28379,800.56,775.77,761.43,766.51,776.07,-33.2,-870.12,520.51,-1.01,-0.1,-2.54,-361.36,5677,0,82,40.587,-0.852732,-407.263,9926.57,-25259.7,-1118.88,-62.023,-24.3738,0
28416,800.53,775.82,761.41,766.59,776.08,-39.55,-872.56,516.6,-0.79,1.02,-0.76,-363.27,5684,0,82,40.7911,-1.17925,-407.312,9888.17,-25309.2,-1221.33,-62.1371,-24.2766,0
28452,800.54,775.83,761.45,766.56,776.09,-42.97,-873.54,513.67,-0.08,1.34,-1.63,-361.95,5691,0,82,40.8163,-0.938853,-407.884,9861.77,-25320.1,-1134.91,-62.0767,-24.1779,0
28488,800.43,775.9,761.43,766.58,776.08,-47.36,-877.93,519.53,-2.58,0.93,-0.98,-362.83,5699,0,82,40.5751,-0.751924,-408.278,9853.42,-25341.7,-1284.69,-62.0698,-24.1341,0
28527,800.42,775.84,761.49,766.58,776.08,-38.57,-882.32,520.02,-0.48,-0.12,0.21,-361.02,5706,0,82,40.514,-0.851001,-409.464,9850.44,-25410.2,-1322.63,-62.0574,-24.057,0
28563,800.14,775.93,761.53,766.7,776.08,-33.2,-883.79,535.64,0.16,-1.37,-0.21,-361.47,5714,0,82,40.8499,-0.62104,-407.889,9750.9,-25352.7,-1270.7,-62.1561,-23.9058,0
28600,800.04,775.84,761.42,766.68,776,-33.2,-875.98,526.86,1.3,0.44,1.64,-362.96,5721,0,82,40.6916,-0.688852,-408.036,9565.83,-25282.4,-1346.5,-61.9613,-23.4437,0
28636,800.08,775.9,761.47,766.73,776.04,-35.64,-880.86,526.86,-0.57,2.43,0.82,-362.83,5728,0,82,40.4653,-0.529938,-405.48,9370.17,-25190.6,-1243.35,-62.1254,-23.1088,0
28673,800.01,775.84,761.47,766.74,776.01,-46.88,-880.86,520.51,-1.76,1.18,0.6,-362.4,5736,0,82,40.7225,-0.818967,-406.626,9341.88,-25159.1,-1197.53,-61.8729,-22.9741,0
28709,799.98,775.8,761.49,766.79,776.01,-33.2,-874.02,521,0.08,-0.7,-1.09,-362.11,5743,0,82,40.4318,-0.746251,-406.487,9285.63,-25150.7,-1151.82,-61.8734,-22.8436,0
28749,799.76,775.92,761.48,766.74,775.98,-33.2,-881.35,523.93,0.77,-1.23,0.04,-362,5751,0,82,40.3102,-0.754023,-406.013,9320.65,-25127.7,-1126.55,-61.8889,-22.9565,0
28785,799.52,775.86,761.49,766.76,775.91,-39.06,-880.37,521,-0.98,-1.05,-1.92,-360.55,5758,0,82,40.2725,-0.715199,-405.258,9234.61,-25063.5,-1094.35,-61.8457,-22.787,0
28821,799.35,775.82,761.48,766.74,775.85,-44.43,-875,523.93,-1.77,-0.21,-2.11,-359.79,5765,0,82,39.8804,-0.404547,-403.191,9098.9,-24875.1,-1102.68,-61.6956,-22.5673,0
28858,799.2,775.89,761.42,766.75,775.82,-29.3,-873.54,523.44,0.98,-2.36,-1.24,-361.28,5773,0,82,39.7933,-0.433832,-401.586,8878.96,-24811,-1259.7,-61.7827,-22.1097,0
28894,799.22,775.95,761.45,766.65,775.82,-36.13,-883.3,527.34,-1.59,1.04,-1.15,-359.62,5780,0,82,39.9482,0.124216,-399.154,8668.68,-24717.1,-1168.88,-61.9236,-21.7176,0
28933,799.26,775.88,761.45,766.63,775.8,-39.55,-884.28,521,-0.49,-0.58,-0.11,-359.1,5788,0,82,40.0117,0.296748,-397.891,8708.51,-24648.9,-1292.4,-61.949,-21.8867,0
28969,799.26,775.88,761.44,766.62,775.8,-41.99,-887.7,523.93,1.34,0.97,1.08,-359.18,5795,0,82,39.8309,0.0794249,-397.321,8771.98,-24603.8,-1156.12,-61.9243,-22.0778,0
29006,799.24,775.82,761.49,766.67,775.8,-48.83,-881.84,525.88,-0.04,2.53,1.01,-358.04,5802,0,82,40.2719,-0.495174,-397.008,8851.75,-24597.8,-1354.55,-61.958,-22.2962,0
29042,799.23,775.83,761.42,766.52,775.75,-44.43,-880.86,529.79,1.69,2.31,-1.58,-357.71,5809,0,82,40.2818,-0.405119,-395.126,8862.35,-24517.6,-1309.56,-62.0501,-22.4293,0
29078,799.23,775.78,761.44,766.66,775.77,-33.2,-875.98,526.37,-1,-0.18,-0.33,-358.76,5817,0,82,40.5252,-0.0543442,-396.375,8874.74,-24483.9,-1317.79,-61.7695,-22.3898,0
29115,799.38,775.8,761.34,766.59,775.78,-40.04,-881.84,520.51,0.86,-0.51,1.96,-361.06,5824,0,82,40.5635,-0.0389394,-393.75,8854.99,-24497.1,-1475.01,-62.2148,-22.4889,0
29154,799.4,775.73,761.42,766.49,775.76,-37.11,-878.42,523.93,0.02,0.63,-1.18,-356.86,5832,0,82,40.294,0.0223439,-395.57,8939.44,-24475.1,-1434.37,-61.8729,-22.5989,0
29190,799.42,775.82,761.47,766.43,775.79,-39.06,-883.79,522.95,0.82,0.59,0.47,-355.53,5839,0,82,40.298,0.108473,-395.236,9038.56,-24468.8,-1316.72,-61.9095,-22.8689,0
29227,799.43,775.78,761.42,766.39,775.75,-41.99,-887.7,506.84,0.57,-1.09,-2.98,-355.82,5846,0,82,40.2919,0.237228,-394.664,9077.84,-24452.7,-1276.17,-61.9581,-23.0014,0
29263,799.68,775.78,761.48,766.34,775.82,-28.32,-880.37,521.48,-1.23,3.01,-2.15,-354.7,5854,0,82,40.1645,0.319616,-394.086,9098.82,-24376.6,-1394.05,-61.8561,-23.0884,0
29299,799.85,775.75,761.37,766.28,775.81,-41.02,-894.04,519.04,0.7,2.24,-0.77,-356.66,5861,0,82,40.7643,0.672813,-395.787,9282.93,-24478.3,-1547.86,-61.8472,-23.4544,0
29336,799.87,775.74,761.41,766.29,775.83,-55.66,-876.95,520.51,-0.41,0.18,-0.05,-356.02,5868,0,82,40.7697,0.468925,-398.071,9496.12,-24575,-1508.25,-61.7353,-23.8554,0
29374,799.92,775.69,761.48,766.27,775.84,-34.18,-880.86,523.44,1.3,2.01,0.04,-353.8,5876,0,82,40.7226,0.189567,-395.736,9467.03,-24500.5,-1530.6,-61.9114,-23.9226,0
29410,799.89,775.73,761.47,766.35,775.86,-44.43,-871.09,530.27,-0.03,1.11,0.68,-355.3,5883,0,82,40.9216,-0.131631,-395.399,9479.65,-24414,-1548.35,-61.7453,-23.9749,0
29446,799.94,775.76,761.43,766.43,775.89,-40.53,-876.95,524.9,-0.15,-0.72,-1.34,-357.83,5890,0,82,40.7993,-0.128329,-395.647,9524.78,-24545.6,-1583,-62.0391,-24.074,0
29482,799.98,775.74,761.42,766.35,775.87,-38.57,-874.02,517.58,-2.93,0.4,-1.76,-356.94,5897,0,82,40.8215,0.332911,-397.864,9508.11,-24628.5,-1676.08,-61.9017,-23.8979,0
29519,800.07,775.68,761.45,766.29,775.87,-30.27,-880.86,528.81,0.11,1.86,-3.3,-355.11,5905,0,82,40.4261,0.345056,-396.234,9580.09,-24744.3,-1554,-62.4489,-24.1779,0
29555,800.16,775.58,761.39,766.43,775.89,-45.41,-878.42,519.04,0.76,1.01,-0.19,-358.11,5912,0,82,40.6177,-0.131042,-399.192,9659.58,-24769.5,-1399.58,-62.0492,-24.1979,0
29596,800.16,775.63,761.27,766.43,775.87,-33.2,-878.91,522.95,-1.31,0.02,0.08,-361.5,5920,0,82,40.5413,-0.435681,-399.354,9780.52,-24799.3,-1369.08,-62.0987,-24.4909,0
29632,800.16,775.58,761.39,766.3,775.86,-34.67,-882.81,521,0.98,0.02,0.35,-356.27,5927,0,82,40.233,-0.334346,-398.669,9751.25,-24736.6,-1332.4,-62.0479,-24.4595,0
29669,800.23,775.61,761.35,766.3,775.87,-35.64,-865.23,518.07,-0.18,0.08,0.18,-357.78,5935,0,82,40.2924,-0.810655,-398.642,9759.39,-24778.9,-1395.07,-62.1587,-24.4818,0
29705,800.27,775.56,761.4,766.32,775.89,-40.04,-876.46,521.48,0.05,0.44,0.05,-356.42,5942,0,82,40.1929,-0.446851,-399.409,9878.18,-24777.7,-1346.57,-62.036,-24.732,0
29741,800.17,775.53,761.46,766.31,775.87,-25.88,-886.23,516.11,0.89,2.1,-1.44,-354.36,5949,0,82,40.3623,-0.881061,-399.394,9913.83,-24826.5,-1209.9,-62.1605,-24.8222,0
29777,800.08,775.55,761.36,766.31,775.83,-44.43,-870.12,506.35,-0.03,0.11,0.19,-356.54,5956,0,82,40.6185,-1.08609,-398.606,9903.72,-24833.4,-1304.29,-62.3005,-24.8459,0
29816,800.01,775.52,761.41,766.32,775.82,-36.13,-884.28,521.97,0.98,0.56,-0.74,-354.99,5964,0,82,40.0512,-0.708588,-398.694,9861.23,-24717.4,-1240.37,-61.9958,-24.7338,0
29853,800.13,775.52,761.4,766.36,775.85,-38.57,-870.61,523.93,0.08,4.1,-2.11,-356.29,5972,0,82,40.1215,-0.561236,-396.884,9751.18,-24750,-1249.03,-62.3608,-24.5693,0
29889,800.09,775.57,761.39,766.36,775.85,-30.76,-881.35,523.44,2.31,-0.15,-1.79,-356.84,5979,0,82,39.9196,-0.310276,-398.15,9814.53,-24751.7,-1220.32,-62.1669,-24.6503,0
29925,800.09,775.54,761.38,766.35,775.84,-26.37,-880.37,528.32,0.66,-0.5,-0.66,-356.7,5986,0,82,40.0309,0.0461826,-397.466,9773.77,-24770.4,-1231.23,-62.3209,-24.5902,0
29961,800.21,775.48,761.4,766.32,775.85,-44.92,-885.74,523.44,0.34,0.94,2.12,-355.79,5993,0,82,40.134,0.0813235,-398.396,9818.65,-24800.6,-1214.7,-62.2513,-24.6455,0
30001,800.45,775.48,761.36,766.39,775.92,-31.74,-871.58,534.18,0.07,-0.4,-0.44,-358.66,6001,0,82,40.3387,-0.242103,-397.505,9892.27,-24840.2,-1160.29,-62.4904,-24.8859,0
30037,800.42,775.59,761.37,766.36,775.93,-41.5,-885.74,528.32,-0.93,0.01,-0.33,-358.6,6008,0,82,40.0625,-0.0237947,-399.715,9999.56,-24866,-1171.08,-62.2094,-25.0168,0
30073,800.27,775.52,761.35,766.32,775.87,-48.83,-896.97,531.74,-1.63,-0.33,0.02,-357.5,6016,0,82,40.4979,-0.0768562,-399.517,10117.9,-24970.2,-1282.36,-62.5016,-25.3252,0
30110,800.45,775.56,761.36,766.33,775.93,-45.41,-881.35,524.41,-1.16,-0.69,-0.99,-358.28,6023,0,82,40.4918,0.264777,-400.7,10034.1,-24947.2,-1235.22,-62.2591,-25.0413,0
30146,800.64,775.6,761.39,766.32,775.99,-23.93,-877.93,517.58,1.01,1.93,-2.67,-358.35,6030,0,82,40.7125,-0.0249301,-400.591,9986.42,-24879.9,-1324.74,-62.1081,-24.9292,0
30182,800.76,775.58,761.39,766.24,775.99,-35.16,-883.79,517.09,0.77,-1.18,0.16,-357.48,6037,0,82,40.8348,-0.276779,-402.117,10099.5,-25005.4,-1338.54,-62.1843,-25.1157,0
30221,800.82,775.55,761.33,766.3,776,-42.97,-879.39,524.41,0.19,-0.45,-0.79,-359.81,6045,0,82,41.3036,-0.586603,-404.134,10349,-25199.6,-1354.31,-62.3546,-25.6078,0
30258,800.75,775.59,761.33,766.2,775.97,-42.97,-896.48,521.48,-0.66,1.68,-0.76,-358.38,6053,0,82,41.4252,-0.675392,-404.821,10414.6,-25226.2,-1377.61,-62.3146,-25.7264,0
30294,800.71,775.51,761.38,766.27,775.97,-25.39,-881.35,508.79,-1.34,0.21,-1.65,-357.46,6060,0,82,41.47,-0.482789,-403.938,10420,-25197.1,-1466.99,-62.3787,-25.7961,0
30330,800.6,775.59,761.42,766.26,775.97,-26.86,-889.16,517.58,1.79,-0.01,-0.58,-356.66,6067,0,82,41.0643,-0.409816,-403.138,10382.7,-25147.1,-1462.53,-62.3784,-25.7546,0
30367,800.52,775.52,761.46,766.28,775.94,-47.36,-881.84,519.53,-1.76,-1.69,-1.56,-354.9,6074,0,82,41.22,-0.255922,-402.417,10219.2,-25010.2,-1423.04,-62.1499,-25.3946,0
30403,800.5,775.62,761.37,766.3,775.95,-39.55,-879.88,523.93,-2.48,0.56,-0.54,-358.38,6082,0,82,40.7006,0.0710267,-399.812,10113,-24925.4,-1456.75,-62.3427,-25.2943,0
30442,800.35,775.53,761.4,766.29,775.89,-36.62,-873.54,521,-1.61,-0.51,-0.59,-356.08,6089,0,82,40.7474,-0.0275444,-400.338,10031.1,-24880.1,-1414.53,-62.1479,-25.0565,0
30478,800.24,775.53,761.34,766.2,775.83,-38.57,-877.93,517.58,-0.69,0.59,-0.69,-355.91,6097,0,82,40.6582,0.0422137,-396.955,9977.25,-24800.7,-1423.71,-62.4773,-25.1344,0
30515,800.18,775.45,761.38,766.23,775.81,-41.02,-875.98,526.86,-2.92,-0.4,-2.63,-354.56,6104,0,82,40.5166,-0.102507,-396.641,9913.88,-24660.6,-1340.45,-62.1736,-24.9946,0
30551,800.07,775.46,761.35,766.25,775.78,-33.69,-881.84,521,-1.32,1.78,-2.5,-355.3,6111,0,82,40.3387,-0.266073,-394.916,9926.21,-24589.4,-1422.21,-62.2651,-25.1349,0
30587,800.05,775.57,761.46,766.21,775.83,-29.3,-873.05,511.23,-0.6,-0.72,-2.43,-352.96,6118,0,82,40.4035,-0.000164567,-395.16,9838.27,-24592.7,-1323.71,-62.2348,-24.8969,0
30624,800.08,775.52,761.41,766.23,775.81,-41.99,-876.46,520.51,-0.2,-0.31,-0.51,-353.91,6126,0,82,40.3379,0.138664,-394.211,9726.95,-24503,-1410.48,-62.1572,-24.6745,0
30663,800.17,775.46,761.34,766.18,775.79,-34.67,-878.91,521.97,-0.43,-0.33,-0.6,-354.76,6134,0,82,40.1864,0.0335634,-394.812,9797.8,-24517.8,-1381.25,-62.0999,-24.8163,0
30700,800.04,775.52,761.38,766.21,775.79,-40.04,-874.02,507.32,-2.41,-0.65,0.76,-354.24,6141,0,82,40.1367,-0.0648713,-394.137,9862.47,-24477.9,-1307.85,-62.1049,-25.0229,0
30736,800,775.49,761.39,766.17,775.76,-26.37,-892.09,528.32,-2.57,-0.74,-1.18,-353.14,6148,0,82,39.9643,0.0439994,-392.977,9832.93,-24399.8,-1363.56,-62.0896,-25.0216,0
30773,800.16,775.48,761.42,766.19,775.81,-35.64,-884.28,517.09,-1.71,2.45,-3.11,-353.25,6156,0,82,39.7101,-0.13421,-392.341,9773.94,-24309.2,-1228.49,-61.9595,-24.912,0
30809,800.09,775.48,761.42,766.18,775.79,-40.53,-885.25,519.04,0.89,1.15,-0.5,-352.83,6163,0,82,39.5618,-0.478139,-392.201,9896,-24309.3,-1289.11,-61.9819,-25.232,0
30848,799.98,775.48,761.36,766.22,775.76,-31.25,-871.09,517.58,-0.5,-0.94,-1.03,-354.47,6171,0,82,39.769,-0.393756,-393.766,9906.56,-24342,-1363.82,-61.8186,-25.1585,0
30884,800.07,775.57,761.37,766.25,775.82,-45.9,-878.42,518.07,-0.79,0.89,-0.52,-355.59,6178,0,82,39.3644,-0.214342,-392.83,9810.04,-24351.5,-1326.07,-61.9898,-24.9727,0
30921,800.05,775.51,761.36,766.21,775.78,-40.04,-886.23,518.07,-0.62,-1.05,-1.76,-354.64,6185,0,82,39.318,-0.0450572,-393.755,9721.26,-24339.4,-1253.78,-61.8137,-24.6886,0
30957,800.06,775.62,761.39,766.27,775.84,-37.11,-885.74,526.37,0.82,0.31,-1.05,-355.73,6192,0,82,39.8115,0.249193,-392.822,9727.82,-24396.8,-1392.78,-62.1065,-24.764,0
30993,800.02,775.61,761.38,766.33,775.83,-43.46,-880.86,510.74,1.47,-0.46,-0.29,-356.88,6200,0,82,40.01,0.0632038,-395.098,9711.18,-24463.3,-1263.61,-61.9171,-24.5792,0
31030,800.07,775.68,761.48,766.35,775.9,-31.74,-885.25,515.62,0.63,-0.18,-0.94,-355.27,6207,0,82,39.8284,-0.152553,-396.047,9753.23,-24500.4,-1249.62,-61.8622,-24.6263,0
31068,799.94,775.75,761.43,766.38,775.88,-55.66,-877.44,526.86,-4.95,1.76,-2.61,-357.26,6215,0,82,40.0394,0.085613,-396.875,9652.45,-24542.9,-1331.96,-61.8403,-24.3212,0
31134,799.79,775.91,761.46,766.44,775.9,-33.2,-890.14,516.6,0.27,-0.24,-0.32,-357.89,6228,0,82,40.2141,0.0385876,-398.314,9521.11,-24577.2,-1336.57,-61.7032,-23.9035,0
31170,799.62,775.96,761.47,766.5,775.89,-28.81,-859.86,513.67,-3.41,-1.27,-2.86,-358.58,6235,0,82,39.9967,-0.378672,-398.802,9334.41,-24494.3,-1386.45,-61.4196,-23.4061,0
31206,799.43,776.05,761.44,766.6,775.88,-39.06,-875,502.44,0.24,-0.95,1.55,-360.73,6242,0,82,39.9785,-0.694739,-398.293,9266.86,-24514.9,-1422.1,-61.5499,-23.2665,0
31242,799.23,776.13,761.55,766.58,775.87,-39.06,-874.02,522.46,-2.37,-2.29,1.01,-357.7,6249,0,82,39.8722,-0.921184,-398.458,9201.89,-24350,-1321.7,-61.1105,-23.0938,0
31277,798.96,776.24,761.58,766.78,775.89,-30.27,-891.11,521,-1.24,2.15,0.02,-359.9,6256,0,82,39.8754,-1.11214,-397.334,8998.84,-24335.9,-1336.33,-61.2479,-22.6481,0
31316,798.61,776.39,761.56,766.9,775.86,-37.11,-884.77,517.09,-0.2,1.66,-0.99,-362.07,6264,0,82,40.4901,-0.720598,-397.978,8568.53,-24205.9,-1412.16,-60.8222,-21.5302,0
31352,798.48,776.47,761.61,766.96,775.88,-36.62,-875.49,530.27,-0.79,0.24,-1.35,-361.73,6271,0,82,40.5182,-0.428077,-397.593,8154.26,-24172,-1514.33,-60.7959,-20.5091,0
31387,798.32,776.7,761.6,767.16,775.94,-24.9,-877.44,519.04,-0.5,1.07,-1.89,-366.36,6278,0,82,40.3757,-0.0717445,-399.199,7962.3,-24280.5,-1624.73,-60.8232,-19.9458,0
31423,798.46,776.89,761.7,767.32,776.09,-44.43,-884.28,520.02,-1.92,0.53,0.31,-368.23,6286,0,82,40.8108,0.467072,-400.787,7606.15,-24339.2,-1639.78,-60.7286,-18.9781,0
31459,798.17,777.05,761.7,767.4,776.08,-36.13,-870.61,515.62,-2.36,1.12,0.02,-369.67,6293,0,82,42.6913,1.01415,-405.311,7573.06,-24608,-1764.54,-60.7139,-18.6845,0
31495,797.89,777.05,761.73,767.41,776.02,-33.2,-872.07,518.55,-1.39,-0.04,-0.18,-368.07,6300,0,82,44.1833,1.54704,-410.465,7415.38,-24699.7,-1792.42,-60.175,-18.0658,0
31533,797.62,777.03,761.71,767.34,775.93,-34.67,-876.95,515.14,-1.01,0.34,-2.49,-366.64,6308,0,82,44.3025,1.72486,-408.233,7004.74,-24584.5,-1794.16,-60.2217,-17.1587,0
31569,797.2,776.96,761.73,767.39,775.82,-50.29,-896.97,528.32,-0.91,-1.09,-0.88,-364.9,6315,0,82,43.2693,1.50729,-405.657,6828.35,-24323.6,-1765.25,-59.9611,-16.8328,0
31605,796.98,776.88,761.76,767.43,775.76,-41.02,-873.05,521,0.05,-2.98,0,-363.28,6322,0,82,42.333,0.982251,-400.245,6664.39,-24017.4,-1761,-60.0067,-16.6508,0
31641,797.17,776.77,761.71,767.51,775.79,-46.39,-882.32,524.9,-0.95,0.31,0.68,-365.53,6329,0,82,41.9502,1.0996,-396.606,6439.96,-23770,-1534.07,-59.9334,-16.2377,0
31677,797.34,776.75,761.8,767.35,775.81,-37.6,-875.98,510.25,1.19,2.27,-1.41,-361.24,6336,0,82,41.338,1.69887,-396.103,6488.87,-23877,-1594.75,-60.2799,-16.382,0
31716,797.1,776.57,761.7,767.33,775.68,-34.67,-879.39,533.2,-0.6,2.87,-3.08,-361.38,6344,0,82,40.7915,1.75003,-400.427,6774.68,-24230.7,-1461.7,-60.5121,-16.9186,0
31752,796.96,776.48,761.71,767.17,775.58,-30.76,-878.91,519.04,-0.6,-1.3,-1.97,-357.45,6351,0,82,40.0842,1.80416,-397.092,6830.37,-24203.8,-1569.22,-60.9527,-17.2011,0
31788,796.91,776.29,761.63,767.09,775.48,-39.55,-878.91,526.37,1.13,-0.94,2.04,-356.36,6359,0,82,39.2821,2.22956,-392.669,6744.3,-23903.7,-1501.6,-60.875,-17.1756,0
31824,797.4,776.18,761.64,766.83,775.51,-39.55,-882.32,528.81,-0.82,-0.73,-0.38,-353.29,6366,0,82,38.8745,1.90766,-388.086,6829.07,-23639.6,-1647.34,-60.9133,-17.5968,0
31860,798.17,776.14,761.55,766.72,775.64,-32.71,-880.37,527.34,-1.4,-0.69,0.29,-356.16,6373,0,82,38.6224,1.23531,-386.411,7195.77,-23657.3,-1570.26,-61.2233,-18.6221,0
31896,798.89,776.08,761.55,766.53,775.76,-44.43,-888.67,525.88,0.27,1.21,0.96,-355.31,6380,0,82,39.2128,0.0253635,-389.302,7828.22,-23870.9,-1526.67,-61.3172,-20.1084,0
31935,799.24,776.07,761.46,766.47,775.81,-45.41,-881.84,522.95,-1.41,0.73,-0.52,-357.81,6388,0,82,39.3295,-1.49487,-394.68,8702.35,-24255.2,-1353.88,-61.4553,-22.049,0
31971,799.17,775.99,761.5,766.44,775.77,-32.71,-879.39,521.48,-0.84,0.27,-2.34,-355.31,6395,0,82,39.9736,-2.22516,-397.388,9236.58,-24387,-1292.87,-61.3682,-23.2432,0
32007,798.95,775.91,761.45,766.39,775.67,-39.06,-890.62,517.58,0.29,-2.35,1.33,-354.58,6402,0,82,40.2614,-2.12842,-395.571,9246,-24276.1,-1277.24,-61.3697,-23.3738,0
32043,799,775.86,761.54,766.34,775.69,-51.27,-877.44,511.72,-0.09,-1.16,0.34,-351.55,6410,0,82,40.5852,-1.02625,-392.046,8909.74,-23900.5,-1346.73,-60.9634,-22.7262,0
32079,798.96,775.88,761.52,766.38,775.68,-35.16,-883.3,533.69,-0.89,-0.77,-1.4,-352.45,6417,0,82,39.8929,-0.724889,-387.926,8909.98,-23774.3,-1336.59,-61.2856,-22.9682,0
32115,798.95,775.8,761.47,766.32,775.64,-41.99,-877.44,509.28,-0.77,-1.52,-0.85,-352.37,6424,0,82,39.2089,-0.37597,-389.019,8972.12,-23833.4,-1357.92,-61.2653,-23.0635,0
32154,799.15,775.87,761.5,766.33,775.71,-37.11,-879.39,512.7,-1.33,-1.46,-1.33,-352.82,6432,0,82,39.1582,-0.720367,-388.145,8933.74,-23791.3,-1403.66,-61.2949,-23.0165,0
32190,798.91,775.99,761.49,766.46,775.71,-29.79,-881.35,515.14,0.98,-0.18,-0.51,-355.28,6439,0,82,39.9563,-1.12995,-389.479,9105.54,-23862,-1340.58,-61.2665,-23.3788,0
32226,798.58,775.93,761.49,766.49,775.62,-31.74,-884.28,512.21,-0.82,-0.63,0.69,-353.95,6446,0,82,40.0855,-1.20924,-391.478,9046.84,-23884.6,-1393.41,-61.0114,-23.1095,0
32262,798.3,776.09,761.55,766.62,775.64,-45.41,-883.3,520.02,-1.17,-0.01,-0.58,-354.63,6453,0,82,40.0565,-0.732523,-390.304,8684.91,-23816.3,-1303.5,-61.0197,-22.2516,0
32298,797.92,776.29,761.59,766.72,775.63,-36.62,-875.98,505.86,-1.42,0.98,-1.53,-355.61,6461,0,82,40.0063,-0.100701,-388.192,8387.92,-23690.7,-1407.13,-61.0283,-21.6076,0
32334,797.87,776.23,761.56,766.72,775.6,-26.86,-888.18,532.71,-0.44,1.96,-2.23,-355.72,6468,0,82,39.3914,0.562913,-387.381,8055.54,-23601.5,-1498.62,-60.9259,-20.7949,0
32373,798.1,776.28,761.56,766.77,775.68,-30.76,-887.21,514.16,-0.06,0.31,1.02,-357.51,6476,0,82,39.6108,0.717415,-387.62,7766.6,-23556.7,-1699.74,-60.7726,-20.0366,0
32411,798.25,776.24,761.63,766.74,775.71,-38.09,-881.35,528.81,1.04,0.19,1.68,-355.38,6483,0,82,40.0773,0.826241,-388.535,7851.59,-23533.9,-1623.25,-60.5708,-20.2081,0
32447,798.37,776.31,761.57,766.72,775.74,-36.62,-871.58,523.93,0.54,1.76,-3.45,-357.77,6490,0,82,40.6642,0.353468,-392.009,7962.03,-23737.6,-1632.13,-60.5537,-20.3107,0
32483,798.42,776.3,761.57,766.78,775.77,-33.69,-888.18,509.77,-0.21,-0.67,0.46,-358.71,6498,0,82,40.4303,0.15968,-392.029,8183.67,-23866,-1621.49,-60.878,-20.8751,0
32519,798.55,776.28,761.56,766.68,775.77,-43.95,-877.44,530.27,-0.69,-0.4,-0.53,-357.75,6505,0,82,40.2281,0.263413,-393.216,8179.05,-23892.5,-1601.24,-60.7618,-20.8004,0
32563,798.86,776.21,761.54,766.66,775.82,-21.48,-901.37,508.79,0.89,0.11,-0.56,-358.27,6514,0,82,40.4822,0.793955,-393.026,8250.36,-23922.3,-1652.54,-60.867,-20.9919,0
32599,799.26,776.05,761.5,766.42,775.81,-47.85,-870.12,542.48,0.46,-0.5,-1.14,-355.92,6521,0,82,40.7376,0.814631,-396.092,8493.92,-24140.2,-1618.56,-60.946,-21.4443,0
32635,799.69,775.84,761.47,766.31,775.83,-38.57,-887.7,517.58,1.6,2.75,-2.67,-354.99,6528,0,82,41.1642,0.464589,-394.318,8886.06,-24205.2,-1473.19,-61.385,-22.5353,0
32671,800.01,775.7,761.49,766.18,775.84,-30.76,-882.32,502.44,-0.53,0.17,-0.16,-352.63,6535,0,82,40.5892,-0.148776,-395.707,9376.93,-24256.4,-1282.67,-61.2989,-23.6967,0
32707,800.08,775.64,761.43,766.2,775.84,-21,-874.51,533.69,0.82,-1.15,-0.44,-354.03,6542,0,82,40.9274,-0.57764,-396.577,9778.3,-24291.5,-1282.57,-61.253,-24.6568,0
32743,800.15,775.53,761.41,766.12,775.8,-43.95,-887.21,534.67,-0.71,1.66,-1.89,-352.86,6550,0,82,40.5598,-0.534735,-395.157,9892.19,-24259.8,-1210.69,-61.3927,-25.0335,0
32784,800.12,775.63,761.43,766.18,775.84,-36.13,-874.02,521.97,-0.11,-0.85,-0.98,-353.83,6558,0,82,40.908,-0.245578,-395.359,10033.9,-24356.9,-1294.74,-61.6072,-25.3791,0
32820,800.02,775.6,761.4,766.15,775.79,-45.41,-872.56,519.04,-1.82,0.96,-0.94,-353.6,6565,0,82,41.1229,-0.256922,-394.546,10035.5,-24344.7,-1219.79,-61.703,-25.4356,0
32856,799.97,775.6,761.36,766.12,775.76,-41.02,-882.32,524.41,1.98,0.53,0,-353.8,6572,0,82,40.2769,0.285417,-394.362,9892.68,-24252.5,-1195.38,-61.4982,-25.0853,0
32892,799.92,775.67,761.4,766.14,775.78,-45.41,-874.02,521.97,-2.08,-0.81,-2.35,-353.6,6579,0,82,40.4155,0.317439,-392.459,9833.39,-24164.2,-1334.82,-61.5713,-25.0558,0
32927,799.9,775.55,761.44,766.09,775.74,-37.6,-883.3,513.67,0.38,0.26,-1.69,-350.84,6586,0,82,40.3603,0.703397,-391.447,9802.92,-24060.4,-1113.46,-61.4654,-25.0428,0
32964,800.01,775.6,761.43,766.08,775.78,-42.48,-878.42,510.25,0.87,-0.28,0.67,-351.8,6594,0,82,40.4995,0.598752,-389.807,9786.61,-23988.3,-1154.33,-61.5391,-25.1063,0
33003,800.18,775.58,761.45,766.05,775.82,-47.85,-898.93,512.7,0.32,0.63,0.37,-351.19,6602,0,82,40.8101,0.272991,-391.414,9833.5,-24011.4,-1161.1,-61.3454,-25.123,0
33039,800.19,775.56,761.43,765.98,775.79,-39.06,-880.86,517.58,0.11,0.36,-1.5,-350.39,6609,0,82,40.8789,0.494468,-390.491,10012.9,-24102.8,-1182.34,-61.7245,-25.6418,0
33075,800.22,775.49,761.41,766,775.78,-42.48,-882.81,517.58,0.75,0.95,-1.23,-351.01,6616,0,82,40.7659,0.3947,-391.841,10003.9,-24029,-1277.46,-61.3234,-25.5305,0
33110,800.11,775.54,761.44,765.97,775.76,-51.27,-878.91,518.55,-0.09,-0.56,-0.48,-349.6,6623,0,82,40.3327,0.29448,-390.755,10063.6,-24002.1,-1230.45,-61.4249,-25.7542,0
33146,800.22,775.55,761.43,765.97,775.79,-52.73,-867.68,515.62,0.8,-0.5,-3.06,-350.57,6630,0,82,40.7577,0.141916,-390.141,10055.5,-24018.6,-1207.13,-61.564,-25.7741,0
33182,800.13,775.56,761.35,765.93,775.74,-42.97,-884.77,521,-0.13,1.11,0.18,-351.51,6637,0,82,40.3934,0.24785,-391.372,10061.1,-24138.7,-1265.05,-61.6773,-25.7072,0
33221,799.7,775.6,761.44,765.98,775.68,-41.5,-884.28,517.09,-0.33,-2.36,-0.48,-348.89,6645,0,82,40.8309,0.0504995,-392.68,10111.4,-24196,-1234.59,-61.6178,-25.7497,0
33257,799,775.65,761.45,766.19,775.57,-44.43,-879.88,522.46,-0.41,1.75,-1.81,-349.73,6652,0,82,40.1976,-0.238965,-389.952,9882.73,-23966.7,-1179.62,-61.4606,-25.3434,0
33293,798.58,775.84,761.47,766.35,775.56,-29.79,-894.53,512.7,-1.21,-1.34,-1.8,-351.77,6660,0,82,39.6784,0.596898,-383.339,9311.09,-23495.1,-1344.48,-61.2906,-24.2892,0
33329,798.37,775.87,761.5,766.48,775.55,-41.02,-879.88,523.44,0.76,1.21,-1.4,-352.45,6667,0,82,39.1003,1.30019,-382.39,8691.7,-23321.7,-1398.31,-60.9894,-22.7299,0
33365,798.3,775.92,761.55,766.53,775.57,-37.11,-891.11,506.35,1.43,1.85,0.37,-352.13,6674,0,82,39.4851,1.89065,-382.104,8362.97,-23386.6,-1191.05,-61.205,-21.8868,0
33401,798.07,775.86,761.52,766.66,775.53,-38.57,-870.61,523.93,1.63,1.69,-1.31,-353.5,6681,0,82,39.2049,1.83959,-383.672,8195.29,-23426.8,-1162.49,-61.0594,-21.3601,0
33440,797.94,776.18,761.57,766.73,775.6,-35.64,-879.88,517.09,-1.31,-1.02,-3.31,-355.47,6689,0,82,39.1935,1.62379,-384.319,7994.91,-23515.4,-1263.42,-61.1872,-20.8028,0
33476,797.75,776.21,761.67,766.75,775.59,-32.71,-870.61,519.53,-1.01,3.16,-0.97,-352.77,6696,0,82,39.0997,1.56781,-386.019,7777.6,-23467.9,-1268.83,-60.7947,-20.1483,0
33512,797.56,776.33,761.62,766.78,775.57,-43.95,-889.16,519.04,1.08,1.95,-1.07,-354.63,6703,0,82,39.6694,1.61192,-386.345,7649.8,-23493,-1343.72,-60.8087,-19.8002,0
33548,797.52,776.24,761.63,766.81,775.55,-39.06,-881.84,517.09,-0.11,-1.11,-1.03,-354.15,6711,0,82,39.3742,1.69875,-386.923,7518.32,-23513.9,-1345.69,-60.7716,-19.431,0
33584,797.59,776.29,761.59,766.84,775.58,-53.22,-882.81,523.44,-0.91,-1.97,-0.06,-356.32,6718,0,82,39.4299,1.47369,-387.027,7390.33,-23480.7,-1503.99,-60.6695,-19.0951,0
33623,797.46,776.37,761.6,766.91,775.58,-36.13,-874.51,519.53,-1.09,-1.66,0.31,-357.08,6726,0,82,40.0629,1.52772,-387.483,7417.48,-23495.8,-1605.62,-60.6371,-19.1428,0
33659,797.39,776.39,761.62,766.87,775.57,-38.57,-884.28,525.88,-0.79,-2.03,0.57,-355.87,6733,0,82,39.9545,1.45556,-387.786,7403.29,-23532.6,-1618.77,-60.6847,-19.0912,0
33695,797.38,776.36,761.68,766.9,775.58,-33.2,-881.84,525.39,-1.21,0.42,-2.04,-354.59,6740,0,82,39.9386,1.54387,-388.002,7261.82,-23578.8,-1745.55,-60.7697,-18.7159,0
33732,797.32,776.36,761.62,766.93,775.56,-41.02,-877.44,523.44,0.27,-1.18,0.7,-356.37,6747,0,82,39.876,2.17802,-389.16,7199.11,-23619.2,-1680.38,-60.6927,-18.4991,0
33768,797.43,776.3,761.73,766.98,775.61,-30.27,-875,514.65,1.05,-2.79,0.5,-354.26,6755,0,82,40.6892,1.78229,-389.191,7210.21,-23744.6,-1670.76,-61.0103,-18.5262,0
33804,797.55,776.26,761.61,766.92,775.58,-50.78,-882.81,515.14,-1.33,-1.16,-2.57,-356.46,6762,0,82,40.0913,1.97395,-389.873,7170.08,-23796.7,-1700.66,-61.037,-18.3908,0
33843,797.62,776.17,761.62,766.92,775.58,-44.43,-880.86,528.81,0.09,0.54,-0.38,-355.57,6770,0,82,40.1428,1.945,-390.699,7453.67,-23946.5,-1649.25,-61.2915,-19.0778,0
33879,797.87,776.16,761.69,766.89,775.65,-40.53,-875.49,524.41,2.2,0.51,1.31,-354.42,6777,0,82,39.9599,1.76393,-392.754,7528.12,-24041.5,-1759.56,-61.2126,-19.1675,0
33915,798.1,776.14,761.57,766.92,775.68,-41.99,-879.88,521,1.47,1.76,-1.53,-358.36,6784,0,82,39.9961,1.33089,-393.017,7731.25,-24216,-1615.32,-61.616,-19.6718,0
33951,798.39,776.25,761.61,766.94,775.8,-38.09,-879.88,509.28,0.11,1.43,0.87,-359.4,6791,0,82,40.0362,0.810732,-394.768,7950.47,-24292.5,-1625.05,-61.5361,-20.1396,0
33988,798.47,776.15,761.56,766.87,775.76,-30.76,-877.93,515.14,-0.37,1.28,-2.45,-359.11,6799,0,82,40.8133,0.267886,-398.391,8292.21,-24548,-1648.87,-61.6178,-20.8142,0
34024,798.37,776.19,761.63,766.99,775.79,-34.18,-882.81,524.41,-0.47,1.18,0.78,-359.2,6806,0,82,40.5524,-0.00852223,-399.439,8397.58,-24662.4,-1528.79,-61.7426,-21.0234,0
34063,798.13,776.21,761.61,767.07,775.75,-36.13,-892.58,522.46,0.8,-0.01,-0.19,-360.35,6814,0,82,40.237,-0.0526695,-399.866,8383.87,-24706.9,-1583.66,-61.788,-20.9667,0
34099,797.75,776.26,761.64,767.14,775.7,-31.74,-869.14,527.34,-2.13,1.17,-0.38,-359.66,6821,0,82,40.0556,0.235529,-397.812,8136.36,-24619.4,-1569.12,-61.887,-20.4528,0
34135,797.57,776.3,761.65,767.07,775.65,-32.23,-872.07,532.23,-0.71,-1.42,-1.07,-358.03,6828,0,82,39.9496,0.652516,-397.424,7783.67,-24475.7,-1701.89,-61.5859,-19.5853,0
34171,797.26,776.35,761.66,767.18,775.61,-17.58,-875.49,512.7,-0.96,-1.03,-2.85,-358.78,6835,0,82,39.702,0.818273,-394.791,7569.82,-24283.9,-1661.09,-61.5107,-19.1743,0
34207,797.01,776.3,761.7,767.17,775.54,-28.32,-895.51,519.53,0.11,0.24,-0.56,-356.36,6842,0,82,39.7732,0.917395,-393.422,7371.89,-24191.8,-1596.5,-61.4907,-18.7379,0
34243,796.87,776.42,761.69,767.17,775.54,-46.39,-888.67,517.09,-2.33,-0.3,-1.78,-356.98,6850,0,82,39.31,0.717423,-390.545,7192.91,-24071.2,-1787.62,-61.6351,-18.4176,0
34282,796.8,776.35,761.75,767.17,775.52,-44.43,-882.81,515.62,0.87,0.09,-1.4,-354.76,6857,0,82,39.0702,1.04754,-390.632,7025.23,-23939.1,-1658.26,-61.2829,-17.9843,0
34318,796.9,776.41,761.68,767.18,775.54,-30.27,-874.51,521.97,-0.66,0.13,-0.24,-357.54,6865,0,82,39.0088,0.981441,-388.607,6986.41,-23928,-1700,-61.5738,-17.9781,0
34354,796.94,776.38,761.66,767.21,775.55,-38.09,-874.51,518.55,1.85,1.73,0.37,-358.44,6872,0,82,38.6725,1.1009,-391.587,6937.9,-23963.6,-1716.04,-61.1961,-17.7174,0
34391,796.94,776.33,761.68,767.18,775.53,-35.16,-864.75,520.02,0.78,0.34,0.09,-356.97,6879,0,82,38.9943,1.02686,-390.569,7001.09,-24073.6,-1722.3,-61.6374,-17.9254,0
34427,796.84,776.39,761.65,767.21,775.52,-26.86,-868.16,515.14,-0.72,0.81,0.31,-358.5,6886,0,82,39.1686,0.941173,-390.759,7034.47,-24110.8,-1799.09,-61.7025,-18.0021,0
34465,796.83,776.35,761.69,767.2,775.52,-40.04,-879.39,518.07,-1.1,-1.93,-0.05,-356.81,6894,0,82,39.1056,0.878318,-391.469,7048.44,-24010,-1766.85,-61.333,-18.0051,0
34501,796.72,776.37,761.67,767.26,775.5,-42.97,-880.86,511.72,2.11,-1.95,-2.05,-358.04,6901,0,82,38.9547,0.688636,-390.182,6991.94,-24023.7,-1753.4,-61.5705,-17.9197,0
34537,796.53,776.44,761.7,767.3,775.49,-35.16,-867.19,525.39,-1.74,-1.95,0.34,-357.77,6908,0,82,38.9368,0.65805,-390.93,6914.32,-23991.3,-1646.47,-61.3697,-17.6869,0
34573,796.45,776.48,761.73,767.3,775.49,-20.02,-878.91,525.39,-0.17,0.86,1.72,-357.13,6916,0,82,38.8047,0.794314,-389.625,6743.49,-23947.2,-1797.1,-61.4622,-17.3076,0
34609,796.35,776.5,761.72,767.37,775.49,-35.16,-881.84,524.9,-1.68,-0.6,-0.9,-358.21,6923,0,82,38.8429,1.05022,-390.006,6613.96,-23885.6,-1802.33,-61.2442,-16.9586,0
34645,796.2,776.55,761.78,767.36,775.47,-42.97,-883.79,513.67,0.27,1.69,-0.06,-356.43,6930,0,82,38.8479,0.672159,-389.353,6571.83,-23861.5,-1653.5,-61.2851,-16.8788,0
34684,796.14,776.61,761.75,767.45,775.49,-41.5,-878.91,526.37,-0.56,-0.44,-0.5,-358.82,6938,0,82,38.8763,0.784848,-390.541,6425.58,-23816.7,-1627.44,-60.9839,-16.4531,0
34720,795.89,776.73,761.8,767.57,775.5,-29.79,-877.93,522.95,-0.08,0.68,-0.15,-359.49,6945,0,82,38.9443,0.739439,-389.419,6349.58,-23851.7,-1844.25,-61.2494,-16.3053,0
34756,795.62,776.88,761.86,767.65,775.5,-42.48,-881.84,522.95,-1.6,0.73,-0.03,-359.42,6952,0,82,39.1525,0.876644,-391.231,6137.33,-23732.9,-1818.92,-60.6621,-15.6872,0
34792,795.33,776.99,761.92,767.7,775.48,-28.32,-879.39,523.93,-1.35,-0.82,-0.59,-358.41,6959,0,82,38.9783,0.903432,-390.503,5834.47,-23685.9,-1892.31,-60.6548,-14.9409,0
34828,795.22,777.1,761.88,767.86,775.52,-41.99,-887.7,525.39,-0.58,-0.82,0.15,-362.34,6967,0,82,39.1547,1.21021,-390.799,5607.15,-23640.6,-1954.82,-60.4931,-14.3479,0
34864,794.91,777.12,761.93,767.91,775.47,-38.09,-882.81,515.62,1.87,0.21,0.37,-360.84,6974,0,82,39.3952,1.6353,-390.403,5354.07,-23621.9,-2046.2,-60.5066,-13.7143,0
34902,794.8,777.28,761.97,768.09,775.53,-32.71,-887.21,523.93,0.63,-0.02,-0.92,-363.36,6981,0,82,39.5425,2.13702,-390.831,5129.8,-23585.3,-2081.25,-60.3467,-13.1255,0
34939,794.75,777.33,761.92,768.16,775.54,-49.8,-881.84,530.76,-1.09,1.45,1.18,-365.93,6989,0,82,39.9557,1.97385,-392.692,4829.02,-23594.1,-2080.83,-60.083,-12.2972,0
34976,794.57,777.43,762,768.26,775.57,-30.76,-881.35,510.25,-1.24,-0.34,1.4,-365.5,6996,0,82,40.1512,2.01682,-393.44,4762.76,-23627.8,-2072.51,-60.0543,-12.1054,0
35012,794.37,777.52,761.97,768.26,775.53,-43.95,-864.75,511.23,-0.62,3.18,-1.15,-366.5,7003,0,82,40.0845,2.15181,-394.25,4629.27,-23665.5,-2181.21,-60.0267,-11.742,0
35048,794.29,777.59,762,768.35,775.55,-34.67,-880.37,518.55,-0.31,0.95,-0.79,-367.29,7011,0,82,40.2206,2.16572,-394.58,4404.7,-23681.6,-2170.54,-60.0172,-11.163,0
35084,794.26,777.66,762.04,768.33,775.57,-54.2,-875.98,521,-1.2,1.46,-0.38,-366.34,7018,0,82,40.0354,2.34373,-396.155,4347.8,-23700.1,-2082.6,-59.8253,-10.975,0
35123,794.25,777.67,762.07,768.38,775.59,-25.39,-880.37,515.62,-1.09,-0.31,0.6,-366.57,7026,0,82,40.1355,2.36568,-396.34,4298.96,-23725.1,-2006.17,-59.8605,-10.8467,0
35162,794.25,777.67,762.03,768.38,775.58,-37.11,-882.81,515.62,1.64,0.98,-1.05,-367.45,7033,0,82,40.4462,1.91899,-398.487,4323.88,-23798.3,-2076.58,-59.7218,-10.8507,0
35198,794.17,777.66,762.08,768.36,775.57,-45.41,-882.32,530.27,-0.04,2.63,1.3,-365.49,7041,0,82,40.5718,2.00634,-397.035,4334.96,-23822.7,-2242.83,-60.0015,-10.9183,0
35234,794.24,777.58,762.07,768.39,775.57,-38.09,-887.7,512.21,-0.34,-1.4,0.68,-365.72,7048,0,82,40.3879,1.7301,-397.508,4285.21,-23744.7,-2093.75,-59.7338,-10.7802,0
35270,794.19,777.66,762,768.36,775.55,-31.25,-891.11,518.07,0.78,1.09,-2.34,-367.52,7055,0,82,40.3559,1.84577,-397.312,4338.34,-23730.2,-2068.24,-59.7268,-10.9192,0
35306,794.29,777.67,762.05,768.33,775.59,-44.43,-877.44,506.84,-1.4,0.89,-1.37,-366.3,7062,0,82,39.9341,1.72516,-396.844,4354.89,-23693.7,-1986.35,-59.7055,-10.9738,0
35345,794.41,777.65,762.03,768.25,775.58,-40.53,-882.81,512.7,0.5,-2.27,1.05,-365.85,7070,0,82,39.9441,2.06104,-397.197,4451.27,-23714.3,-2153.37,-59.704,-11.2067,0
35381,794.47,777.66,762.05,768.28,775.62,-29.79,-879.39,507.81,-0.61,0.66,-0.88,-366.01,7077,0,82,40.2261,2.08993,-397.465,4512.76,-23800.4,-2094.34,-59.8804,-11.3538,0
35418,794.62,777.62,762,768.3,775.64,-44.92,-872.56,526.37,-0.13,1.71,0.97,-367.86,7085,0,82,40.4401,1.85672,-398.446,4681.76,-23846.4,-1923.38,-59.8485,-11.75,0
35454,794.61,777.52,761.88,768.21,775.56,-28.81,-873.54,521.48,0.76,-1.85,0.35,-368.65,7092,0,82,40.7073,2.0529,-398.2,4707.27,-23929.7,-1997.85,-60.0947,-11.8214,0
35490,794.7,777.4,761.98,768.17,775.56,-37.6,-874.51,517.09,0.82,-1.62,-0.54,-365.1,7099,0,82,40.4322,1.54341,-398.36,4806.83,-23862.2,-1972.89,-59.9012,-12.0666,0
35529,794.72,777.49,761.97,768.17,775.59,-40.53,-875,520.02,1.18,-0.86,0.9,-365.99,7107,0,82,40.1584,1.76618,-396.068,4832.44,-23751.3,-2012.04,-59.9677,-12.201,0
35565,794.71,777.51,762.02,768.15,775.6,-38.09,-890.14,519.53,-0.22,1.05,0.01,-364.64,7114,0,82,40.2304,1.46877,-397.131,4972.7,-23880.7,-2074.24,-60.1331,-12.5216,0
35601,794.63,777.49,761.94,768.17,775.56,-47.36,-888.18,519.04,-1.07,0.27,-3.7,-366.49,7121,0,82,40.2798,1.37135,-396.325,5006.29,-23830.7,-2001.19,-60.1293,-12.6317,0
35637,794.31,777.52,762,768.19,775.51,-24.41,-877.44,511.72,-1.02,0.39,0.09,-364.43,7128,0,82,40.1672,1.19951,-396.51,4948.98,-23786.1,-2029.9,-59.9886,-12.4814,0
35673,794.21,777.53,762.06,768.27,775.52,-26.86,-886.23,523.44,0.57,0.45,-2.89,-363.78,7136,0,82,39.7174,1.18408,-393.715,4739.76,-23610.8,-2048.88,-59.9693,-12.0385,0
35710,794.09,777.59,762.04,768.32,775.51,-29.3,-883.3,551.76,-1.12,0.14,0.29,-365.13,7143,0,82,39.7318,1.70303,-392.986,4523.42,-23525.1,-2190.92,-59.8624,-11.5104,0
35748,793.85,777.68,762.13,768.36,775.5,-30.76,-888.18,524.41,-0.11,-0.02,-0.14,-363.44,7151,0,82,39.7571,2.10559,-392.162,4327.76,-23509.1,-2178.28,-59.9475,-11.0356,0
35785,793.68,777.67,762.1,768.45,775.47,-51.27,-892.58,506.84,-1.47,2.09,0.02,-364.66,7158,0,82,39.7169,2.1149,-392.429,4216.27,-23537.2,-2181.62,-59.9782,-10.744,0
35821,793.5,777.73,762.08,768.48,775.45,-33.69,-888.18,531.25,-0.88,1.02,-1.21,-365.55,7165,0,82,39.7538,2.33877,-392.59,3993.82,-23526.2,-2212.92,-59.9254,-10.1729,0
35857,793.21,777.89,762.12,768.58,775.45,-32.23,-877.93,521.48,-0.28,1.98,-0.63,-366.43,7172,0,82,39.5107,2.24815,-391.713,3855.15,-23456.4,-2225.24,-59.8818,-9.84175,0
35893,793.06,777.86,762.16,768.58,775.42,-27.83,-893.07,521.48,-3.09,-1.09,0.95,-364.68,7180,0,82,39.888,2.58463,-392.149,3636.99,-23433.3,-2156.43,-59.7561,-9.27449,0
35930,792.95,777.85,762.16,768.65,775.4,-36.13,-884.77,521,-0.02,-0.65,0.13,-365.14,7187,0,82,39.7703,2.81215,-391.344,3450.21,-23412.1,-2157.35,-59.8249,-8.81631,0
35969,792.95,777.87,762.13,768.61,775.39,-30.27,-872.56,510.74,-0.69,-0.27,0.53,-365.34,7195,0,82,39.5319,3.04217,-390.658,3317.35,-23294.3,-2284.93,-59.6285,-8.49177,0
36005,792.95,777.86,762.18,768.54,775.38,-38.57,-872.56,523.93,-1.04,2.73,-0.86,-363.16,7202,0,82,39.5748,3.13873,-389.377,3255.22,-23314.4,-2178.13,-59.8764,-8.36006,0
36041,793.1,777.82,762.08,768.47,775.37,-11.72,-883.79,522.46,0.41,-1.09,1.64,-364.71,7209,0,82,39.4013,2.80022,-390.93,3361.37,-23360.1,-2097.13,-59.7552,-8.59839,0
36078,793.21,777.73,762.04,768.4,775.34,-44.43,-886.23,529.3,-0.56,0.32,-1.13,-364.47,7217,0,82,39.4854,2.94796,-390.412,3532.58,-23419.2,-2149.85,-59.9861,-9.04829,0
36114,793.33,777.7,762.11,768.39,775.38,-48.34,-880.86,527.83,-0.32,0.98,1.18,-362.78,7224,0,82,39.5432,2.64371,-391.681,3767.06,-23426.1,-2054.63,-59.8092,-9.61782,0
36150,793.49,777.66,762.02,768.35,775.38,-32.71,-871.09,523.93,-1.12,2.53,-2.6,-364.52,7231,0,82,39.7375,2.11844,-390.757,3945.61,-23428.1,-2238.77,-59.9556,-10.0974,0
36188,793.72,777.67,762.09,768.26,775.43,-36.13,-895.02,516.6,-2.27,1.42,-0.24,-362.48,7239,0,82,39.4569,1.91048,-390.349,4051.76,-23351.5,-2217.19,-59.8221,-10.3798,0
36224,793.95,777.52,762.08,768.27,775.45,-33.2,-893.07,523.44,-0.69,0.39,-1.47,-362.46,7246,0,82,39.277,2.32082,-390.594,4240.69,-23391.5,-2130.83,-59.887,-10.857,0
36260,794.17,777.44,762.06,768.15,775.46,-42.48,-885.74,529.79,-1.61,1.9,0.07,-361.12,7253,0,82,39.224,2.61941,-391.557,4485.93,-23414.9,-2085.29,-59.7996,-11.4566,0
36296,794.42,777.43,761.99,767.99,775.45,-24.9,-877.93,522.46,-2.46,1.28,-1.6,-361.35,7260,0,82,39.5209,2.37665,-392.303,4710.64,-23469.8,-2045.8,-59.8257,-12.0077,0
36332,794.67,777.34,761.96,767.86,775.46,-35.64,-895.51,519.53,0.7,1.14,-0.55,-360.32,7267,0,82,39.3104,2.07489,-392.05,4959.48,-23527.6,-2045.26,-60.0116,-12.6501,0
36371,795.01,777.29,761.88,767.86,775.51,-41.5,-876.46,510.74,0.28,0.34,0.66,-363,7275,0,82,39.554,2.15903,-391.686,5272.21,-23576.1,-2011.25,-60.1915,-13.4603,0
36407,795.18,777.27,761.92,767.72,775.52,-39.06,-872.07,526.86,-1,-0.53,-1.24,-360.39,7282,0,82,39.8062,1.9406,-391.337,5552.86,-23666.8,-2010.4,-60.4767,-14.1895,0
36443,795.48,777.12,761.86,767.69,775.54,-27.83,-878.91,513.18,-0.75,-0.05,1.67,-361.47,7290,0,82,39.4202,2.04625,-392.594,5784.32,-23593.6,-1829,-60.0966,-14.7336,0
36479,795.74,777.16,761.9,767.6,775.6,-20.51,-875.49,511.23,1.73,0.65,-1.74,-360.09,7297,0,82,39.814,1.87365,-390.429,6002.4,-23574.3,-1922.44,-60.3806,-15.3738,0
36515,796.13,777.11,761.77,767.5,775.63,-40.53,-879.39,527.34,0.55,1.87,-0.34,-363.03,7304,0,82,39.459,1.79439,-392.558,6187.77,-23583.1,-1787.26,-60.0755,-15.7627,0
36551,796.57,777.13,761.85,767.45,775.75,-49.32,-918.46,530.27,-1.66,1.23,-0.03,-361.86,7311,0,82,39.2582,2.03593,-393.717,6538.07,-23614.3,-1744.35,-59.978,-16.606,0
36590,797.1,777.15,761.81,767.13,775.79,-30.27,-895.51,515.62,-0.97,-0.1,-0.31,-360.15,7319,0,82,39.5324,1.97729,-394.783,6934.56,-23600.4,-1576.62,-59.7808,-17.5655,0
36626,797.81,777.07,761.71,766.99,775.89,-38.09,-882.32,498.05,-1.19,1.86,1.03,-362.5,7326,0,82,39.8294,1.83285,-394.074,7145.58,-23421.5,-1743.44,-59.4343,-18.1326,0
36662,798.73,777.25,761.76,766.86,776.15,-28.81,-883.79,509.28,-1.32,-0.74,-0.5,-363.88,7333,0,82,39.7576,1.48193,-392.926,7521.51,-23276.7,-1550.99,-59.2393,-19.1423,0
36698,799.4,777.25,761.7,766.75,776.27,-46.39,-885.74,521.97,0.25,0.88,0.9,-365.87,7341,0,82,39.8296,1.13348,-393.695,8121.44,-23118.5,-1396.47,-58.7217,-20.6287,0
36735,800.1,777.38,761.65,766.61,776.44,-44.43,-868.65,527.83,0.39,0.58,-2.66,-368.6,7348,0,82,40.1646,0.511156,-395.452,8716.29,-23051.8,-1275.96,-58.2923,-22.0413,0
36771,800.69,777.5,761.6,766.53,776.58,-30.27,-878.42,522.46,-0.86,2.43,-1.13,-371.64,7355,0,82,40.48,0.295852,-396.126,9130.88,-22998.9,-1175.58,-58.0596,-23.0504,0
36810,801.46,777.64,761.54,766.3,776.73,-27.83,-877.44,521.48,-0.57,2.14,-0.44,-373.63,7363,0,82,40.9965,-0.113455,-396.779,9547.92,-22919.2,-1140.76,-57.7631,-24.0635,0
36846,801.89,777.61,761.61,766.16,776.82,-40.53,-893.07,519.04,-1.56,-0.05,1.61,-370.98,7370,0,82,41.3831,-0.055284,-398.498,9884.96,-22817.9,-1099.66,-57.2597,-24.8055,0
36883,802.35,777.69,761.53,766.22,776.95,-32.71,-888.18,497.07,0.56,3.23,-1.44,-376.08,7378,0,82,41.5481,-0.93473,-398.133,10248.4,-22830.6,-994.883,-57.3442,-25.7411,0
36919,802.59,777.58,761.54,766.1,776.95,-42.48,-885.25,536.13,-2.77,0.89,-0.77,-374.02,7385,0,82,41.3214,-1.12707,-399.023,10594.4,-22828.9,-920.58,-57.2121,-26.5509,0
36955,802.95,777.67,761.47,766.06,777.04,-44.43,-888.18,510.74,0,2.19,0.41,-377.03,7392,0,82,41.2545,-0.636027,-399.867,10622,-22821.2,-995.972,-57.0721,-26.5642,0
36991,802.99,777.71,761.55,766,777.06,-40.04,-886.72,505.86,-1.83,-0.79,-2.66,-374.62,7399,0,82,41.4262,-0.955491,-400.969,10833,-22960.8,-820.469,-57.2634,-27.0171,0
37030,803.24,777.59,761.5,765.99,777.08,-24.41,-877.44,524.9,0.44,1.64,-1.64,-375.79,7407,0,82,41.8205,-1.06687,-403.243,10868.9,-23023.3,-867.12,-57.0955,-26.9538,0
37067,803.25,777.67,761.52,766.07,777.13,-49.32,-885.74,506.35,-3.53,1.11,-2.08,-376.99,7414,0,82,41.7573,-1.42605,-402.692,10973.8,-22995.1,-851.397,-57.1033,-27.2511,0
37103,803.11,777.74,761.52,766.07,777.11,-40.53,-886.72,514.16,0.53,-0.99,-2.74,-377.17,7422,0,82,41.714,-1.14668,-402.23,11071,-23061.4,-818.179,-57.3339,-27.524,0
37139,803.02,777.82,761.54,766.06,777.11,-45.9,-883.79,519.04,1.03,-0.86,0.3,-376.73,7429,0,82,41.5701,-0.928341,-401.661,10848.1,-22912.9,-824.574,-57.0454,-27.0081,0
37175,803.1,777.76,761.58,766.08,777.13,-34.18,-885.74,511.23,-0.46,2.95,1.02,-375.88,7436,0,82,41.6466,-0.775405,-403.086,10728.8,-22920.8,-947.49,-56.8634,-26.6166,0
37211,803.09,777.79,761.55,766.15,777.15,-34.67,-878.91,519.04,-1.79,0.39,-1.08,-377.85,7443,0,82,41.6125,-1.12933,-402.675,10702.6,-22892.3,-870.075,-56.8505,-26.5788,0
37250,803.05,777.86,761.54,766.14,777.15,-25.88,-883.3,519.04,-1.34,0.86,-1.52,-378.33,7451,0,82,42.3621,-1.19885,-403.232,10706.4,-22978.9,-839.745,-56.9869,-26.5516,0
37286,802.95,777.87,761.68,766.21,777.18,-36.62,-876.46,516.11,-0.92,-2.26,-0.25,-375.61,7458,0,82,41.6088,-0.960146,-402.943,10640.7,-22984.4,-822.996,-57.0413,-26.4074,0
37322,802.78,777.94,761.54,766.18,777.11,-29.79,-882.32,509.77,-0.25,0.88,-0.45,-378.75,7465,0,82,41.7839,-0.605457,-403.678,10520.9,-22928.1,-837.481,-56.7979,-26.0625,0
37358,802.66,777.91,761.56,766.19,777.08,-51.76,-881.84,524.9,0.68,2.03,-1.47,-377.79,7473,0,82,41.7618,-0.499859,-401.849,10359.3,-22936.8,-1003.96,-57.078,-25.7789,0
37394,802.55,777.89,761.62,766.12,777.05,-35.16,-882.81,511.23,1.66,-2.94,-0.11,-374.74,7480,0,82,41.5168,-0.581422,-401.42,10240.8,-22847.6,-839.906,-56.9169,-25.5114,0
37433,802.57,777.91,761.57,766.26,777.08,-43.46,-884.28,508.3,-1.92,0.6,-1.02,-378.33,7488,0,82,41.1307,-0.367945,-401.09,10159,-22806.7,-990.834,-56.8618,-25.3285,0
37469,802.49,777.96,761.57,766.19,777.05,-36.62,-874.02,523.93,-0.31,0.27,-0.22,-377.27,7495,0,82,41.4338,-0.401949,-401.628,10171.9,-22803.1,-1010.56,-56.7768,-25.3267,0
37505,802.45,777.89,761.57,766.26,777.04,-41.02,-892.58,510.25,0.57,0.73,0.16,-377.67,7502,0,82,41.4228,-0.124659,-402.435,10232,-22914.1,-998.366,-56.9387,-25.4253,0
37542,802.35,777.91,761.51,766.22,777,-33.69,-875.98,509.28,-1.18,1.5,1.12,-378.47,7509,0,82,40.883,-0.285708,-401.206,10143.6,-22839.6,-1055.1,-56.9273,-25.2828,0
37578,802.28,777.97,761.56,766.23,777.01,-43.95,-890.62,517.58,0.17,0.25,-0.64,-377.4,7517,0,82,41.1614,-0.042914,-400.713,10043.8,-22702.5,-1092.15,-56.6553,-25.0648,0
37614,802.28,777.98,761.59,766.28,777.03,-37.11,-880.86,531.25,0.68,1,3.1,-377.48,7524,0,82,41.3956,0.0859533,-399.163,9971.73,-22708.4,-1129.68,-56.8901,-24.9816,0
