currTime,s1,s2,s3,s4,s,AccX,AccY,AccZ,GyroX,GyroY,GyroZ,Frame,SubFrame,Fx,Fy,Fz,Mx,My,Mz,Cx,Cy,Cz
22,0,0,0,0,0,-93.75,-825.68,618.65,-8.27,-12.47,2.98,4,0,0,0,0,0,0,0,0,0,0
53,0,0,0,0,0,-147.46,-1017.09,264.16,12.27,-16.34,-2.05,11,0,0,0,0,0,0,0,0,0,0
84,0,0,0,0,0,-28.81,-864.75,615.72,-7.39,6.64,-0.26,17,0,0,0,0,0,0,0,0,0,0
114,0,0,0,0,0,-18.07,-838.38,572.27,1.39,0.05,-1.24,23,0,0,0,0,0,0,0,0,0,0
148,0,0,0,0,0,-32.71,-863.77,542.97,1.64,0.23,-3.01,30,0,0,0,0,0,0,0,0,0,0
179,0,0,0,0,0,-26.86,-862.79,541.02,1.18,-1.28,-1.44,36,0,0,0,0,0,0,0,0,0,0
209,0,0,0,0,0,-19.53,-858.4,547.85,-0.31,-1.45,0.17,42,0,0,0,0,0,0,0,0,0,0
240,0,0,0,0,0,-17.09,-851.07,564.94,0.08,1.18,-0.03,48,0,0,0,0,0,0,0,0,0,0
271,0,0,0,0,0,-16.6,-884.77,549.32,-0.9,0.93,-3.08,54,0,0,0,0,0,0,0,0,0,0
302,0,0,0,0,0,-46.88,-854.49,557.13,-2.09,1.44,0.15,60,0,0,0,0,0,0,0,0,0,0
333,0,0,0,0,0,-19.04,-848.63,562.5,-2.66,-0.5,0.64,67,0,0,0,0,0,0,0,0,0,0
364,0,0,0,0,0,-33.2,-867.68,553.71,-1,0.7,-2.12,73,0,0,0,0,0,0,0,0,0,0
395,0,0,0,0,0,-32.71,-870.61,550.78,-1.76,1.34,0.66,79,0,0,0,0,0,0,0,0,0,0
426,0,0,0,0,0,-22.95,-868.16,547.36,-0.85,0.65,-1.56,85,0,0,0,0,0,0,0,0,0,0
457,0,0,0,0,0,-32.71,-865.23,549.8,-1.13,2.92,1.2,91,0,0,0,0,0,0,0,0,0,0
488,0,0,0,0,0,-29.79,-867.68,540.04,-0.06,-2.17,-0.78,98,0,0,0,0,0,0,0,0,0,0
519,0,0,0,0,0,-30.27,-865.23,552.73,-2.02,1.59,-0.54,104,0,0,0,0,0,0,0,0,0,0
550,0,0,0,0,0,-20.51,-857.42,540.53,-1.11,0.44,-1.44,110,0,0,0,0,0,0,0,0,0,0
581,0,0,0,0,0,-39.55,-853.52,553.22,-2.32,-0.76,-3.13,116,0,0,0,0,0,0,0,0,0,0
612,0,0,0,0,0,-21.97,-881.84,549.32,-1.05,-0.08,-1.86,122,0,0,0,0,0,0,0,0,0,0
643,0,0,0,0,0,-16.11,-861.33,555.18,1.57,1.3,-0.8,129,0,0,0,0,0,0,0,0,0,0
674,0,0,0,0,0,-17.09,-872.07,566.89,0.7,-0.94,-1.21,135,0,0,0,0,0,0,0,0,0,0
704,0,0,0,0,0,-18.55,-864.75,548.34,0.01,-2.31,-0.66,141,0,0,0,0,0,0,0,0,0,0
735,0,0,0,0,0,-12.21,-870.12,559.08,2.63,-1.84,-1.64,147,0,0,0,0,0,0,0,0,0,0
767,0,0,0,0,0,-24.9,-862.79,551.76,0.75,-1.45,0.73,153,0,0,0,0,0,0,0,0,0,0
798,0,0,0,0,0,-34.67,-868.65,546.87,2.5,1.05,1.49,160,0,0,0,0,0,0,0,0,0,0
828,0,0,0,0,0,-19.04,-872.07,552.25,3.11,-2.73,1.9,166,0,0,0,0,0,0,0,0,0,0
859,0,0,0,0,0,-23.44,-872.56,548.83,-0.31,-1.52,-0.37,172,0,0,0,0,0,0,0,0,0,0
891,0,0,0,0,0,-25.88,-860.35,543.95,1.62,-0.79,-1.05,178,0,0,0,0,0,0,0,0,0,0
921,0,0,0,0,0,-26.37,-866.7,545.41,-0.82,3.34,-3.28,184,0,0,0,0,0,0,0,0,0,0
952,0,0,0,0,0,-28.32,-860.35,559.57,-2.45,2.1,-1.78,190,0,0,0,0,0,0,0,0,0,0
983,0,0,0,0,0,-52.73,-871.09,577.15,0.17,-2.27,0.51,197,0,0,0,0,0,0,0,0,0,0
1014,0,0,0,0,0,-21,-864.75,560.06,-5.27,3.84,-1.92,203,0,0,0,0,0,0,0,0,0,0
1045,0,0,0,0,0,-41.99,-856.93,559.57,-1.66,2.34,1.08,209,0,0,0,0,0,0,0,0,0,0
1076,0,0,0,0,0,-27.34,-865.72,549.32,0.2,-1.62,-0.52,215,0,0,0,0,0,0,0,0,0,0
1107,0,0,0,0,0,-27.34,-878.91,539.06,-0.38,-1.01,2.15,221,0,0,0,0,0,0,0,0,0,0
1138,0,0,0,0,0,-30.76,-867.68,557.13,2.09,0.49,2.47,228,0,0,0,0,0,0,0,0,0,0
1169,0,0,0,0,0,-29.79,-864.75,544.43,2.53,-2.35,0.25,234,0,0,0,0,0,0,0,0,0,0
1200,0,0,0,0,0,-23.93,-860.35,537.6,1.27,2.66,-1.98,240,0,0,0,0,0,0,0,0,0,0
1231,0,0,0,0,0,-30.76,-866.7,571.29,0.37,-1.07,-2.24,246,0,0,0,0,0,0,0,0,0,0
1262,0,0,0,0,0,-15.14,-858.89,572.27,-0.28,0.12,0.85,252,0,0,0,0,0,0,0,0,0,0
1293,0,0,0,0,0,-28.32,-857.42,561.52,3.26,0.16,2.23,259,0,0,0,0,0,0,0,0,0,0
1324,0,0,0,0,0,-29.79,-865.23,567.87,0.54,1.49,-0.66,265,0,0,0,0,0,0,0,0,0,0
1355,0,0,0,0,0,-34.67,-861.82,563.96,0,2.02,1.34,271,0,0,0,0,0,0,0,0,0,0
1386,0,0,0,0,0,-38.09,-871.09,553.22,-0.05,1.96,-0.69,277,0,0,0,0,0,0,0,0,0,0
1417,0,0,0,0,0,-22.46,-868.16,551.27,0.51,1.72,0.72,283,0,0,0,0,0,0,0,0,0,0
1448,0,0,0,0,0,-11.72,-869.14,563.96,-0.73,0.6,-2.24,290,0,0,0,0,0,0,0,0,0,0
1479,0,0,0,0,0,-21,-860.35,551.27,1.22,-1.32,0.69,296,0,0,0,0,0,0,0,0,0,0
1510,0,0,0,0,0,-25.88,-864.26,553.22,0.6,-0.33,-2.45,302,0,0,0,0,0,0,0,0,0,0
1540,0,0,0,0,0,-14.16,-853.03,568.85,2.56,0.21,-0.22,308,0,0,0,0,0,0,0,0,0,0
1571,0,0,0,0,0,-23.44,-854.49,558.59,1.06,0.25,-1.48,314,0,0,0,0,0,0,0,0,0,0
1601,0,0,0,0,0,-32.23,-867.68,562.01,4.33,-1.31,-1.01,320,0,0,0,0,0,0,0,0,0,0
1631,0,0,0,0,0,-35.64,-852.05,577.64,5.82,-1.32,-2.18,326,0,0,0,0,0,0,0,0,0,0
1662,0,0,0,0,0,-20.51,-862.3,571.29,1.08,1.18,0.63,332,0,0,0,0,0,0,0,0,0,0
1692,0,0,0,0,0,-20.02,-856.45,576.66,2.34,-2.69,-2.49,338,0,0,0,0,0,0,0,0,0,0
1723,0,0,0,0,0,-27.34,-857.42,562.01,1.24,-0.05,0.32,345,0,0,0,0,0,0,0,0,0,0
1754,0,0,0,0,0,-27.34,-855.47,564.94,-1.29,-0.53,-0.4,351,0,0,0,0,0,0,0,0,0,0
1785,0,0,0,0,0,-23.44,-842.29,580.08,-0.05,0.5,-2.18,357,0,0,0,0,0,0,0,0,0,0
1815,0,0,0,0,0,-31.25,-863.28,564.94,0.96,-0.4,-1.21,363,0,0,0,0,0,0,0,0,0,0
1846,0,0,0,0,0,-28.32,-862.79,555.18,2.34,-1.73,-1.67,369,0,0,0,0,0,0,0,0,0,0
1877,0,0,0,0,0,-24.9,-851.56,548.34,5.29,-3.66,0.67,375,0,0,0,0,0,0,0,0,0,0
1907,0,0,0,0,0,-17.09,-852.54,569.82,6.8,-6.13,-0.76,381,0,0,0,0,0,0,0,0,0,0
1938,0,0,0,0,0,-17.09,-847.17,579.59,2.62,-1.31,-0.15,388,0,0,0,0,0,0,0,0,0,0
1969,0,0,0,0,0,-13.67,-839.84,572.75,3.66,-2.46,0.56,394,0,0,0,0,0,0,0,0,0,0
2000,0,0,0,0,0,-16.6,-830.57,587.89,2.85,-3.74,0.98,400,0,0,0,0,0,0,0,0,0,0
2031,0,0,0,0,0,-14.16,-837.4,573.24,0.41,-1.13,3.14,406,0,0,0,0,0,0,0,0,0,0
2062,0,0,0,0,0,-10.74,-845.7,586.91,-0.65,-2.82,-2.92,412,0,0,0,0,0,0,0,0,0,0
2093,0,0,0,0,0,-21.48,-842.29,581.54,-1.13,-0.35,2.98,419,0,0,0,0,0,0,0,0,0,0
2124,0,0,0,0,0,-17.09,-845.21,576.17,0.34,2.91,-0.27,425,0,0,0,0,0,0,0,0,0,0
2155,0,0,0,0,0,-9.77,-852.05,588.38,-2.05,1.13,-1.72,431,0,0,0,0,0,0,0,0,0,0
2186,0,0,0,0,0,-6.35,-851.56,562.01,2.66,0.02,-3.16,437,0,0,0,0,0,0,0,0,0,0
2217,0,0,0,0,0,-6.35,-840.82,565.92,0.62,1.44,-4.21,443,0,0,0,0,0,0,0,0,0,0
2248,0,0,0,0,0,-0.49,-828.61,586.91,-3.32,0.7,-2.14,450,0,0,0,0,0,0,0,0,0,0
2279,0,0,0,0,0,-23.93,-838.38,588.87,-1.47,1.87,1.87,456,0,0,0,0,0,0,0,0,0,0
2310,0,0,0,0,0,-12.7,-857.42,583.98,-0.47,-0.16,-2.02,462,0,0,0,0,0,0,0,0,0,0
2341,0,0,0,0,0,-5.86,-818.85,572.27,0.73,1.79,-2.18,468,0,0,0,0,0,0,0,0,0,0
2372,0,0,0,0,0,9.77,-807.13,598.63,-5.26,2.35,5.78,474,0,0,0,0,0,0,0,0,0,0
2403,0,0,0,0,0,-16.6,-843.75,573.24,-4.67,2.3,6.83,481,0,0,0,0,0,0,0,0,0,0
2434,0,0,0,0,0,-59.08,-885.74,558.59,-9.56,5.17,-0.27,487,0,0,0,0,0,0,0,0,0,0
2465,0,0,0,0,0,-15.14,-840.82,564.94,-1.55,2.65,0.45,493,0,0,0,0,0,0,0,0,0,0
2496,0,0,0,0,0,-21.48,-848.14,557.62,-3.07,0.09,1.6,499,0,0,0,0,0,0,0,0,0,0
2527,0,0,0,0,0,-22.46,-842.29,567.87,-4.09,0.98,0.15,505,0,0,0,0,0,0,0,0,0,0
2558,0,0,0,0,0,-19.53,-850.1,555.18,-6.33,1.95,2.84,512,0,0,0,0,0,0,0,0,0,0
2589,0,0,0,0,0,-27.34,-855.96,566.89,-5.78,4.15,6.16,518,0,0,0,0,0,0,0,0,0,0
2620,0,0,0,0,0,-49.8,-875.98,538.57,-4.8,-0.37,3.37,524,0,0,0,0,0,0,0,0,0,0
2651,0,0,0,0,0,-25.88,-840.33,573.73,-7.02,1.21,3.13,530,0,0,0,0,0,0,0,0,0,0
2682,0,0,0,0,0,-55.66,-870.61,543.95,-12.12,3.57,4.59,536,0,0,0,0,0,0,0,0,0,0
2713,0,0,0,0,0,-41.5,-897.46,539.55,-11.69,0.24,-0.4,543,0,0,0,0,0,0,0,0,0,0
2744,0,0,0,0,0,-205.08,-915.53,474.12,-13.55,-10.66,9.31,549,0,0,0,0,0,0,0,0,0,0
2775,0,0,0,0,0,-257.32,-1110.84,330.57,-1.96,-51.87,26.95,555,0,0,0,0,0,0,0,0,0,0
2806,0,0,0,0,0,-135.74,-823.24,247.07,4.63,-82.24,39.73,561,0,0,0,0,0,0,0,0,0,0
2837,0,0,0,0,0,-29.3,-1006.84,-83.01,-129.34,-15.89,28.82,567,0,0,0,0,0,0,0,0,0,0
2868,0,0,0,0,0,-482.91,-531.25,428.71,-18.57,-30.56,21.83,574,0,0,0,0,0,0,0,0,0,0
2899,0,0,0,0,0,-149.9,-986.82,283.69,-34.79,8.83,25.69,580,0,0,0,0,0,0,0,0,0,0
2930,0,0,0,0,0,-157.71,-1053.71,243.16,-28.03,8.13,33.85,586,0,0,0,0,0,0,0,0,0,0
2961,0,0,0,0,0,-119.14,-981.45,269.53,-27.69,-10.87,30.93,592,0,0,0,0,0,0,0,0,0,0
2992,0,0,0,0,0,-68.85,-927.73,310.06,-23.15,-29.87,20.36,598,0,0,0,0,0,0,0,0,0,0
3023,0,0,0,0,0,-6.35,-1030.27,347.17,-19.5,-39.59,8.53,605,0,0,0,0,0,0,0,0,0,0
3054,0,0,0,0,0,78.12,-933.11,385.74,-36.82,-42.76,5.09,611,0,0,0,0,0,0,0,0,0,0
3085,0,0,0,0,0,62.99,-985.35,439.45,-44.9,-33.92,2.98,617,0,0,0,0,0,0,0,0,0,0
3116,0,0,0,0,0,91.31,-976.07,473.63,-30.76,-32.26,9.05,623,0,0,0,0,0,0,0,0,0,0
3147,0,0,0,0,0,108.89,-965.33,490.72,-9.55,-37.82,10.58,629,0,0,0,0,0,0,0,0,0,0
3178,0,0,0,0,0,127.44,-875.98,489.26,0.94,-30.66,23.76,636,0,0,0,0,0,0,0,0,0,0
3208,0,0,0,0,0,119.63,-849.12,519.53,-5.99,-21.38,24.5,642,0,0,0,0,0,0,0,0,0,0
3239,0,0,0,0,0,59.57,-918.95,530.76,1.88,-25.09,20.63,648,0,0,0,0,0,0,0,0,0,0
3269,0,0,0,0,0,45.41,-871.09,492.19,16.92,-33.65,5.89,654,0,0,0,0,0,0,0,0,0,0
3299,0,0,0,0,0,49.32,-924.32,515.62,25.5,-42.56,1.33,660,0,0,0,0,0,0,0,0,0,0
3330,0,0,0,0,0,11.23,-878.42,502.44,34.17,-42.21,4.72,666,0,0,0,0,0,0,0,0,0,0
3360,0,0,0,0,0,-17.58,-863.77,515.14,20.1,-34.9,3.59,672,0,0,0,0,0,0,0,0,0,0
3391,0,0,0,0,0,-59.08,-892.58,499.51,26.82,-40.08,0.79,678,0,0,0,0,0,0,0,0,0,0
3422,0,0,0,0,0,-70.8,-799.32,496.09,19.68,-40.47,-5.52,684,0,0,0,0,0,0,0,0,0,0
3453,0,0,0,0,0,-70.8,-843.75,498.05,19.2,-45.4,-5.2,691,0,0,0,0,0,0,0,0,0,0
3483,0,0,0,0,0,-62.5,-709.96,443.36,21.18,-43.81,-4.58,697,0,0,0,0,0,0,0,0,0,0
3514,0,0,0,0,0,-88.38,-689.45,449.22,-3.51,-38.74,-8.53,703,0,0,0,0,0,0,0,0,0,0
3545,0,0,0,0,0,1151.86,-182.62,679.69,246.19,35.81,-34.16,709,0,0,0,0,0,0,0,0,0,0
3576,0,0,0,0,0,797.36,-2000,169.43,-76.27,34.03,-28.67,715,0,0,0,0,0,0,0,0,0,0
3606,0,0,0,0,0,-4.39,-1110.35,655.76,-42.56,15.57,-11.15,721,0,0,0,0,0,0,0,0,0,0
3637,0,0,0,0,0,52.25,-793.46,596.19,-7.47,-20.05,-3.18,727,0,0,0,0,0,0,0,0,0,0
3668,0,0,0,0,0,-69.82,-973.14,403.32,28.98,12.34,6.02,734,0,0,0,0,0,0,0,0,0,0
3699,0,0,0,0,0,-26.37,-880.37,561.04,28.56,-3.13,4.51,740,0,0,0,0,0,0,0,0,0,0
3730,0,0,0,0,0,-46.39,-884.28,536.13,-4.59,-1.86,-1.54,746,0,0,0,0,0,0,0,0,0,0
3761,0,0,0,0,0,-16.11,-873.54,525.39,4.48,6.49,1.32,752,0,0,0,0,0,0,0,0,0,0
3792,0,0,0,0,0,-34.18,-922.85,532.71,-1.26,9.75,7.44,758,0,0,0,0,0,0,0,0,0,0
3823,0,0,0,0,0,-120.12,-903.81,467.29,6.69,-0.76,8.57,765,0,0,0,0,0,0,0,0,0,0
3854,0,0,0,0,0,-42.97,-874.51,545.41,16.9,-3.28,1.25,771,0,0,0,0,0,0,0,0,0,0
3885,0,0,0,0,0,-67.38,-860.35,539.06,10.3,2.96,3.96,777,0,0,0,0,0,0,0,0,0,0
3916,0,0,0,0,0,-56.64,-867.19,528.32,12.66,-1.11,-4.34,783,0,0,0,0,0,0,0,0,0,0
3947,0,0,0,0,0,-56.64,-867.68,520.51,16.06,-8.52,-12.07,789,0,0,0,0,0,0,0,0,0,0
3978,0,0,0,0,0,-16.11,-848.63,581.54,0.79,3.45,-0.69,796,0,0,0,0,0,0,0,0,0,0
4011,0,0,0,0,0,-4.88,-890.14,550.29,8.13,-11.21,-5.24,802,0,0,0,0,0,0,0,0,0,0
4042,0,0,0,0,0,-52.25,-850.1,567.38,12.2,-6.52,0.15,808,0,0,0,0,0,0,0,0,0,0
4073,0,0,0,0,0,-35.16,-858.4,558.59,8.47,-3.53,-0.5,815,0,0,0,0,0,0,0,0,0,0
4104,0,0,0,0,0,-25.39,-902.34,548.34,16.15,-4.64,-3.8,821,0,0,0,0,0,0,0,0,0,0
4135,0,0,0,0,0,-1.95,-866.7,582.03,15.02,-8.05,-1,827,0,0,0,0,0,0,0,0,0,0
4166,0,0,0,0,0,-26.86,-843.75,602.54,10.01,-6.7,-0.53,833,0,0,0,0,0,0,0,0,0,0
4197,0,0,0,0,0,-46.39,-858.89,583.5,12.71,-1.51,0.03,839,0,0,0,0,0,0,0,0,0,0
4228,0,0,0,0,0,-12.7,-811.04,617.19,11.92,-4.34,-1.59,846,0,0,0,0,0,0,0,0,0,0
4259,0,0,0,0,0,-21.48,-817.38,596.68,8.02,-0.56,-1.64,852,0,0,0,0,0,0,0,0,0,0
4290,0,0,0,0,0,-24.9,-826.17,609.37,4.82,0.43,-2.47,858,0,0,0,0,0,0,0,0,0,0
4321,0,0,0,0,0,-18.55,-832.52,605.96,6.6,0.62,-0.6,864,0,0,0,0,0,0,0,0,0,0
4352,0,0,0,0,0,-24.41,-806.15,617.19,3.31,0.9,-2.6,870,0,0,0,0,0,0,0,0,0,0
4383,0,0,0,0,0,-14.65,-832.03,616.21,1.74,2.52,-3.27,877,0,0,0,0,0,0,0,0,0,0
4414,0,0,0,0,0,-30.27,-832.52,617.68,-2.56,-0.31,-0.99,883,0,0,0,0,0,0,0,0,0,0
4445,0,0,0,0,0,-46.39,-825.68,613.28,-1.42,5.22,1.15,889,0,0,0,0,0,0,0,0,0,0
4476,0,0,0,0,0,-42.48,-833.01,568.85,-6.44,2.84,-3.13,895,0,0,0,0,0,0,0,0,0,0
4507,0,0,0,0,0,-27.34,-850.59,580.08,1.77,-1.34,-1.25,901,0,0,0,0,0,0,0,0,0,0
4538,0,0,0,0,0,-35.16,-812.99,608.89,9.48,-2.26,-1.97,908,0,0,0,0,0,0,0,0,0,0
4569,0,0,0,0,0,-36.13,-829.59,588.38,2.95,-3.91,-0.24,914,0,0,0,0,0,0,0,0,0,0
4600,0,0,0,0,0,-8.3,-816.41,614.26,1.14,-2.65,1.15,920,0,0,0,0,0,0,0,0,0,0
4631,0,0,0,0,0,-24.9,-819.34,667.48,4.44,-0.63,1.8,926,0,0,0,0,0,0,0,0,0,0
4661,0,0,0,0,0,-8.79,-823.24,609.37,6.33,-1.13,1.12,932,0,0,0,0,0,0,0,0,0,0
4693,0,0,0,0,0,-26.86,-843.26,586.43,2.79,-3.32,-1.79,939,0,0,0,0,0,0,0,0,0,0
4724,0,0,0,0,0,-48.34,-822.27,580.08,-0.38,-1.37,0.94,945,0,0,0,0,0,0,0,0,0,0
4754,0,0,0,0,0,-24.41,-807.62,644.04,-2.12,2.36,-0.59,951,0,0,0,0,0,0,0,0,0,0
4785,0,0,0,0,0,-34.18,-858.89,575.2,-7.15,-1.03,1.44,957,0,0,0,0,0,0,0,0,0,0
4817,0,0,0,0,0,-32.71,-835.45,599.12,5.61,-3.89,0.87,963,0,0,0,0,0,0,0,0,0,0
4847,0,0,0,0,0,-19.04,-825.68,600.1,5.97,-4,-1.29,969,0,0,0,0,0,0,0,0,0,0
4878,0,0,0,0,0,-32.23,-808.59,609.37,4.47,-5.35,0.22,976,0,0,0,0,0,0,0,0,0,0
4908,0,0,0,0,0,-12.21,-827.15,633.79,2.79,-6.02,0.85,982,0,0,0,0,0,0,0,0,0,0
4939,0,0,0,0,0,-38.09,-819.82,617.68,2.34,-3.91,2.34,988,0,0,0,0,0,0,0,0,0,0
4969,0,0,0,0,0,-29.79,-803.22,617.19,6.8,-4.66,4.47,994,0,0,0,0,0,0,0,0,0,0
5000,0,0,0,0,0,-25.88,-805.66,624.02,7.69,-6.93,2.23,1000,0,0,0,0,0,0,0,0,0,0
5030,0,0,0,0,0,-32.23,-836.91,609.86,4.87,-5.34,4.23,1006,0,0,0,0,0,0,0,0,0,0
5061,0,0,0,0,0,-22.95,-845.21,604,-1.35,-9.02,6.85,1012,0,0,0,0,0,0,0,0,0,0
5092,0,0,0,0,0,27.83,-932.13,610.84,-8.03,-7.63,20.51,1018,0,0,0,0,0,0,0,0,0,0
5122,0,0,0,0,0,-78.12,-855.47,702.15,-3.61,10.37,37.77,1024,0,0,0,0,0,0,0,0,0,0
5153,0,0,0,0,0,-884.77,-1233.4,295.41,-29.36,-44.85,110.28,1031,0,0,0,0,0,0,0,0,0,0
5184,0,0,0,0,0,-743.16,-2000,70.31,113.51,-250.14,155.99,1037,0,0,0,0,0,0,0,0,0,0
5214,0,0,0,0,0,621.58,-355.47,907.23,250.13,-250.14,190.05,1043,0,0,0,0,0,0,0,0,0,0
5245,0,0,0,0,0,-258.3,-1352.05,-13.18,-82.82,-250.14,196.35,1049,0,0,0,0,0,0,0,0,0,0
5276,0,0,0,0,0,-200.68,-1157.23,362.3,0.22,-250.14,84.03,1055,0,0,0,0,0,0,0,0,0,0
5307,0,0,0,0,0,-184.57,-886.23,486.82,-72.6,-250.14,98.86,1061,0,0,0,0,0,0,0,0,0,0
5338,0,0,0,0,0,-232.91,-870.12,362.3,-74.47,-250.14,68.4,1068,0,0,0,0,0,0,0,0,0,0
5369,0,0,0,0,0,-164.06,-891.6,263.67,-88.85,-244.85,42.98,1074,0,0,0,0,0,0,0,0,0,0
5400,0,0,0,0,0,-135.25,-931.64,214.84,-65.67,-209.01,39.4,1080,0,0,0,0,0,0,0,0,0,0
5431,0,0,0,0,0,-43.95,-940.92,174.8,-18.5,-164.85,56.77,1086,0,0,0,0,0,0,0,0,0,0
5462,0,0,0,0,0,23.93,-847.66,120.61,21.74,-102.17,67.49,1092,0,0,0,0,0,0,0,0,0,0
5493,0,0,0,0,0,-14.65,-785.64,41.5,47.02,-57.29,69.6,1099,0,0,0,0,0,0,0,0,0,0
5523,0,0,0,0,0,-27.34,-744.63,10.74,51.47,-37.97,77.85,1105,0,0,0,0,0,0,0,0,0,0
5555,0,0,0,0,0,-29.3,-798.83,39.06,69.21,-34.93,80.08,1111,0,0,0,0,0,0,0,0,0,0
5586,0,0,0,0,0,41.99,-781.25,83.01,71.82,-12.36,82,1117,0,0,0,0,0,0,0,0,0,0
5617,0,0,0,0,0,95.21,-832.52,171.87,33.51,47.11,114.98,1123,0,0,0,0,0,0,0,0,0,0
5647,0,0,0,0,0,143.55,-931.64,238.28,-31.77,100.5,152.01,1129,0,0,0,0,0,0,0,0,0,0
5679,0,0,0,0,0,184.08,-1113.77,344.24,-67.05,131.54,135.64,1136,0,0,0,0,0,0,0,0,0,0
5710,0,0,0,0,0,456.05,-1182.62,598.63,-98.91,153.17,72.36,1142,0,0,0,0,0,0,0,0,0,0
5740,0,0,0,0,0,772.46,-1477.54,816.89,-81.26,202.87,24.09,1148,0,0,0,0,0,0,0,0,0,0
5771,0,0,0,0,0,786.13,-1066.41,872.56,-45.28,250.13,-0.26,1154,0,0,0,0,0,0,0,0,0,0
5803,0,0,0,0,0,739.26,-1002.93,822.75,-70.43,250.13,-35.91,1161,0,0,0,0,0,0,0,0,0,0
5833,0,0,0,0,0,525.88,-2000,1272.46,-22.79,250.13,-100.56,1167,0,0,0,0,0,0,0,0,0,0
5864,0,0,0,0,0,574.22,-1145.51,1345.21,55.24,250.13,-99.47,1173,0,0,0,0,0,0,0,0,0,0
5895,0,0,0,0,0,54.2,-1210.94,1125,250.13,115.56,-88.17,1179,0,0,0,0,0,0,0,0,0,0
5926,0,0,0,0,0,-2000,-744.63,910.64,250.13,-60.34,-25.02,1185,0,0,0,0,0,0,0,0,0,0
5957,0,0,0,0,0,1821.78,-818.85,959.47,37.27,-44.71,-27.02,1191,0,0,0,0,0,0,0,0,0,0
5988,0,0,0,0,0,26.37,-507.32,1161.13,67.11,-92.45,-7.6,1198,0,0,0,0,0,0,0,0,0,0
6019,0,0,0,0,0,229,-679.2,409.18,18.42,72.62,73.63,1204,0,0,0,0,0,0,0,0,0,0
6050,0,0,0,0,0,109.86,-644.53,586.43,51.43,-34.83,-39.73,1210,0,0,0,0,0,0,0,0,0,0
6081,0,0,0,0,0,-101.56,-801.27,657.71,21.56,-16.98,0.62,1216,0,0,0,0,0,0,0,0,0,0
6112,0,0,0,0,0,-19.04,-826.66,589.84,5.28,8.28,0.52,1222,0,0,0,0,0,0,0,0,0,0
6143,0,0,0,0,0,19.53,-841.8,575.68,21.31,-0.21,-5.61,1229,0,0,0,0,0,0,0,0,0,0
6174,0,0,0,0,0,-6.84,-793.46,626.95,19.02,-0.08,-1.62,1235,0,0,0,0,0,0,0,0,0,0
6205,0,0,0,0,0,-21.48,-796.39,643.07,0.79,4.03,-2.82,1241,0,0,0,0,0,0,0,0,0,0
6236,0,0,0,0,0,-4.88,-820.31,628.91,-1.63,11.27,-3.27,1247,0,0,0,0,0,0,0,0,0,0
6267,0,0,0,0,0,-411.62,-873.05,602.05,8.44,9.53,-5.77,1253,0,0,0,0,0,0,0,0,0,0
6298,0,0,0,0,0,-55.18,-1187.5,831.05,43.11,-177.03,31.31,1260,0,0,0,0,0,0,0,0,0,0
6329,0,0,0,0,0,446.78,-2000,-817.87,-80.47,250.13,-18.89,1266,0,0,0,0,0,0,0,0,0,0
6360,0,0,0,0,0,-193.85,269.53,-2000,60.83,-250.14,-44.31,1272,0,0,0,0,0,0,0,0,0,0
6391,0,0,0,0,0,803.71,293.46,-1740.23,-147.25,-101.52,-41.34,1278,0,0,0,0,0,0,0,0,0,0
6422,0,0,0,0,0,734.37,-634.77,832.52,-43.64,20.15,-12.88,1284,0,0,0,0,0,0,0,0,0,0
6453,0,0,0,0,0,-450.68,-361.82,1011.23,-33.41,20.44,-21.35,1291,0,0,0,0,0,0,0,0,0,0
6484,0,0,0,0,0,13.18,-916.5,333.5,-3.73,38.9,-3.53,1297,0,0,0,0,0,0,0,0,0,0
6515,0,0,0,0,0,121.09,-778.81,672.85,4.03,-32.44,3.95,1303,0,0,0,0,0,0,0,0,0,0
6545,0,0,0,0,0,-48.34,-729.49,735.84,9.97,-1.56,-2.14,1309,0,0,0,0,0,0,0,0,0,0
6576,0,0,0,0,0,-4.88,-818.36,625,-0.9,9.99,-1.72,1315,0,0,0,0,0,0,0,0,0,0
6606,0,0,0,0,0,4.39,-795.41,659.18,-0.53,-5.63,-0.64,1321,0,0,0,0,0,0,0,0,0,0
6636,0,0,0,0,0,-15.63,-785.64,655.27,0.53,-0.53,0.47,1327,0,0,0,0,0,0,0,0,0,0
6667,0,0,0,0,0,-49.8,-824.22,612.3,-6.11,-5.67,-1.62,1333,0,0,0,0,0,0,0,0,0,0
6697,0,0,0,0,0,-38.09,-836.91,605.96,-14.56,-15.79,-10.53,1339,0,0,0,0,0,0,0,0,0,0
6728,0,0,0,0,0,-48.83,-855.47,582.52,-30.46,-3.05,-29.42,1346,0,0,0,0,0,0,0,0,0,0
6759,0,0,0,0,0,-468.75,-767.09,861.82,-56.89,19.46,-27.17,1352,0,0,0,0,0,0,0,0,0,0
6790,0,0,0,0,0,-257.32,-1318.36,813.48,-76.63,-41.16,-99.73,1358,0,0,0,0,0,0,0,0,0,0
6820,0,0,0,0,0,0.49,-1048.34,422.85,-33.02,-59.95,-143.68,1364,0,0,0,0,0,0,0,0,0,0
6851,0,0,0,0,0,103.03,-731.45,-0.49,-16.76,2.36,-145.17,1370,0,0,0,0,0,0,0,0,0,0
6882,0,0,0,0,0,-374.02,-1105.47,333.5,9.53,8.08,-140.34,1376,0,0,0,0,0,0,0,0,0,0
6912,0,0,0,0,0,-613.28,-515.14,352.54,9.98,105.63,-98.51,1382,0,0,0,0,0,0,0,0,0,0
6943,0,0,0,0,0,-801.27,-605.47,334.47,12.52,146.88,-46.48,1389,0,0,0,0,0,0,0,0,0,0
6974,0,0,0,0,0,-654.79,-643.07,439.45,1.33,117.95,-15.66,1395,0,0,0,0,0,0,0,0,0,0
7012,0,0,0,0,0,-532.71,-756.84,626.95,-47.65,126.33,86.44,1402,0,0,0,0,0,0,0,0,0,0
7044,0,0,0,0,0,-411.62,-760.25,772.46,-33.45,115.32,86.05,1409,0,0,0,0,0,0,0,0,0,0
7075,0,0,0,0,0,-385.25,-809.08,808.59,-15.88,114.21,85.31,1415,0,0,0,0,0,0,0,0,0,0
7106,0,0,0,0,0,-344.73,-763.18,786.13,-18.63,96.87,78.91,1421,0,0,0,0,0,0,0,0,0,0
7137,0,0,0,0,0,-274.41,-907.23,822.27,-21.89,64.69,51.85,1427,0,0,0,0,0,0,0,0,0,0
7168,0,0,0,0,0,-150.39,-918.95,790.53,-31.31,36.99,33.23,1434,0,0,0,0,0,0,0,0,0,0
7199,0,0,0,0,0,161.62,-1334.47,815.43,-33.37,47.22,61.25,1440,0,0,0,0,0,0,0,0,0,0
7230,0,0,0,0,0,235.84,-1029.3,764.65,9.92,90.85,126.41,1446,0,0,0,0,0,0,0,0,0,0
7261,0,0,0,0,0,226.07,-973.14,549.32,-6.78,97.31,99.1,1452,0,0,0,0,0,0,0,0,0,0
7292,0,0,0,0,0,372.07,-784.67,500.49,-27.5,75.89,25.92,1458,0,0,0,0,0,0,0,0,0,0
7323,0,0,0,0,0,407.71,-968.26,516.6,-43.96,81.56,13.47,1465,0,0,0,0,0,0,0,0,0,0
7354,0,0,0,0,0,213.87,-907.23,584.47,5.93,59.23,42.58,1471,0,0,0,0,0,0,0,0,0,0
7385,0,0,0,0,0,104.49,-522.95,287.11,147.44,-76.54,-19.56,1477,0,0,0,0,0,0,0,0,0,0
7416,0,0,0,0,0,495.12,-519.53,635.25,2.37,-122.89,-51.5,1483,0,0,0,0,0,0,0,0,0,0
7447,0,0,0,0,0,-512.21,-285.16,589.84,-48.81,-157.08,-91.63,1489,0,0,0,0,0,0,0,0,0,0
7478,0,0,0,0,0,184.57,-1283.69,927.25,93.15,-85.08,-157.6,1496,0,0,0,0,0,0,0,0,0,0
7509,0,0,0,0,0,270.02,-1701.66,30.76,82.79,-50.73,-159.96,1502,0,0,0,0,0,0,0,0,0,0
7540,0,0,0,0,0,-62.99,-765.62,444.82,17.34,-12.67,-79.92,1508,0,0,0,0,0,0,0,0,0,0
7571,0,0,0,0,0,112.79,-634.28,1089.84,58.37,1.6,-7.15,1514,0,0,0,0,0,0,0,0,0,0
7602,0,0,0,0,0,-24.41,-779.3,585.45,-14,9.21,-0.03,1520,0,0,0,0,0,0,0,0,0,0
7633,0,0,0,0,0,-50.29,-822.27,615.72,-1.33,2.4,-0.79,1527,0,0,0,0,0,0,0,0,0,0
7664,0,0,0,0,0,-53.71,-824.71,613.28,-10.85,5.18,-0.57,1533,0,0,0,0,0,0,0,0,0,0
7695,0,0,0,0,0,-19.04,-851.07,546.87,2.17,-0.69,-0.95,1539,0,0,0,0,0,0,0,0,0,0
7726,0,0,0,0,0,-21,-842.29,596.68,18.45,-9.99,-0.15,1545,0,0,0,0,0,0,0,0,0,0
7756,0,0,0,0,0,-3.91,-779.79,666.99,8.3,-3.17,-4.77,1551,0,0,0,0,0,0,0,0,0,0
7787,0,0,0,0,0,-21.48,-786.62,612.79,-8.68,1.21,-1.7,1557,0,0,0,0,0,0,0,0,0,0
7818,0,0,0,0,0,-13.67,-836.43,588.38,-6.91,0.47,-2.38,1564,0,0,0,0,0,0,0,0,0,0
7849,0,0,0,0,0,-12.21,-821.29,618.16,-5.92,-0.46,-3.22,1570,0,0,0,0,0,0,0,0,0,0
7880,0,0,0,0,0,-17.58,-852.05,599.12,0.48,-0.05,-3.73,1576,0,0,0,0,0,0,0,0,0,0
7911,0,0,0,0,0,-12.7,-821.78,606.93,1.28,-1.23,1.59,1582,0,0,0,0,0,0,0,0,0,0
7942,0,0,0,0,0,-21.97,-832.03,589.84,4.09,0.31,-1.12,1588,0,0,0,0,0,0,0,0,0,0
7973,0,0,0,0,0,-22.46,-834.47,602.05,7.85,-3.47,-1.73,1595,0,0,0,0,0,0,0,0,0,0
8004,0,0,0,0,0,-21.97,-818.36,624.02,4.27,-0.7,-0.96,1601,0,0,0,0,0,0,0,0,0,0
8035,0,0,0,0,0,-21.97,-809.08,620.12,4.02,-0.41,-1.17,1607,0,0,0,0,0,0,0,0,0,0
8066,0,0,0,0,0,-16.11,-821.29,605.96,1.34,0.24,-1.75,1613,0,0,0,0,0,0,0,0,0,0
8097,0,0,0,0,0,-23.44,-825.2,587.89,-2.76,1.34,1.16,1619,0,0,0,0,0,0,0,0,0,0
8128,0,0,0,0,0,-11.72,-838.38,599.61,2.52,-2.07,-2.11,1626,0,0,0,0,0,0,0,0,0,0
8159,0,0,0,0,0,-24.9,-797.85,632.81,1.84,-0.63,-0.34,1632,0,0,0,0,0,0,0,0,0,0
8189,0,0,0,0,0,-8.79,-822.75,619.14,-1.91,2.09,0.1,1638,0,0,0,0,0,0,0,0,0,0
8219,0,0,0,0,0,-5.37,-808.59,638.18,-8.15,10.57,-0.11,1644,0,0,0,0,0,0,0,0,0,0
8250,0,0,0,0,0,21,-789.55,643.55,-9.04,9.92,1.24,1650,0,0,0,0,0,0,0,0,0,0
8280,0,0,0,0,0,-5.37,-823.24,628.42,-15.04,8.73,0.31,1656,0,0,0,0,0,0,0,0,0,0
8311,0,0,0,0,0,-195.31,-960.45,346.19,-36.79,-2.89,-0.49,1662,0,0,0,0,0,0,0,0,0,0
8341,0,0,0,0,0,-176.27,-968.26,588.38,-50.08,-5.72,-16.89,1668,0,0,0,0,0,0,0,0,0,0
8372,0,0,0,0,0,26.37,-896,623.54,-47.19,-3.53,-28.58,1674,0,0,0,0,0,0,0,0,0,0
8403,0,0,0,0,0,-155.27,-1092.77,970.21,-58.95,-53.92,-59.64,1681,0,0,0,0,0,0,0,0,0,0
8433,0,0,0,0,0,90.33,-874.51,462.89,-86.9,-31.47,-63.02,1687,0,0,0,0,0,0,0,0,0,0
8464,0,0,0,0,0,10.74,-1220.21,473.63,-70.93,-12.34,-67.77,1693,0,0,0,0,0,0,0,0,0,0
8495,0,0,0,0,0,112.3,-860.84,423.34,-39.76,0.72,-71.22,1699,0,0,0,0,0,0,0,0,0,0
8525,0,0,0,0,0,-122.07,-874.51,317.87,-42.69,34.94,-68.39,1705,0,0,0,0,0,0,0,0,0,0
8556,0,0,0,0,0,-288.57,-948.24,327.64,-8.53,26.99,-47.58,1711,0,0,0,0,0,0,0,0,0,0
8587,0,0,0,0,0,-340.82,-733.89,351.07,28.67,24,-10.01,1717,0,0,0,0,0,0,0,0,0,0
8618,0,0,0,0,0,-262.21,-809.57,362.3,29.21,38.42,57.31,1724,0,0,0,0,0,0,0,0,0,0
8649,0,0,0,0,0,-193.36,-689.94,357.42,23.42,37.82,72.07,1730,0,0,0,0,0,0,0,0,0,0
8680,0,0,0,0,0,-155.27,-835.94,433.11,6.17,42.58,57.79,1736,0,0,0,0,0,0,0,0,0,0
8711,0,0,0,0,0,-125,-979.49,479.98,11.83,40.34,49.83,1742,0,0,0,0,0,0,0,0,0,0
8742,0,0,0,0,0,-31.25,-958.01,476.07,2.88,38.5,63.27,1748,0,0,0,0,0,0,0,0,0,0
8773,0,0,0,0,0,10.25,-997.56,497.07,1.82,31.02,52.93,1755,0,0,0,0,0,0,0,0,0,0
8804,0,0,0,0,0,69.82,-949.22,502.44,6.99,13.72,18.51,1761,0,0,0,0,0,0,0,0,0,0
8835,0,0,0,0,0,169.92,-1045.41,554.69,-9.17,-0.67,10,1767,0,0,0,0,0,0,0,0,0,0
8866,0,0,0,0,0,239.26,-1003.91,585.45,-8.47,8.08,44.78,1773,0,0,0,0,0,0,0,0,0,0
8897,0,0,0,0,0,252.44,-970.21,578.61,8.41,-1.87,39.92,1779,0,0,0,0,0,0,0,0,0,0
8928,0,0,0,0,0,266.11,-864.75,536.62,12.98,-6.6,34.18,1786,0,0,0,0,0,0,0,0,0,0
8958,0,0,0,0,0,220.21,-921.87,533.2,17.24,-22.54,26.57,1792,0,0,0,0,0,0,0,0,0,0
8990,0,0,0,0,0,206.05,-808.11,521.48,19.73,-29.27,20.14,1798,0,0,0,0,0,0,0,0,0,0
9021,0,0,0,0,0,127.93,-856.93,477.05,8.05,-34.32,8.94,1804,0,0,0,0,0,0,0,0,0,0
9052,0,0,0,0,0,106.45,-785.64,453.12,-9.79,-33.18,1.95,1810,0,0,0,0,0,0,0,0,0,0
9082,0,0,0,0,0,81.54,-791.5,397.95,-25.12,-37.66,-3.84,1816,0,0,0,0,0,0,0,0,0,0
9114,0,0,0,0,0,86.91,-716.31,352.05,-43.26,-43.89,-26.36,1823,0,0,0,0,0,0,0,0,0,0
9144,0,0,0,0,0,353.52,206.54,-11.23,250.13,-63.48,-47.25,1829,0,0,0,0,0,0,0,0,0,0
9175,0,0,0,0,0,-324.71,-776.37,508.79,77.18,0.18,16.95,1835,0,0,0,0,0,0,0,0,0,0
9206,0,0,0,0,0,-34.67,-979.49,377.93,17.68,2.14,1.33,1841,0,0,0,0,0,0,0,0,0,0
9237,0,0,0,0,0,-54.69,-823.24,621.58,2.56,-10.96,0.57,1847,0,0,0,0,0,0,0,0,0,0
9268,0,0,0,0,0,-68.85,-838.87,573.73,3.85,2.5,-1.77,1854,0,0,0,0,0,0,0,0,0,0
9299,0,0,0,0,0,-15.63,-854,569.34,9.95,-2.03,-0.93,1860,0,0,0,0,0,0,0,0,0,0
9330,0,0,0,0,0,-30.27,-838.87,567.38,18.03,-9.58,-0.85,1866,0,0,0,0,0,0,0,0,0,0
9361,0,0,0,0,0,-50.29,-835.45,609.86,23.46,-6.18,-1.61,1872,0,0,0,0,0,0,0,0,0,0
9392,0,0,0,0,0,-32.71,-837.4,597.66,20.6,-1.34,-3.11,1878,0,0,0,0,0,0,0,0,0,0
9423,0,0,0,0,0,-25.39,-801.76,633.3,14.31,0.82,-2.8,1885,0,0,0,0,0,0,0,0,0,0
9454,0,0,0,0,0,-32.23,-810.06,635.25,5.33,-0.72,-2.85,1891,0,0,0,0,0,0,0,0,0,0
9485,0,0,0,0,0,-35.16,-803.22,641.11,-2.26,1.98,-3.62,1897,0,0,0,0,0,0,0,0,0,0
9516,0,0,0,0,0,-18.07,-816.89,631.84,-3.89,1.68,-1.47,1903,0,0,0,0,0,0,0,0,0,0
9547,0,0,0,0,0,-36.13,-820.8,614.75,-4.94,5.74,-1.31,1909,0,0,0,0,0,0,0,0,0,0
9578,0,0,0,0,0,-23.44,-824.22,603.03,-5.21,3.18,-1.72,1916,0,0,0,0,0,0,0,0,0,0
9626,0,0,0,0,0,-31.74,-823.73,629.88,-0.82,1.37,-0.29,1925,0,0,0,0,0,0,0,0,0,0
9657,0,0,0,0,0,-27.34,-823.73,605.96,-0.61,-1.62,0.95,1931,0,0,0,0,0,0,0,0,0,0
9688,0,0,0,0,0,-27.83,-823.24,627.93,5.99,-4.38,1.62,1938,0,0,0,0,0,0,0,0,0,0
9719,0,0,0,0,0,-20.51,-818.85,622.07,0.18,0.37,0.55,1944,0,0,0,0,0,0,0,0,0,0
9750,0,0,0,0,0,-25.39,-847.66,620.12,-2.58,-6.53,2.08,1950,0,0,0,0,0,0,0,0,0,0
9781,0,0,0,0,0,-30.27,-812.99,633.79,-1.94,-5.98,2.03,1956,0,0,0,0,0,0,0,0,0,0
9812,0,0,0,0,0,-18.07,-814.45,626.46,-3.53,0.85,-1.4,1962,0,0,0,0,0,0,0,0,0,0
9842,0,0,0,0,0,-20.02,-837.89,621.58,-1.41,0.04,-1.37,1968,0,0,0,0,0,0,0,0,0,0
9873,0,0,0,0,0,-30.27,-820.8,614.75,0.72,3.83,-2.14,1975,0,0,0,0,0,0,0,0,0,0
9903,0,0,0,0,0,-27.34,-819.34,616.21,-2.2,0.01,0.89,1981,0,0,0,0,0,0,0,0,0,0
9933,0,0,0,0,0,-25.88,-816.89,615.72,-2.6,4.01,-1.08,1987,0,0,0,0,0,0,0,0,0,0
9964,0,0,0,0,0,-10.74,-827.15,618.65,-4.77,3.72,-1.61,1993,0,0,0,0,0,0,0,0,0,0
9994,0,0,0,0,0,-28.32,-826.66,624.02,-0.59,1.94,-1.98,1999,0,0,0,0,0,0,0,0,0,0
10025,0,0,0,0,0,-27.34,-823.73,620.61,-2.04,-1.95,-1.44,2005,0,0,0,0,0,0,0,0,0,0
10056,0,0,0,0,0,-30.27,-818.85,625.98,1.56,0.27,-0.26,2011,0,0,0,0,0,0,0,0,0,0
10086,0,0,0,0,0,-26.37,-823.24,623.05,-1.96,1.87,-1.8,2017,0,0,0,0,0,0,0,0,0,0
10117,0,0,0,0,0,-26.86,-825.68,605.47,-2.87,1.53,0.51,2023,0,0,0,0,0,0,0,0,0,0
10147,0,0,0,0,0,-22.46,-820.8,625,-6.92,0.55,-0.91,2029,0,0,0,0,0,0,0,0,0,0
10178,0,0,0,0,0,-28.81,-818.85,631.35,-6.72,2.95,0.44,2036,0,0,0,0,0,0,0,0,0,0
10209,0,0,0,0,0,-35.64,-808.59,629.39,-19.87,0.81,2.63,2042,0,0,0,0,0,0,0,0,0,0
10239,0,0,0,0,0,-51.27,-835.94,611.82,-34.2,-8.44,-3.37,2048,0,0,0,0,0,0,0,0,0,0
10270,0,0,0,0,0,-87.4,-883.79,510.25,-58.94,-16.89,-20.45,2054,0,0,0,0,0,0,0,0,0,0
10301,0,0,0,0,0,-170.41,-1024.9,741.7,-18.18,-0.47,-47.6,2060,0,0,0,0,0,0,0,0,0,0
10332,0,0,0,0,0,-249.51,-1553.22,846.68,-31.76,-36.11,-98.79,2066,0,0,0,0,0,0,0,0,0,0
10363,0,0,0,0,0,-156.74,-1256.35,699.71,-27.48,3.69,-122.85,2073,0,0,0,0,0,0,0,0,0,0
10394,0,0,0,0,0,-400.39,-1432.62,540.53,-58.63,13.18,-78.71,2079,0,0,0,0,0,0,0,0,0,0
10425,0,0,0,0,0,-546.39,-949.71,556.15,11.8,14.76,10.24,2085,0,0,0,0,0,0,0,0,0,0
10456,0,0,0,0,0,-442.87,-787.11,472.17,-19.29,27.92,15.73,2091,0,0,0,0,0,0,0,0,0,0
10487,0,0,0,0,0,-418.95,-844.24,469.73,-9.27,45.6,39.95,2097,0,0,0,0,0,0,0,0,0,0
10518,0,0,0,0,0,-357.91,-749.51,441.41,-6.47,43.81,58.69,2104,0,0,0,0,0,0,0,0,0,0
10549,0,0,0,0,0,-286.62,-737.79,433.59,-0.99,29.12,69.19,2110,0,0,0,0,0,0,0,0,0,0
10579,0,0,0,0,0,-197.27,-697.27,399.41,-2.76,13.78,74.51,2116,0,0,0,0,0,0,0,0,0,0
10610,0,0,0,0,0,-74.71,-791.5,405.76,-2.27,-4.59,75.85,2122,0,0,0,0,0,0,0,0,0,0
10641,0,0,0,0,0,37.11,-837.4,416.5,3.57,-12.45,75.82,2128,0,0,0,0,0,0,0,0,0,0
10672,0,0,0,0,0,147.46,-816.41,400.39,-1.85,-9.5,86.73,2134,0,0,0,0,0,0,0,0,0,0
10703,0,0,0,0,0,211.91,-776.37,388.67,-23.69,1.52,85.33,2141,0,0,0,0,0,0,0,0,0,0
10734,0,0,0,0,0,267.09,-916.5,448.73,-48.12,5.82,60.47,2147,0,0,0,0,0,0,0,0,0,0
10765,0,0,0,0,0,248.54,-1019.53,471.68,-31.64,-3.24,33.79,2153,0,0,0,0,0,0,0,0,0,0
10796,0,0,0,0,0,306.15,-1035.16,463.87,-6.06,-6.16,14.32,2159,0,0,0,0,0,0,0,0,0,0
10827,0,0,0,0,0,354.98,-1036.62,458.98,4.75,8.09,31.18,2165,0,0,0,0,0,0,0,0,0,0
10858,0,0,0,0,0,239.75,-1003.91,410.16,12.98,20.22,50.22,2172,0,0,0,0,0,0,0,0,0,0
10889,0,0,0,0,0,81.05,-878.91,372.07,15.84,10.99,31.85,2178,0,0,0,0,0,0,0,0,0,0
10920,0,0,0,0,0,-47.85,-750.98,431.15,-15.63,13.1,6.46,2184,0,0,0,0,0,0,0,0,0,0
10951,0,0,0,0,0,-200.2,-886.23,478.03,-11.92,-3.34,-17.34,2190,0,0,0,0,0,0,0,0,0,0
10982,0,0,0,0,0,-268.07,-855.96,474.61,-3.87,-12.1,-14.02,2196,0,0,0,0,0,0,0,0,0,0
11013,0,0,0,0,0,-238.77,-852.54,480.96,-6.91,-17.85,0.85,2203,0,0,0,0,0,0,0,0,0,0
11044,0,0,0,0,0,-176.76,-910.16,465.82,-0.32,-26.14,-0.21,2209,0,0,0,0,0,0,0,0,0,0
11075,0,0,0,0,0,-175.29,-868.65,403.81,9.73,-23.45,2.24,2215,0,0,0,0,0,0,0,0,0,0
11106,0,0,0,0,0,-175.29,-818.36,381.35,-3.85,-10.58,2.95,2221,0,0,0,0,0,0,0,0,0,0
11137,0,0,0,0,0,157.71,-792.48,656.25,-73.46,-73.92,-79.68,2227,0,0,0,0,0,0,0,0,0,0
11167,0,0,0,0,0,38.57,-987.3,421.39,33.85,-54.88,-100.34,2233,0,0,0,0,0,0,0,0,0,0
11198,0,0,0,0,0,179.2,-1256.35,703.61,-9.71,-61.18,-54.55,2240,0,0,0,0,0,0,0,0,0,0
11229,0,0,0,0,0,-108.4,-918.95,462.89,32.47,-3.57,-31.56,2246,0,0,0,0,0,0,0,0,0,0
11260,0,0,0,0,0,8.79,-932.62,548.34,49.61,-21.66,-34.5,2252,0,0,0,0,0,0,0,0,0,0
11291,0,0,0,0,0,-116.21,-899.41,464.36,62.98,-23.54,-32.52,2258,0,0,0,0,0,0,0,0,0,0
11322,0,0,0,0,0,134.77,-902.34,710.45,44.64,-12.4,-20.69,2264,0,0,0,0,0,0,0,0,0,0
11353,0,0,0,0,0,-53.71,-797.36,617.19,21.54,-4.1,-6.18,2271,0,0,0,0,0,0,0,0,0,0
11384,0,0,0,0,0,-22.46,-809.08,618.16,15.97,-3.71,-6.18,2277,0,0,0,0,0,0,0,0,0,0
11415,0,0,0,0,0,-6.84,-847.66,585.94,14.02,-5.26,-2.45,2283,0,0,0,0,0,0,0,0,0,0
11446,0,0,0,0,0,-100.59,-812.5,576.17,12.03,-5.35,1.06,2289,0,0,0,0,0,0,0,0,0,0
11476,0,0,0,0,0,-1.46,-796.39,674.8,6.98,0.24,-3.18,2295,0,0,0,0,0,0,0,0,0,0
11507,0,0,0,0,0,-30.27,-830.57,615.23,-13.51,3.97,-4.21,2301,0,0,0,0,0,0,0,0,0,0
11537,0,0,0,0,0,-41.5,-845.21,588.87,-13.45,2.83,-1.36,2307,0,0,0,0,0,0,0,0,0,0
11568,0,0,0,0,0,-39.55,-831.54,590.33,-5.53,1.29,0.41,2314,0,0,0,0,0,0,0,0,0,0
11598,0,0,0,0,0,-61.52,-827.64,603.52,-12.32,3.21,2.92,2320,0,0,0,0,0,0,0,0,0,0
11628,0,0,0,0,0,-36.62,-829.1,603.03,-15.21,6.61,-1.02,2326,0,0,0,0,0,0,0,0,0,0
11659,0,0,0,0,0,-47.85,-839.36,584.47,-12.24,7.6,-2.86,2332,0,0,0,0,0,0,0,0,0,0
11690,0,0,0,0,0,-40.04,-824.71,558.59,-6.21,4.8,-6.5,2338,0,0,0,0,0,0,0,0,0,0
11720,0,0,0,0,0,-62.99,-846.19,578.12,-4.08,4.33,-2.18,2344,0,0,0,0,0,0,0,0,0,0
11751,0,0,0,0,0,-31.74,-880.37,562.01,-3.81,3.48,-2.73,2350,0,0,0,0,0,0,0,0,0,0
11782,0,0,0,0,0,-43.46,-857.91,564.45,7.11,-1.08,-4.89,2356,0,0,0,0,0,0,0,0,0,0
11812,0,0,0,0,0,-30.76,-833.5,611.33,6.88,1.15,-3.49,2362,0,0,0,0,0,0,0,0,0,0
11843,0,0,0,0,0,-40.53,-828.12,601.56,2.37,2.94,-3.09,2369,0,0,0,0,0,0,0,0,0,0
11874,0,0,0,0,0,-32.71,-852.05,572.75,7.82,-0.29,-2.79,2375,0,0,0,0,0,0,0,0,0,0
11904,0,0,0,0,0,-10.74,-821.29,614.75,12.56,-3.18,-1.88,2381,0,0,0,0,0,0,0,0,0,0
11935,0,0,0,0,0,-27.83,-803.71,604.98,1.22,-0.7,-0.98,2387,0,0,0,0,0,0,0,0,0,0
11966,0,0,0,0,0,-39.06,-833.5,597.17,-0.88,-1.07,-4.18,2393,0,0,0,0,0,0,0,0,0,0
11997,0,0,0,0,0,-16.6,-860.84,583.5,6.1,-3.24,-1.52,2399,0,0,0,0,0,0,0,0,0,0
12028,0,0,0,0,0,-8.3,-803.71,631.35,9.02,-7.02,-1.18,2406,0,0,0,0,0,0,0,0,0,0
12059,0,0,0,0,0,-24.41,-815.92,612.79,0.22,-1.27,-0.45,2412,0,0,0,0,0,0,0,0,0,0
12090,0,0,0,0,0,-33.2,-820.8,600.59,3.73,0.08,-2.11,2418,0,0,0,0,0,0,0,0,0,0
12121,0,0,0,0,0,-5.37,-810.06,628.91,3.21,0.44,-1.67,2424,0,0,0,0,0,0,0,0,0,0
12152,0,0,0,0,0,-5.37,-810.55,624.51,-1.65,-0.14,-2.56,2430,0,0,0,0,0,0,0,0,0,0
12183,0,0,0,0,0,-28.81,-818.85,618.16,-0.04,1.89,-0.28,2437,0,0,0,0,0,0,0,0,0,0
12214,0,0,0,0,0,-23.93,-822.27,617.68,-0.34,-0.79,0.08,2443,0,0,0,0,0,0,0,0,0,0
12245,0,0,0,0,0,-1.95,-799.32,633.79,-4.05,5.92,1.5,2449,0,0,0,0,0,0,0,0,0,0
12276,0,0,0,0,0,-35.16,-833.5,595.7,-9.65,6.96,2.4,2455,0,0,0,0,0,0,0,0,0,0
12307,0,0,0,0,0,-35.64,-852.05,591.8,-4.43,1.36,1.36,2461,0,0,0,0,0,0,0,0,0,0
12338,0,0,0,0,0,-26.86,-829.59,590.33,0.96,-1.82,0.91,2468,0,0,0,0,0,0,0,0,0,0
12369,0,0,0,0,0,-21,-835.45,599.12,3.82,-3.91,1.89,2474,0,0,0,0,0,0,0,0,0,0
12400,0,0,0,0,0,-3.42,-816.89,635.74,1.23,-4.25,2.18,2480,0,0,0,0,0,0,0,0,0,0
12431,0,0,0,0,0,-35.64,-809.08,624.02,-6.54,-2.54,0.56,2486,0,0,0,0,0,0,0,0,0,0
12462,0,0,0,0,0,-8.79,-831.54,606.93,-19.54,-1.55,1.28,2492,0,0,0,0,0,0,0,0,0,0
12493,0,0,0,0,0,-32.71,-842.77,600.1,-47.19,2.44,8.79,2499,0,0,0,0,0,0,0,0,0,0
12523,0,0,0,0,0,-94.24,-925.78,511.23,-70.55,-0.56,2.56,2505,0,0,0,0,0,0,0,0,0,0
12554,0,0,0,0,0,0.49,-903.32,599.12,-41.28,27.92,17.81,2511,0,0,0,0,0,0,0,0,0,0
12585,0,0,0,0,0,6.84,-1219.24,491.21,17.82,3.08,27.19,2517,0,0,0,0,0,0,0,0,0,0
12616,0,0,0,0,0,-51.27,-789.55,393.55,6.54,-6.91,8.48,2523,0,0,0,0,0,0,0,0,0,0
12647,0,0,0,0,0,-123.54,-769.53,396.48,-9.65,-4.27,-1.69,2529,0,0,0,0,0,0,0,0,0,0
12678,0,0,0,0,0,-190.92,-742.19,497.07,-7.66,-7.33,-7.27,2536,0,0,0,0,0,0,0,0,0,0
12709,0,0,0,0,0,-115.72,-770.02,563.48,0.14,-5.73,-1.25,2542,0,0,0,0,0,0,0,0,0,0
12740,0,0,0,0,0,14.65,-781.25,526.37,12.1,-9.85,-20.62,2548,0,0,0,0,0,0,0,0,0,0
12771,0,0,0,0,0,572.75,-1018.55,594.73,85.85,-1.47,-15.4,2554,0,0,0,0,0,0,0,0,0,0
12802,0,0,0,0,0,-241.21,-985.84,888.18,35.33,9.77,10.29,2560,0,0,0,0,0,0,0,0,0,0
12833,0,0,0,0,0,57.13,-843.26,445.31,-11.04,1.49,-5.43,2567,0,0,0,0,0,0,0,0,0,0
12864,0,0,0,0,0,50.29,-806.15,729,21.52,8.84,3.8,2573,0,0,0,0,0,0,0,0,0,0
12895,0,0,0,0,0,-7.81,-808.59,593.75,33.14,-10.52,2.78,2579,0,0,0,0,0,0,0,0,0,0
12926,0,0,0,0,0,-45.9,-849.12,578.12,40.08,-0.09,1.7,2585,0,0,0,0,0,0,0,0,0,0
12957,0,0,0,0,0,-56.64,-849.12,600.59,20.34,-0.82,0.92,2591,0,0,0,0,0,0,0,0,0,0
12988,0,0,0,0,0,-39.06,-826.66,598.63,11,1.96,-1.17,2598,0,0,0,0,0,0,0,0,0,0
13019,0,0,0,0,0,-33.69,-820.31,608.4,14.67,3.6,-2.46,2604,0,0,0,0,0,0,0,0,0,0
13050,0,0,0,0,0,-24.9,-828.61,600.1,9.08,-1.24,-0.05,2610,0,0,0,0,0,0,0,0,0,0
13081,0,0,0,0,0,-50.78,-826.66,626.46,-1.34,2.5,-2.69,2616,0,0,0,0,0,0,0,0,0,0
13112,0,0,0,0,0,-31.74,-822.27,633.79,-1.77,5.2,-1.08,2622,0,0,0,0,0,0,0,0,0,0
13142,0,0,0,0,0,-30.76,-823.24,605.96,-4.82,-0.05,-2.82,2628,0,0,0,0,0,0,0,0,0,0
13172,0,0,0,0,0,-22.95,-827.15,610.35,-0.23,0.99,-1.44,2634,0,0,0,0,0,0,0,0,0,0
13203,0,0,0,0,0,-40.53,-824.71,600.1,-0.81,-0.21,-0.95,2641,0,0,0,0,0,0,0,0,0,0
13233,0,0,0,0,0,-40.04,-820.31,620.61,3.48,2.46,-1.27,2647,0,0,0,0,0,0,0,0,0,0
13263,0,0,0,0,0,-21.48,-812.01,627.93,8.67,-2.85,0.11,2653,0,0,0,0,0,0,0,0,0,0
13294,0,0,0,0,0,-21.97,-817.87,627.44,3.06,-2.02,-1.17,2659,0,0,0,0,0,0,0,0,0,0
13324,0,0,0,0,0,-36.13,-818.85,612.3,0.68,-4.42,-1.26,2665,0,0,0,0,0,0,0,0,0,0
13358,0,0,0,0,0,-29.3,-826.66,625.98,1.38,-5.24,2.47,2672,0,0,0,0,0,0,0,0,0,0
13390,0,0,0,0,0,-15.14,-797.85,644.53,2.15,-4.63,-2.08,2678,0,0,0,0,0,0,0,0,0,0
13421,0,0,0,0,0,-21.48,-812.99,636.23,0.51,-2.6,-0.16,2684,0,0,0,0,0,0,0,0,0,0
13454,0,0,0,0,0,-25.39,-808.59,623.05,2.19,-1.15,-0.55,2691,0,0,0,0,0,0,0,0,0,0
13484,0,0,0,0,0,-21,-810.55,617.68,1.15,0.49,1.18,2697,0,0,0,0,0,0,0,0,0,0
13515,0,0,0,0,0,-12.7,-810.55,637.7,-0.05,2.21,-0.42,2703,0,0,0,0,0,0,0,0,0,0
13545,0,0,0,0,0,-38.09,-776.86,674.8,0.28,8.92,4.86,2709,0,0,0,0,0,0,0,0,0,0
13577,0,0,0,0,0,-40.04,-801.76,619.63,-15.47,5.02,5.4,2715,0,0,0,0,0,0,0,0,0,0
13607,0,0,0,0,0,-2.44,-801.27,656.25,-11.65,5.81,4.36,2721,0,0,0,0,0,0,0,0,0,0
13638,0,0,0,0,0,-55.66,-826.66,598.14,-10.02,13.43,12.02,2728,0,0,0,0,0,0,0,0,0,0
13669,0,0,0,0,0,-115.72,-824.71,531.74,-3.59,7.45,3.04,2734,0,0,0,0,0,0,0,0,0,0
13700,0,0,0,0,0,-83.01,-812.01,610.35,10.23,-6.53,-13.97,2740,0,0,0,0,0,0,0,0,0,0
13731,0,0,0,0,0,19.04,-905.76,698.73,20.44,-11.19,-13.95,2746,0,0,0,0,0,0,0,0,0,0
13762,0,0,0,0,0,-91.31,-771.48,660.16,3.05,-3.44,-2.31,2752,0,0,0,0,0,0,0,0,0,0
13793,0,0,0,0,0,-29.79,-836.91,595.7,-2.81,1.56,2,2759,0,0,0,0,0,0,0,0,0,0
13824,0,0,0,0,0,-28.81,-794.92,644.04,-2.43,3.18,-0.3,2765,0,0,0,0,0,0,0,0,0,0
13855,0,0,0,0,0,-18.55,-830.08,622.56,-2.21,3.47,-1.69,2771,0,0,0,0,0,0,0,0,0,0
13886,0,0,0,0,0,-48.83,-833.5,586.43,-1.97,9.4,-0.81,2777,0,0,0,0,0,0,0,0,0,0
13917,0,0,0,0,0,-45.9,-841.31,612.79,1.63,3.81,-3.21,2783,0,0,0,0,0,0,0,0,0,0
13948,0,0,0,0,0,-79.59,-799.8,608.89,4.47,0.15,-7.08,2790,0,0,0,0,0,0,0,0,0,0
13978,0,0,0,0,0,-47.85,-833.01,620.61,2.86,4.41,-9.63,2796,0,0,0,0,0,0,0,0,0,0
14009,0,0,0,0,0,-47.85,-836.91,596.68,-1.71,3.76,-5.63,2802,0,0,0,0,0,0,0,0,0,0
14040,0,0,0,0,0,-56.64,-849.61,578.61,9.27,-2.11,-7.15,2808,0,0,0,0,0,0,0,0,0,0
14071,0,0,0,0,0,-41.02,-816.41,628.91,10.89,-6.99,-7.83,2814,0,0,0,0,0,0,0,0,0,0
14102,0,0,0,0,0,-8.3,-806.64,642.09,8.62,-3.02,-4.91,2820,0,0,0,0,0,0,0,0,0,0
14133,0,0,0,0,0,-15.14,-813.96,634.77,1.92,-4.01,-1.97,2827,0,0,0,0,0,0,0,0,0,0
14164,0,0,0,0,0,-19.53,-811.52,615.23,-0.44,-1.37,-2.95,2833,0,0,0,0,0,0,0,0,0,0
14195,0,0,0,0,0,-20.51,-819.82,625.49,-1.21,-2.92,-0.3,2839,0,0,0,0,0,0,0,0,0,0
14226,0,0,0,0,0,-23.44,-805.18,629.88,-0.49,-0.55,-3.5,2845,0,0,0,0,0,0,0,0,0,0
14257,0,0,0,0,0,-17.09,-822.27,629.39,-0.96,-0.47,-2,2851,0,0,0,0,0,0,0,0,0,0
14288,0,0,0,0,0,-16.11,-812.01,634.77,-1.73,-1.46,-2.6,2858,0,0,0,0,0,0,0,0,0,0
14318,0,0,0,0,0,-27.34,-804.2,642.58,0.02,-2.58,0.47,2864,0,0,0,0,0,0,0,0,0,0
14349,0,0,0,0,0,-5.86,-808.59,634.28,0.99,-1.37,-0.74,2870,0,0,0,0,0,0,0,0,0,0
14380,0,0,0,0,0,-25.39,-812.01,614.75,-0.66,-1.38,-0.78,2876,0,0,0,0,0,0,0,0,0,0
14411,0,0,0,0,0,-21,-818.85,630.86,0.01,-2.11,-0.44,2882,0,0,0,0,0,0,0,0,0,0
14442,0,0,0,0,0,-3.42,-805.66,641.11,0.79,3.49,-0.54,2888,0,0,0,0,0,0,0,0,0,0
14473,0,0,0,0,0,-4.88,-800.78,620.61,0.85,-1.79,-1.04,2895,0,0,0,0,0,0,0,0,0,0
14504,0,0,0,0,0,-13.67,-816.41,622.56,-1.69,-2.94,1.19,2901,0,0,0,0,0,0,0,0,0,0
14535,0,0,0,0,0,-28.81,-808.11,630.86,-0.59,-0.59,0.44,2907,0,0,0,0,0,0,0,0,0,0
14566,0,0,0,0,0,-13.18,-804.69,619.63,-0.24,-0.08,-0.65,2913,0,0,0,0,0,0,0,0,0,0
14597,0,0,0,0,0,-14.65,-807.13,617.19,0.45,1.24,-1.41,2919,0,0,0,0,0,0,0,0,0,0
14628,0,0,0,0,0,-12.7,-817.38,639.16,-0.87,2.53,-0.65,2926,0,0,0,0,0,0,0,0,0,0
14658,0,0,0,0,0,-6.35,-795.41,622.07,-0.17,0.44,0.04,2932,0,0,0,0,0,0,0,0,0,0
14689,0,0,0,0,0,-16.11,-802.73,635.25,-0.19,0.24,1.85,2938,0,0,0,0,0,0,0,0,0,0
14720,0,0,0,0,0,-18.55,-816.89,624.51,-1.32,1.05,0.2,2944,0,0,0,0,0,0,0,0,0,0
14751,0,0,0,0,0,-26.37,-818.85,635.25,0.34,0.44,-1.28,2950,0,0,0,0,0,0,0,0,0,0
14782,0,0,0,0,0,-20.02,-817.87,622.56,-0.6,1.83,-0.21,2956,0,0,0,0,0,0,0,0,0,0
14812,0,0,0,0,0,-20.51,-816.41,623.05,0.69,3.15,1.23,2962,0,0,0,0,0,0,0,0,0,0
14843,0,0,0,0,0,-17.09,-811.04,626.95,1.02,0.83,1.68,2969,0,0,0,0,0,0,0,0,0,0
14873,0,0,0,0,0,4.39,-806.15,653.32,2.71,4.34,1.51,2975,0,0,0,0,0,0,0,0,0,0
14904,0,0,0,0,0,-24.9,-787.11,623.54,-2.71,3.87,-0.91,2981,0,0,0,0,0,0,0,0,0,0
14934,0,0,0,0,0,-42.48,-816.41,614.26,-5,2.43,-0.44,2987,0,0,0,0,0,0,0,0,0,0
14964,0,0,0,0,0,-28.32,-826.17,614.75,-4.8,4.61,1.21,2993,0,0,0,0,0,0,0,0,0,0
14995,0,0,0,0,0,-28.32,-811.04,633.79,-4.08,5.08,1.78,2999,0,0,0,0,0,0,0,0,0,0
15026,0,0,0,0,0,-32.71,-826.66,617.19,-3.64,3.2,0.75,3005,0,0,0,0,0,0,0,0,0,0
15056,0,0,0,0,0,-47.36,-812.99,597.17,-3.35,-0.49,3.22,3011,0,0,0,0,0,0,0,0,0,0
15087,0,0,0,0,0,-31.25,-802.25,644.04,-4.42,3.5,3.38,3017,0,0,0,0,0,0,0,0,0,0
15117,0,0,0,0,0,-37.6,-792.97,623.54,-8.19,6.19,3.79,3023,0,0,0,0,0,0,0,0,0,0
15148,0,0,0,0,0,5.86,-838.87,635.25,-1.86,1.7,-1.18,3030,0,0,0,0,0,0,0,0,0,0
15179,0,0,0,0,0,-35.64,-852.54,609.37,-4.41,-1.73,0.95,3036,0,0,0,0,0,0,0,0,0,0
15209,0,0,0,0,0,-95.7,-807.13,583.98,-6.69,-1.25,-1.4,3042,0,0,0,0,0,0,0,0,0,0
15240,0,0,0,0,0,-51.76,-775.88,669.43,-9.85,10.57,-2.34,3048,0,0,0,0,0,0,0,0,0,0
15271,0,0,0,0,0,18.07,-815.92,639.65,-0.43,3.81,-5.73,3054,0,0,0,0,0,0,0,0,0,0
15302,0,0,0,0,0,-54.69,-857.91,575.2,-5.05,3.34,-4.27,3060,0,0,0,0,0,0,0,0,0,0
15333,0,0,0,0,0,-70.31,-835.94,558.59,-6,2.46,-4.45,3067,0,0,0,0,0,0,0,0,0,0
15363,0,0,0,0,0,-30.27,-828.12,609.86,-2.5,3.01,3.05,3073,0,0,0,0,0,0,0,0,0,0
15394,0,0,0,0,0,-9.28,-843.75,588.38,-2.62,-1.47,3.32,3079,0,0,0,0,0,0,0,0,0,0
15425,0,0,0,0,0,-40.04,-875.49,575.68,11.82,-9.54,-0.48,3085,0,0,0,0,0,0,0,0,0,0
15456,15.54,14.83,14.63,14.66,14.91,-22.95,-771.97,671.87,1.29,-1.87,1.39,3091,0,6.10264,-9.09881,-24.3685,4460.46,-5398.7,2939.52,-221.906,-183.148,0
15487,15.53,14.83,14.63,14.67,14.91,-77.15,-791.02,604.98,-6.28,3.2,1.01,3097,0,0.9846,-0.952386,-47.1077,7125.17,-8318.08,1395.54,-176.886,-151.339,0
15518,15.6,14.83,14.63,14.67,14.93,2.93,-811.04,637.21,7.06,5.26,-5.58,3104,0,6.31652,2.85273,-71.7965,9660.71,-10715.4,1960.12,-149.25,-134.566,0
15549,15.63,14.83,14.62,14.66,14.94,-5.86,-806.64,629.88,-5.73,5.31,-2.97,3110,0,6.08794,5.30151,-77.0529,9702.07,-11337,1346.02,-147.139,-125.922,0
15580,15.65,14.83,14.62,14.66,14.94,-61.52,-930.66,456.54,-5.24,2.89,-4.06,3116,0,7.77234,9.20805,-103.658,12095.2,-14076.9,1128.15,-135.826,-116.686,0
15611,15.74,14.83,14.62,14.66,14.96,-52.25,-822.75,590.33,1.31,3.98,-4.03,3122,0,11.939,13.1642,-150.09,16681.9,-18930.3,1050.21,-126.134,-111.157,0
15642,15.73,14.83,14.62,14.65,14.96,-18.55,-837.89,619.63,-16.69,6.66,1.85,3128,0,17.5613,20.6483,-200.311,21022,-23989.2,835.879,-119.788,-104.972,0
15673,15.73,14.84,14.62,14.65,14.96,-72.27,-924.8,450.2,4.37,0.7,-0.23,3135,0,27.2055,34.2525,-283.078,27727.4,-32313.7,183.137,-114.155,-97.957,0
15704,15.78,14.84,14.62,14.65,14.97,-26.37,-846.68,587.4,8.23,-6.72,-3.11,3141,0,32.7977,39.3722,-333.364,31694.4,-37255.4,393.382,-111.756,-95.0762,0
15735,15.78,14.84,14.62,14.65,14.97,-29.3,-805.66,663.09,-2.3,-0.02,-0.77,3147,0,36.5719,43.5886,-380.126,35776.2,-42134.3,438.558,-110.842,-94.1142,0
15766,15.71,14.83,14.62,14.67,14.96,-80.08,-876.95,530.27,9.31,-3.02,-2.69,3153,0,40.418,54.8342,-458.604,42497.1,-49987.2,33.5353,-109.001,-92.6679,0
15797,15.69,14.83,14.63,14.68,14.96,-39.55,-793.95,638.18,11.1,-8.07,-0.94,3159,0,44.5722,62.1532,-525.425,47557,-56255.8,-40.9115,-107.069,-90.5125,0
15828,15.67,14.83,14.63,14.69,14.96,11.72,-779.79,711.91,-0.75,0.6,-1.71,3166,0,48.5228,57.1334,-528.548,47142.4,-55671.4,725.219,-105.329,-89.1922,0
15859,15.66,14.83,14.63,14.69,14.95,-22.46,-860.35,572.75,-5.82,6.14,-1.78,3172,0,48.1227,50.0237,-513.553,44816.6,-53830,1209.31,-104.819,-87.2676,0
15890,15.66,14.83,14.63,14.71,14.96,-57.13,-870.61,567.38,3.69,-1.61,0.15,3178,0,42.0298,40.7467,-495.625,43207.9,-52183.9,1807.17,-105.289,-87.1796,0
15921,15.64,14.83,14.63,14.72,14.95,-13.18,-799.32,639.16,-0.58,-6.11,-1.37,3184,0,35.834,31.2781,-473.702,43072.8,-50023.6,2469.91,-105.602,-90.9292,0
15952,15.62,14.83,14.63,14.72,14.95,-30.27,-839.84,601.56,1.55,-2.68,2.27,3190,0,34.856,26.4594,-462.205,43413.4,-48586.9,2853.68,-105.12,-93.9266,0
15983,15.59,14.83,14.63,14.73,14.95,-29.3,-853.03,590.33,5.97,-3.89,-0.35,3197,0,37.5403,26.2976,-470.027,44473.5,-48989.7,2733.94,-104.228,-94.6187,0
16013,15.55,14.83,14.63,14.75,14.94,-23.93,-811.04,609.86,3.02,-6.62,1.16,3203,0,36.8506,23.8482,-486.956,46029.8,-50566.8,2537.5,-103.843,-94.526,0
16044,15.54,14.83,14.63,14.75,14.94,-46.88,-803.22,628.42,-4.14,1.99,-0.27,3209,0,37.5267,25.7601,-501.849,45671.6,-51602.3,1986.06,-102.825,-91.0073,0
16075,15.54,14.83,14.64,14.76,14.94,-25.39,-807.62,623.54,-1.34,4.28,-2.78,3215,0,37.9755,27.3743,-509.819,44002.9,-51945.5,1559.92,-101.89,-86.3113,0
16106,15.51,14.83,14.64,14.76,14.93,-7.32,-827.15,604.98,-4,1.56,-1.42,3221,0,35.4847,30.2376,-522.179,42443.6,-53128.9,838.291,-101.745,-81.2822,0
16137,15.49,14.83,14.64,14.76,14.93,-30.27,-825.2,615.72,-1.33,-0.22,1.83,3227,0,34.0104,27.6221,-528.982,41842.7,-53901.9,455.905,-101.897,-79.1006,0
16168,15.48,14.83,14.64,14.76,14.93,-28.32,-841.31,611.33,-2.22,-1.91,-5.07,3234,0,36.3297,26.2911,-530.125,40393.9,-53854.7,260.935,-101.589,-76.1971,0
16199,15.47,14.83,14.64,14.76,14.92,-30.76,-836.43,593.75,-1.32,0.25,0,3240,0,34.3451,29.3062,-535.738,38616.3,-54521.6,-393.458,-101.769,-72.0812,0
16230,15.46,14.83,14.64,14.77,14.92,-32.23,-832.03,588.87,0.37,0.79,0.07,3246,0,31.7846,29.1052,-549.106,37706.7,-56139.4,-966.507,-102.238,-68.6695,0
16261,15.45,14.83,14.64,14.77,14.92,-34.18,-812.01,610.84,-1.74,-2.05,-0.72,3252,0,33.0891,26.8441,-548.713,36324.4,-55993,-705.983,-102.044,-66.1991,0
16292,15.44,14.83,14.64,14.77,14.92,-24.9,-832.52,599.12,-0.22,-0.34,-1.72,3258,0,36.4156,25.027,-541.083,33681.2,-54705.7,-418.205,-101.104,-62.2469,0
16323,15.45,14.83,14.64,14.78,14.92,-26.37,-838.87,573.73,0.83,1.78,-0.26,3265,0,35.5435,29.0799,-533.872,30035.7,-54114.2,-1017.22,-101.362,-56.2606,0
16354,15.45,14.83,14.64,14.78,14.93,-21.48,-830.08,607.91,-0.23,-1.88,0.65,3271,0,35.1974,27.673,-547.773,30165.5,-55671,-1112.01,-101.632,-55.0695,0
16385,15.45,14.83,14.64,14.79,14.93,-10.74,-808.59,636.23,4.76,-1.51,1.03,3277,0,38.2749,23.3437,-548.837,30300.4,-55768.7,-350.961,-101.612,-55.2084,0
16416,15.45,14.83,14.64,14.79,14.93,-20.02,-825.2,610.35,3.31,-5.13,0.55,3283,0,40.493,20.8586,-546.796,29880.9,-55411.3,98.0152,-101.338,-54.6472,0
16447,15.46,14.83,14.64,14.79,14.93,-27.83,-817.87,604.49,-1.38,0.06,-0.8,3289,0,42.1714,20.8342,-544.501,29158.3,-55180.5,110.561,-101.341,-53.5504,0
16477,15.46,14.83,14.64,14.79,14.93,-28.32,-843.26,601.56,-0.1,0.73,-1.31,3295,0,44.8516,19.4154,-539.042,28768.6,-54698.7,382.993,-101.474,-53.3699,0
16508,15.46,14.83,14.64,14.8,14.93,-22.95,-829.1,592.77,0.26,1.61,-0.53,3302,0,45.7221,17.0489,-523.919,28521.6,-53365.5,747.353,-101.858,-54.4391,0
16538,15.47,14.83,14.64,14.8,14.93,-41.5,-811.52,600.59,-0.5,-1.78,1.9,3308,0,45.5513,14.0941,-506.731,28799.2,-51818,1356.87,-102.259,-56.8342,0
16568,15.48,14.83,14.64,14.79,14.94,-35.16,-831.05,619.63,1.78,-1.65,-1.84,3314,0,45.1691,6.41297,-484.158,30745.2,-49997.5,2390.35,-103.268,-63.5057,0
16599,15.49,14.83,14.64,14.79,14.94,-39.06,-824.22,617.19,1.63,-1.31,2.5,3320,0,44.7474,0.890497,-451.071,31442.7,-46945.6,3019.1,-104.077,-69.7094,0
16629,15.5,14.83,14.64,14.79,14.94,-34.18,-824.22,616.21,2.92,1.47,0.64,3326,0,42.1286,0.708853,-410.458,30000.7,-43210.3,3255.38,-105.275,-73.0922,0
16659,15.5,14.83,14.64,14.79,14.94,-17.58,-819.34,611.82,-0.21,-0.59,-0.79,3332,0,37.6804,-0.139246,-369.349,27876,-39827.4,3117.26,-107.835,-75.4764,0
16691,15.51,14.82,14.64,14.79,14.94,-35.16,-822.75,608.89,-1.76,4.29,0.79,3338,0,32.5048,-2.15564,-325.433,25297.4,-36114.5,3145.63,-110.975,-77.7382,0
16721,15.52,14.83,14.64,14.78,14.94,-41.5,-824.71,606.45,-2.36,3.73,2.38,3344,0,28.7481,-2.77201,-278.76,22046.6,-31708.5,3123.43,-113.75,-79.0895,0
16752,15.54,14.83,14.64,14.77,14.95,-19.53,-809.08,626.46,0.1,2.22,-2.02,3350,0,22.5051,-4.09596,-215.02,17373.4,-25306.7,2975.95,-117.703,-80.7971,0
16783,15.56,14.83,14.64,14.76,14.95,-17.58,-824.22,625,-2.29,2.43,-0.61,3357,0,12.4883,-6.35953,-121.431,10178.7,-15655.1,2885.29,-128.978,-83.8451,0
16813,15.58,14.83,14.64,14.76,14.95,-41.02,-820.8,600.59,-2.95,1.48,-2.69,3363,0,6.1056,-6.34631,-54.1914,4776.95,-8666.52,2469.66,-160.316,-88.1376,0
16844,0,0,0,0,0,-11.23,-809.08,634.77,-1.41,3.63,-2.53,3369,0,0,0,0,0,0,0,0,0,0
16874,0,0,0,0,0,-27.83,-833.5,598.14,-0.81,5.38,-0.53,3375,0,0,0,0,0,0,0,0,0,0
16905,0,0,0,0,0,-26.86,-804.2,636.72,-6.11,0.24,2.18,3381,0,0,0,0,0,0,0,0,0,0
16936,0,0,0,0,0,-46.39,-844.24,590.33,-0.33,1.15,0.07,3387,0,0,0,0,0,0,0,0,0,0
16967,0,0,0,0,0,-33.69,-834.96,589.36,0.02,-1.47,-1.39,3393,0,0,0,0,0,0,0,0,0,0
16998,0,0,0,0,0,-28.32,-823.24,610.84,-2.72,0.86,-0.29,3400,0,0,0,0,0,0,0,0,0,0
17029,0,0,0,0,0,-35.64,-822.27,598.63,0.78,3.47,-0.76,3406,0,0,0,0,0,0,0,0,0,0
17060,0,0,0,0,0,-24.9,-851.56,587.89,1.56,0.48,0.58,3412,0,0,0,0,0,0,0,0,0,0
17091,0,0,0,0,0,-46.39,-826.17,602.54,6.24,-1.42,-0.53,3418,0,0,0,0,0,0,0,0,0,0
17122,15.63,14.82,14.63,14.71,14.95,-36.62,-831.54,598.63,-2.96,-1.47,-1.63,3424,0,-2.81718,-4.7765,-25.4262,824.673,-6488.67,1355.98,-255.237,-32.5046,0
17153,15.62,14.82,14.63,14.71,14.95,-43.46,-791.99,620.61,-3.16,0.92,-2.04,3431,0,5.91898,2.34363,-42.5182,699.053,-8100.71,867.515,-190.712,-16.3569,0
17184,15.61,14.82,14.63,14.72,14.95,-46.88,-876.95,553.22,-0.07,-2.18,1.69,3437,0,9.93306,-0.319142,-66.2273,2249.89,-10480.7,1233.42,-158.288,-33.9422,0
17215,15.59,14.82,14.63,14.72,14.94,-7.32,-800.29,619.63,2.32,-1.59,-1.44,3443,0,12.9347,2.0339,-97.149,4349.4,-14132.7,1194.84,-145.519,-44.7245,0
17246,15.54,14.82,14.64,14.72,14.93,-16.11,-849.61,621.09,-1.13,4.67,-2.31,3449,0,14.9571,2.44137,-146.617,8260.64,-20150.7,1228.7,-137.451,-56.3193,0
17277,15.49,14.82,14.63,14.72,14.92,-32.71,-837.89,592.77,-6.3,-0.3,-2.66,3455,0,22.4734,1.42589,-213.559,13507.1,-27952.1,1913.39,-130.897,-63.2328,0
17309,15.46,14.82,14.63,14.73,14.91,-11.72,-802.73,640.62,2.21,1.33,-2.08,3462,0,33.2848,0.152572,-291.056,20376.9,-36837.3,2801.09,-126.564,-70.0041,0
17340,15.41,14.82,14.63,14.73,14.9,-32.71,-806.64,608.4,-1.85,0.31,-0.44,3468,0,41.9908,-2.64584,-362.056,26925.9,-45236.4,3648.31,-124.944,-74.3632,0
17371,15.4,14.82,14.64,14.74,14.9,-6.35,-830.08,615.72,5.17,1.78,-0.11,3474,0,49.5617,-3.54234,-422.186,32836.9,-52294.4,4165.25,-123.866,-77.7766,0
17402,15.39,14.82,14.64,14.74,14.9,-13.67,-799.32,620.12,4.27,0.9,2.71,3480,0,51.4988,-4.0025,-447.018,35283.8,-55201.7,4308.26,-123.489,-78.9313,0
17433,15.39,14.82,14.64,14.74,14.9,-60.06,-841.8,557.62,-5.33,2.81,1.91,3487,0,51.3489,-2.18277,-443.503,34763.2,-54487,3990.34,-122.856,-78.3829,0
17464,15.41,14.82,14.64,14.73,14.9,-27.83,-813.48,677.73,6.52,0.34,-1.45,3493,0,49.69,-0.328124,-429.988,33072.5,-52718.2,3760.22,-122.604,-76.9146,0
17495,15.42,14.82,14.64,14.74,14.9,-38.09,-828.61,582.52,-2.49,-1.15,-3.35,3499,0,46.1502,-0.67868,-418.228,31887.1,-51449.5,3507.43,-123.018,-76.2434,0
17526,15.43,14.82,14.64,14.74,14.91,-37.11,-811.04,595.21,0.34,-3.14,0.83,3505,0,43.2046,-1.42252,-420.757,32215.4,-51929.9,3421.62,-123.42,-76.5653,0
17557,15.45,14.82,14.64,14.74,14.91,-29.3,-832.03,624.51,0.63,-0.5,-1.31,3511,0,44.798,-3.76979,-440.696,34221.5,-54519.7,3548.19,-123.713,-77.6532,0
17588,15.45,14.82,14.64,14.74,14.91,-36.13,-827.64,608.89,-0.37,-0.12,-0.46,3518,0,47.7513,-2.95025,-467.981,35488,-57928.2,3725.55,-123.783,-75.8322,0
17619,15.45,14.82,14.64,14.75,14.92,-32.71,-814.94,611.82,1.29,-2.63,-0.76,3524,0,47.6732,-1.65822,-462.628,33879.4,-57259.7,3601.37,-123.771,-73.2316,0
17650,15.42,14.82,14.64,14.76,14.91,-1.46,-820.31,630.86,2.26,-2.45,-1.74,3530,0,41.4429,-0.490479,-427.502,30003.6,-53495.5,3122.47,-125.136,-70.1818,0
17681,15.4,14.82,14.64,14.77,14.91,-14.16,-816.41,623.05,3,-2.03,-0.77,3536,0,34.8982,1.49814,-393.865,26476,-49893.4,2375.9,-126.677,-67.2198,0
17712,15.39,14.82,14.64,14.77,14.91,-17.09,-812.5,619.14,-0.55,-0.53,-0.85,3542,0,31.6549,2.38199,-376.96,24720.8,-48132.4,2063.21,-127.686,-65.5792,0
17742,15.39,14.82,14.64,14.78,14.91,-35.16,-826.66,631.84,1.72,-1.1,-1.46,3548,0,30.1527,1.8035,-367.658,24234.9,-47230.2,1950.27,-128.463,-65.917,0
17773,15.36,14.82,14.65,14.79,14.91,-30.76,-821.29,620.61,3.69,-6.17,-2.18,3555,0,28.5597,-1.07405,-356.849,24576.3,-46160.8,2056.06,-129.357,-68.8713,0
17804,15.35,14.82,14.65,14.79,14.9,-10.74,-809.08,618.65,2.73,-1.89,0.66,3561,0,25.4309,-4.00324,-335.751,24801.2,-43832.9,2119.14,-130.552,-73.8719,0
17835,15.35,14.82,14.65,14.8,14.91,-33.69,-834.96,606.93,2.4,-0.43,-2.02,3567,0,20.5371,-6.97699,-301.974,25105.3,-40028,2259.85,-132.556,-83.1467,0
17866,15.34,14.82,14.65,14.81,14.91,-26.37,-833.01,627.44,2.83,-0.73,-2.04,3573,0,16.0772,-11.6606,-261.755,25270.2,-35522.3,2815.48,-135.711,-96.5543,0
17897,15.34,14.82,14.65,14.82,14.91,-14.65,-807.13,630.37,1.91,-1.64,-0.63,3579,0,11.6193,-10.5586,-220.321,23512.2,-30795.4,2508.84,-139.777,-106.724,0
17928,15.35,14.82,14.65,14.82,14.91,-31.25,-811.52,622.07,2.13,-0.56,1.32,3586,0,9.98869,-10.849,-199.114,22773.3,-28369.5,2542.79,-142.479,-114.374,0
17959,15.34,14.82,14.65,14.82,14.91,-8.79,-813.96,640.14,1.27,-2.92,-1.57,3592,0,10.2158,-14.2961,-196.122,23109.4,-28129.9,3073.42,-143.43,-117.832,0
17990,15.33,14.82,14.65,14.83,14.91,-3.42,-816.41,638.18,3.31,-4.21,0.4,3598,0,9.10837,-12.4163,-188.98,22180.6,-27358.6,2589.1,-144.77,-117.37,0
18021,15.32,14.82,14.66,14.83,14.91,-21.48,-809.57,637.7,-2.71,-2.12,0.37,3604,0,9.33918,-9.0828,-190.343,21545,-27396.4,2158.96,-143.933,-113.191,0
18052,15.32,14.82,14.66,14.82,14.91,-21.48,-808.11,642.58,-0.66,2.24,-0.25,3610,0,12.7248,-5.40404,-204.96,21684.7,-28928.1,1982.72,-141.141,-105.8,0
18083,15.33,14.82,14.65,14.81,14.9,-25.88,-808.11,633.3,-0.95,-1.21,-1.28,3617,0,13.9491,-7.84678,-209.316,22009.3,-29341.9,2281.68,-140.18,-105.148,0
18114,15.32,14.82,14.65,14.82,14.9,-23.44,-813.48,617.68,0.73,0.82,0.89,3623,0,14.0241,-9.51053,-205.584,22404.1,-29006.5,2366.66,-141.094,-108.978,0
18144,15.32,14.82,14.65,14.82,14.9,-7.32,-812.01,634.77,-0.3,-0.04,0.24,3629,0,14.2955,-11.0964,-208.678,23073.8,-29635.8,2310.89,-142.017,-110.571,0
18175,15.31,14.82,14.65,14.82,14.9,-30.76,-815.43,625,-0.63,-0.8,-1.06,3635,0,14.8372,-12.8168,-213.304,24001.7,-30320.6,2586.59,-142.147,-112.523,0
18205,15.29,14.82,14.66,14.83,14.9,-25.88,-825.68,601.07,0.44,-2.58,-0.51,3641,0,15.8863,-11.8511,-220.179,24809.6,-31145.7,2460.88,-141.456,-112.679,0
18235,15.27,14.82,14.66,14.83,14.9,-20.51,-806.15,628.91,0.95,-1.05,-0.52,3647,0,17.7814,-13.3696,-231.152,26288.9,-32596.2,2640.93,-141.016,-113.73,0
18266,15.28,14.82,14.66,14.83,14.9,-17.09,-814.94,633.79,0.53,0.01,1.38,3653,0,18.4541,-14.4425,-241.36,26964.2,-33851.9,2763.29,-140.256,-111.721,0
18296,15.29,14.82,14.66,14.82,14.9,-19.04,-807.13,637.7,0.7,-2.36,-0.31,3659,0,20.6029,-11.0472,-248.973,26492.2,-34571.8,1935.2,-138.858,-106.407,0
18327,15.32,14.82,14.65,14.81,14.9,-22.95,-801.76,626.95,-0.15,0.31,1.34,3665,0,21.6605,-10.8037,-256.387,26135.1,-35471.3,1591.97,-138.351,-101.937,0
18358,15.37,14.82,14.65,14.76,14.9,-13.67,-801.76,635.25,-3.43,2.73,-0.71,3672,0,22.9003,-9.06742,-263.039,23436.1,-35991.9,1204.38,-136.832,-89.1006,0
18388,15.46,14.82,14.64,14.72,14.91,-11.72,-814.94,646.48,-6.21,4.25,-1.8,3678,0,23.148,-5.61796,-273.962,20410.1,-36942.6,700.99,-134.846,-74.5028,0
18419,15.54,14.82,14.64,14.7,14.93,-33.2,-806.64,636.72,-8.83,6.88,-0.94,3684,0,23.133,-2.21274,-279.573,17420.2,-37285.8,275.349,-133.367,-62.3108,0
18450,15.57,14.82,14.63,14.68,14.93,-63.48,-835.94,583.01,-13.93,6.87,1.82,3690,0,23.6193,-0.47245,-281.78,15048.3,-37123.7,145.994,-131.747,-53.4043,0
18480,15.55,14.82,14.63,14.67,14.92,0.98,-824.22,638.18,-7.53,3.65,-1.03,3696,0,23.6333,0.430441,-280.489,13178.5,-36701,140.023,-130.847,-46.984,0
18511,15.55,14.82,14.63,14.67,14.92,-2.44,-819.82,613.28,-5.01,3.7,1.32,3702,0,22.7959,0.412181,-279.379,11987,-36435.4,138.144,-130.415,-42.9055,0
18542,15.54,14.82,14.63,14.66,14.91,-43.46,-846.68,597.66,-6.16,0.15,2.02,3708,0,21.934,0.521397,-278.123,11105.8,-36193.7,192.963,-130.135,-39.9312,0
18572,15.52,14.82,14.63,14.67,14.91,-43.95,-857.91,583.01,-0.04,-5.58,-2.5,3714,0,21.2531,0.808512,-278.305,10368.7,-36052.7,140.932,-129.544,-37.2568,0
18603,15.5,14.82,14.63,14.67,14.9,-52.25,-828.12,557.62,-0.42,-0.85,-0.59,3721,0,21.4993,1.56751,-279.826,9801.67,-36143.4,276.356,-129.164,-35.0278,0
18634,15.46,14.82,14.63,14.66,14.89,-10.74,-798.83,672.36,-7.42,2.77,0.24,3727,0,21.3091,1.57854,-281.518,9491.14,-36299.3,213.975,-128.941,-33.7141,0
18665,15.48,14.82,14.63,14.67,14.9,-16.6,-855.96,579.1,6.34,0.17,-3.24,3733,0,21.6651,0.860351,-283.691,9408.71,-36555.3,405.939,-128.856,-33.1655,0
18696,15.54,14.82,14.63,14.67,14.92,30.76,-794.92,671.39,12.26,-5.75,0.56,3739,0,21.8496,1.77663,-285.349,9108.33,-36666.6,418.24,-128.497,-31.9199,0
18727,15.48,14.82,14.63,14.67,14.9,-72.27,-806.64,585.45,-8.56,0.04,2.94,3745,0,21.9695,2.54851,-283.586,8686.16,-36505,310.192,-128.727,-30.6297,0
18758,15.51,14.82,14.63,14.68,14.91,-27.83,-851.56,560.55,13.37,-0.85,-2.35,3752,0,21.4271,2.63862,-283.58,8706.18,-36512.2,347.6,-128.754,-30.701,0
18789,15.52,14.82,14.63,14.68,14.91,7.32,-777.83,701.66,1.94,0.84,0.34,3758,0,21.4136,3.34783,-285.257,8685.68,-36626.8,410.76,-128.399,-30.4487,0
18820,15.49,14.82,14.63,14.7,14.91,-63.48,-817.87,579.1,-0.95,0.43,-0.56,3764,0,21.631,2.90752,-287.747,8766.02,-36954.3,493.69,-128.426,-30.4643,0
18851,15.59,14.82,14.64,14.72,14.94,-1.46,-755.86,722.66,10.7,1.14,-7.02,3770,0,21.9457,2.0954,-288.914,8937.65,-37083.7,500.251,-128.355,-30.9354,0
18882,15.57,14.83,14.64,14.71,14.94,-10.74,-827.64,617.68,-14.2,7.05,-2.68,3776,0,21.6421,2.30409,-286.88,8790.55,-36826.2,413.314,-128.368,-30.6421,0
18913,15.48,14.83,14.64,14.72,14.92,-70.8,-854.49,512.7,-18.02,4.22,-3.01,3783,0,20.9552,2.25524,-286.058,8877.66,-36718.8,419.358,-128.361,-31.0344,0
18943,15.52,14.83,14.65,14.75,14.94,-61.04,-788.57,664.06,-0.94,-1.5,-3.59,3789,0,20.6942,3.62684,-284.724,8497.01,-36631.6,203.655,-128.657,-29.8429,0
18974,15.45,14.83,14.65,14.75,14.92,-23.44,-837.4,598.63,-10.72,2.23,-0.61,3795,0,20.3285,3.73921,-283.955,8418.46,-36519.1,87.0105,-128.609,-29.6472,0
19005,15.36,14.84,14.66,14.75,14.9,-14.65,-861.82,553.22,-6.75,-2.76,-5.99,3801,0,19.8124,2.55349,-285.654,8721.99,-36783.5,348.871,-128.769,-30.5332,0
19036,15.41,14.84,14.67,14.78,14.93,-57.62,-833.98,608.4,4.78,-3.49,-4.93,3807,0,20.0583,3.37649,-286.699,8810.04,-36836.5,250.512,-128.485,-30.7292,0
19067,15.35,14.84,14.68,14.8,14.92,18.07,-810.55,638.18,3.25,-2.44,-0.53,3813,0,20.2759,4.83773,-287.822,8720.96,-36845.6,206.7,-128.015,-30.2999,0
19098,15.22,14.84,14.69,14.82,14.89,-25.39,-859.37,567.38,-3.88,-14.21,-3.97,3820,0,20.1461,6.03423,-285.508,8623.72,-36562.6,164.253,-128.061,-30.2049,0
19129,15.21,14.84,14.7,14.83,14.89,9.28,-752.93,679.2,10.37,0.58,-3.22,3826,0,19.7039,5.58546,-284.153,9067.5,-36491.3,180.92,-128.421,-31.9107,0
19160,15.2,14.84,14.7,14.84,14.89,-4.88,-868.65,591.8,-2.71,-0.71,-2.26,3832,0,20.2755,5.13471,-285.276,10258,-36589,270.118,-128.258,-35.9579,0
19191,15.14,14.84,14.7,14.85,14.88,-26.86,-819.82,593.26,-5.86,-4.34,-3.47,3838,0,21.4643,1.67161,-287.814,13038.8,-37081.5,878.083,-128.838,-45.3021,0
19222,15.13,14.84,14.7,14.86,14.88,20.51,-807.62,634.77,7.86,3.58,-1.54,3844,0,22.1198,-1.48954,-287.382,16078.3,-37029.7,1354.19,-128.852,-55.9482,0
19253,15.15,14.84,14.7,14.87,14.89,-25.39,-855.47,614.26,1.47,-1.65,0.11,3851,0,20.9887,-3.73697,-280.59,18992.1,-36395.7,1735.85,-129.712,-67.6882,0
19284,15.13,14.84,14.7,14.88,14.89,-5.86,-789.55,646,-1.82,-0.5,-2.17,3857,0,19.5736,-4.42118,-275.689,21082.9,-36030.5,2150.91,-130.692,-76.4729,0
19315,15.13,14.84,14.7,14.89,14.89,-21,-855.96,584.47,-0.42,2.36,1.25,3863,0,19.1489,-5.91438,-276.837,23451.1,-36359.2,2648.91,-131.338,-84.7109,0
19346,15.11,14.84,14.7,14.91,14.89,-6.35,-837.89,601.56,1.6,-6.69,-2.34,3869,0,18.8472,-7.29987,-272.761,24738.7,-35975.2,3158.92,-131.893,-90.6978,0
19377,15.1,14.84,14.7,14.91,14.89,-16.6,-831.05,607.91,0.13,-3.69,-0.73,3875,0,17.9692,-5.23722,-269.268,25721.8,-35816.2,3143.13,-133.013,-95.5248,0
19408,15.1,14.84,14.71,14.92,14.89,-3.42,-822.75,618.16,2.61,-2.85,-2.65,3882,0,15.5671,-7.33251,-264.641,26965.1,-35336.4,3628.32,-133.526,-101.894,0
19439,15.09,14.84,14.71,14.92,14.89,-2.93,-837.89,599.12,2.85,1.62,0.27,3888,0,14.8263,-8.72187,-255.243,26742.3,-34182.6,3881.64,-133.922,-104.772,0
19470,15.09,14.84,14.71,14.92,14.89,-3.91,-821.78,617.19,2.04,-0.85,-1.89,3894,0,15.1669,-8.55002,-245.108,26085.5,-32896.8,3864.89,-134.213,-106.425,0
19501,15.1,14.84,14.71,14.92,14.89,-2.44,-795.9,637.21,2.53,3.08,1.18,3900,0,16.1399,-7.48896,-241.614,25961.2,-32472.3,3791.64,-134.397,-107.45,0
19532,15.11,14.84,14.71,14.92,14.89,-18.07,-859.86,578.61,-1.19,-2.37,1.49,3906,0,13.4194,-10.5421,-231.354,24857.3,-31320.5,3779.82,-135.38,-107.444,0
19562,15.11,14.84,14.72,14.91,14.89,6.35,-798.34,620.61,0.05,3.62,-0.03,3912,0,15.4947,-5.39386,-234.941,24549.5,-31647.1,2810.96,-134.703,-104.494,0
19593,15.11,14.84,14.72,14.9,14.89,-10.74,-840.82,596.68,-2.03,0.51,2.95,3919,0,15.8611,-1.39878,-242.179,24668,-32618.6,1711.17,-134.688,-101.859,0
19624,15.11,14.83,14.73,14.89,14.89,-21.97,-849.61,574.71,-1.75,-1.42,-0.44,3925,0,15.5784,-4.36069,-232.617,23613.8,-31374.6,1899.41,-134.878,-101.514,0
19655,15.12,14.83,14.74,14.87,14.89,15.63,-781.25,636.72,1.98,-0.91,0.16,3931,0,17.2746,-2.1149,-237.25,23601.4,-31764.7,1802.96,-133.887,-99.4795,0
19686,15.13,14.83,14.74,14.86,14.89,17.09,-807.13,620.12,-0.66,2.46,3.85,3937,0,15.0483,-1.61823,-233.325,22816,-31447,1627.59,-134.778,-97.7862,0
19717,15.14,14.83,14.75,14.84,14.89,-3.42,-868.16,580.08,-1.05,-1.18,-0.6,3943,0,13.8886,-2.83617,-228.014,22275,-30971.8,2042.69,-135.834,-97.6915,0
19748,15.14,14.83,14.75,14.83,14.89,9.28,-827.15,623.05,1.38,-5.38,1.41,3950,0,12.7391,-2.46631,-253.215,24471.8,-34246.5,2074.88,-135.247,-96.6446,0
19779,15.14,14.83,14.75,14.82,14.89,-22.46,-857.91,584.96,6.63,-0.98,1.75,3956,0,12.6459,-6.10462,-249.46,24649.5,-33850.8,2642.64,-135.697,-98.8142,0
19810,15.15,14.83,14.75,14.82,14.89,-10.74,-806.15,632.32,3.91,-1.75,3.89,3962,0,14.6607,-4.32324,-260.917,25651.2,-35214.5,2581.28,-134.965,-98.3138,0
19840,15.16,14.83,14.75,14.81,14.89,-16.6,-823.73,605.47,-0.05,2.72,1.73,3968,0,15.611,-1.02443,-290.999,27993.7,-38956.3,1802.54,-133.871,-96.1984,0
19871,15.17,14.82,14.74,14.81,14.89,-28.81,-839.84,606.93,0.21,-2.98,0.4,3974,0,14.3584,-8.26409,-275.616,27743.6,-36785.6,2584.66,-133.468,-100.668,0
19901,15.17,14.82,14.74,14.8,14.88,-13.18,-832.03,602.05,1.18,1.93,-0.58,3980,0,18.492,-6.76679,-296.53,30202.5,-39225.8,2384.16,-132.284,-101.854,0
19932,15.17,14.82,14.74,14.79,14.88,2.93,-809.57,626.95,-1.6,1.98,-1.56,3986,0,19.5681,0.847216,-322.368,32283,-42262.3,1226.23,-131.099,-100.144,0
19962,15.17,14.82,14.73,14.77,14.87,-20.02,-853.03,596.68,-2.19,5.21,1.88,3992,0,16.2864,-7.82182,-285.309,29689.3,-37500,2450.26,-131.436,-104.068,0
19992,15.17,14.82,14.73,14.76,14.87,1.46,-833.01,610.35,0.59,-0.13,-1.96,3998,0,17.002,-11.0879,-305.145,32039.2,-39819.4,2729.77,-130.492,-104.998,0
20023,15.18,14.82,14.72,14.75,14.87,-22.95,-827.64,625.98,0.98,3.04,1.71,4005,0,13.8916,-0.30895,-326.556,33141.9,-42980,1152.5,-131.616,-101.489,0
20054,15.19,14.82,14.72,14.74,14.87,-19.04,-819.34,615.72,1.05,3.86,0.54,4011,0,10.6472,-3.99782,-302.491,30954.8,-40158.6,1625.81,-132.762,-102.336,0
20085,15.21,14.82,14.71,14.73,14.87,-20.51,-842.29,597.17,-0.04,2.99,1.41,4017,0,9.76834,-9.15794,-294.971,28936.6,-39273.4,1963.03,-133.143,-98.1018,0
20115,15.22,14.82,14.71,14.73,14.87,-27.83,-829.59,617.68,1.56,-1.02,-0.97,4023,0,6.25384,-1.41402,-311.121,28174.9,-41725.1,283.691,-134.113,-90.5608,0
20146,15.22,14.82,14.7,14.72,14.87,-0.49,-825.2,621.09,-2.47,1.6,0.48,4029,0,6.19084,6.72359,-312.003,26636.8,-41279.3,-945.215,-132.304,-85.3735,0
20176,15.22,14.82,14.7,14.72,14.86,-23.93,-840.33,601.07,-0.15,0.83,0,4035,0,6.7332,-0.0137379,-305.321,26215,-40010.2,262.845,-131.043,-85.8606,0
20207,15.23,14.82,14.7,14.71,14.86,-29.3,-812.01,615.72,-0.15,5.28,-1.89,4041,0,4.06777,0.942926,-315.918,26174.5,-41440.2,-231.377,-131.174,-82.8528,0
20238,15.25,14.82,14.69,14.71,14.87,-37.11,-826.66,604.49,-2.06,2.85,-1.65,4048,0,-1.10925,3.10329,-315.927,25343.8,-41646.6,-938.564,-131.824,-80.2206,0
20269,15.26,14.82,14.69,14.71,14.87,-41.02,-834.47,602.05,-5.37,4.1,0.66,4054,0,-4.75621,-2.04476,-303.056,24215.6,-40361.8,-278.911,-133.183,-79.9044,0
20300,15.3,14.82,14.69,14.7,14.88,-22.46,-841.31,610.84,4.66,1.32,-0.53,4060,0,-7.19214,-1.22565,-302.745,23407.8,-40659.5,-921.667,-134.303,-77.3185,0
20331,15.32,14.82,14.68,14.7,14.88,-32.23,-816.89,616.7,-2.55,3.6,0.92,4066,0,-9.2711,0.270626,-301.26,22233.1,-40714.8,-1305.26,-135.148,-73.8008,0
20362,15.31,14.82,14.68,14.7,14.88,-32.71,-838.87,584.96,-3.76,3.05,-0.43,4072,0,-8.51254,0.570099,-300.036,21625.4,-40199.8,-1288.22,-133.983,-72.0762,0
20392,15.29,14.82,14.68,14.7,14.87,-30.76,-821.29,602.05,-2.65,-0.59,-0.93,4078,0,-8.02524,2.47234,-303.822,21288,-40445.4,-1638.7,-133.122,-70.0676,0
20423,15.29,14.82,14.68,14.71,14.87,-26.37,-821.78,609.37,-1.8,4.21,0.79,4085,0,-7.62286,3.19045,-296.961,19875.2,-39191.2,-1752.65,-131.974,-66.9286,0
20454,15.27,14.82,14.68,14.71,14.87,-25.88,-843.26,593.26,2.71,1.07,0.24,4091,0,-7.1465,1.28239,-298.269,19739.5,-39199.7,-1661.94,-131.424,-66.1804,0
20485,15.25,14.82,14.69,14.72,14.87,0,-835.94,666.5,8.99,-5.81,4.27,4097,0,-5.688,4.31348,-296.116,18772.1,-38767.2,-2030.12,-130.919,-63.3944,0
20516,15.26,14.82,14.69,14.73,14.87,-23.44,-813.96,628.91,8.42,-4.94,-0.32,4103,0,-5.83363,2.16031,-293.337,18557.3,-38435,-1894.49,-131.027,-63.2627,0
20547,15.28,14.82,14.69,14.73,14.88,-42.97,-817.87,623.54,-1.23,2.54,-2.31,4109,0,-5.07539,1.80071,-292.133,18461.8,-38265.7,-1843.92,-130.988,-63.1968,0
20578,15.28,14.82,14.69,14.74,14.88,-40.53,-845.7,599.12,1.39,-0.82,0.55,4116,0,-3.71292,4.3537,-296.616,17972,-38630.2,-2231.25,-130.237,-60.5902,0
20609,15.26,14.82,14.69,14.74,14.88,-19.04,-824.71,612.3,-2.06,1.86,-0.6,4122,0,-3.617,2.5096,-295.299,17559.5,-38325.8,-1845.33,-129.786,-59.4634,0
20640,15.24,14.82,14.69,14.74,14.87,-38.09,-840.82,598.14,-1.27,1.86,-0.75,4128,0,-3.89564,3.09118,-301.851,18190.3,-39165.9,-2076.62,-129.752,-60.2623,0
20671,15.24,14.82,14.69,14.74,14.87,-32.71,-819.34,629.88,-0.77,3.93,-3.03,4134,0,-5.05899,3.60911,-300.538,18245.3,-39218.5,-1940.63,-130.494,-60.7086,0
20702,15.24,14.82,14.69,14.75,14.87,-21,-812.5,624.51,1.17,0.37,-2.18,4140,0,-7.63413,4.07658,-304.478,18318.9,-40146.1,-2124.07,-131.852,-60.1651,0
20733,15.23,14.82,14.69,14.76,14.88,-41.02,-832.03,611.33,1.84,-2.88,1.48,4147,0,-7.79185,0.556975,-311.427,19201.6,-41141.6,-1486.33,-132.107,-61.6569,0
20764,15.23,14.82,14.7,14.77,14.88,-22.95,-821.29,627.44,0.36,-1.37,1.2,4153,0,-4.11386,1.14225,-312.832,19389.7,-41076.2,-1180.41,-131.304,-61.9811,0
20795,15.21,14.82,14.7,14.77,14.88,-25.39,-835.94,604.49,-1.89,0.47,-1.21,4159,0,-0.912593,1.02119,-310.041,19199.9,-40512.5,-628.53,-130.668,-61.927,0
20826,15.2,14.82,14.7,14.77,14.87,-22.95,-811.04,611.82,-0.97,4.51,-2.96,4165,0,0.222582,-1.34582,-311.712,19499.1,-40650.2,-29.2341,-130.409,-62.5549,0
20857,15.19,14.82,14.7,14.78,14.87,-30.27,-826.17,609.86,-0.03,-0.46,-1.2,4171,0,1.36571,-0.888065,-314.908,19641,-40995.1,206.627,-130.181,-62.3705,0
20888,15.2,14.82,14.7,14.78,14.88,-28.81,-825.68,623.05,0.18,-2.49,-0.28,4178,0,4.3102,-2.77794,-315.178,20341.2,-40912.3,844.389,-129.807,-64.539,0
20918,15.19,14.82,14.71,14.79,14.88,-24.9,-812.99,621.58,-0.89,0.4,0.11,4184,0,5.55685,-4.32029,-313.149,20841.2,-40703.1,1390.22,-129.98,-66.5538,0
20950,15.19,14.82,14.71,14.79,14.88,-18.07,-827.64,628.91,1.64,-0.11,-0.05,4190,0,7.39336,-3.58928,-314.06,21114.1,-40855.6,1579.79,-130.088,-67.2294,0
20980,15.18,14.82,14.71,14.79,14.88,-20.02,-822.27,621.58,0.53,-0.34,0.17,4196,0,9.41624,-1.66567,-314.071,21048.2,-40810.7,1516.03,-129.941,-67.0174,0
21011,15.18,14.82,14.7,14.78,14.87,-27.34,-815.92,619.63,-0.11,1.5,-1.56,4202,0,11.9068,-3.8443,-312.479,21448.3,-40365,2075.3,-129.176,-68.6392,0
21042,15.19,14.82,14.7,14.78,14.87,-34.67,-821.78,606.45,-0.45,0.79,2.05,4208,0,13.1562,-5.57673,-313.719,22266.7,-40417.3,2345.56,-128.833,-70.9762,0
21073,15.19,14.82,14.7,14.78,14.87,-31.25,-812.99,612.3,-0.96,-0.18,0.07,4215,0,14.6599,-3.35704,-315.45,23070.1,-40654.7,2026.82,-128.878,-73.1341,0
21104,15.17,14.82,14.7,14.78,14.87,-18.55,-812.99,615.23,0.43,-0.87,-2.3,4221,0,16.4456,-4.14119,-315.028,23746.3,-40288.5,2214.83,-127.889,-75.3784,0
21135,15.18,14.82,14.7,14.78,14.87,-34.67,-804.2,620.12,1.23,-1.02,0.02,4227,0,18.0037,-4.93634,-318.947,24356.6,-40757.1,2553.32,-127.786,-76.3656,0
21167,15.18,14.82,14.7,14.78,14.87,-21.48,-810.06,625.49,-0.18,1.4,-1.64,4233,0,17.6483,-4.57479,-320.571,25541.7,-41089.8,2511.85,-128.177,-79.6755,0
21199,15.18,14.82,14.7,14.78,14.87,-9.77,-815.92,617.19,-1.28,-3.95,0.5,4240,0,17.4062,-6.45298,-317.277,26626.1,-40758.7,2804.43,-128.464,-83.9216,0
21229,15.17,14.82,14.71,14.79,14.87,-21,-826.17,637.7,1.81,-2.39,0.38,4246,0,19.0576,-9.71669,-315.414,27708.1,-40529.1,3577.52,-128.495,-87.8466,0
21260,15.15,14.82,14.71,14.81,14.87,-18.07,-820.8,614.75,1.6,-3.51,-1.86,4252,0,17.3983,-7.02122,-316.003,28107.7,-40660.6,3297.51,-128.672,-88.9476,0
21291,15.12,14.82,14.72,14.83,14.87,-23.93,-822.27,617.68,0.58,-7.22,-0.76,4258,0,17.702,-6.54134,-322.506,29634,-41566.6,3139.45,-128.886,-91.8867,0
21322,15.1,14.82,14.73,14.84,14.87,-27.34,-813.48,627.44,2.18,-8.24,-0.32,4264,0,18.0166,-5.92655,-317.494,29247.9,-40872.5,2903.23,-128.735,-92.1212,0
21353,15.06,14.82,14.74,14.84,14.86,-15.63,-820.8,620.61,1.36,-4.92,-1.31,4271,0,18.8909,-4.5943,-312.281,27988.8,-40165.7,2561.05,-128.62,-89.6269,0
21384,15.02,14.82,14.74,14.82,14.85,10.74,-790.04,638.18,-1.65,-1.29,0.85,4277,0,19.9957,-2.5539,-311.537,26960.5,-40124.7,1994.26,-128.796,-86.5406,0
21415,15.03,14.82,14.73,14.8,14.85,-21.48,-810.06,629.39,-2.95,1.11,3.89,4283,0,19.5907,-0.718722,-307.133,25867,-39770.6,1648.22,-129.49,-84.2203,0
21446,15.07,14.82,14.73,14.81,14.86,-69.82,-857.42,521.97,-0.31,0.82,2.08,4289,0,19.5277,-0.102872,-295.858,24971.3,-38377.6,1742.33,-129.716,-84.4032,0
21477,15.11,14.82,14.73,14.8,14.86,-21.48,-796.39,659.18,3.44,0.31,3.69,4295,0,18.564,0.227907,-285.851,24293.3,-37018.1,1814.23,-129.502,-84.986,0
21507,15.14,14.82,14.72,14.77,14.86,-8.3,-791.02,647.95,-3.15,3.27,2.18,4301,0,19.6023,1.77094,-289.29,24311.7,-37432.5,1767.76,-129.394,-84.0389,0
21538,15.19,14.82,14.71,14.73,14.86,-0.49,-807.13,657.71,-7.97,9.56,2.31,4308,0,19.9985,3.31554,-275.815,21954.5,-35833.5,1487.29,-129.919,-79.5983,0
21568,15.26,14.82,14.7,14.7,14.87,-38.57,-833.01,602.05,-21.74,14.53,-1.71,4314,0,19.9778,1.76791,-261.244,20194.9,-33976.7,1518.37,-130.057,-77.3019,0
21599,15.26,14.82,14.69,14.68,14.86,-41.99,-847.66,563.48,-20.43,7.39,-2.18,4320,0,20.7007,1.96395,-248.082,18793.4,-32212.7,1504.48,-129.847,-75.7546,0
21629,15.26,14.82,14.69,14.67,14.86,-37.11,-825.68,604.49,-14.24,5.51,2.41,4326,0,20.0544,-0.0708884,-237.892,17929.6,-30964.8,1689.61,-130.164,-75.3682,0
21659,15.25,14.82,14.68,14.66,14.85,-32.23,-863.77,594.73,-13.14,3.35,2.6,4332,0,20.8661,0.754451,-231.628,16435.7,-30088.4,1472.47,-129.9,-70.9592,0
21690,15.21,14.82,14.68,14.66,14.84,-40.04,-859.37,547.36,-11.17,-3.87,-1.46,4338,0,18.936,1.25064,-238.521,16431.3,-31184.4,1337.03,-130.741,-68.8883,0
21721,15.25,14.82,14.68,14.66,14.85,-53.71,-865.23,532.71,9.49,-2.79,1.08,4344,0,15.5315,-2.04088,-239.622,16808.1,-31607.6,1749.8,-131.906,-70.1441,0
21751,15.25,14.82,14.67,14.66,14.85,-31.74,-795.41,664.55,0.46,4.47,-1.29,4350,0,13.5412,-4.46361,-241.549,17356.8,-32093.6,1705.7,-132.866,-71.8559,0
21782,15.22,14.82,14.67,14.66,14.84,-29.79,-886.23,552.73,-0.62,-2.05,-4.69,4356,0,15.3703,-6.50759,-247.261,18242.9,-32555.9,1949.14,-131.666,-73.7795,0
21813,15.25,14.82,14.67,14.66,14.85,-18.07,-798.34,625.49,1.17,-1.66,0.94,4363,0,18.8994,-5.30067,-257.07,18577.2,-33502.3,1757.93,-130.324,-72.2649,0
21843,15.21,14.82,14.67,14.67,14.84,-33.2,-776.37,649.9,-9.71,2.15,-0.24,4369,0,19.9727,-5.78199,-266.77,19220.3,-34719.9,1870.67,-130.15,-72.0488,0
21874,15.26,14.82,14.67,14.67,14.85,-29.3,-855.96,598.14,21.33,-0.27,-1.24,4375,0,20.3804,-6.54975,-273.505,19815.5,-35622.7,1869.89,-130.245,-72.4501,0
21905,15.33,14.83,14.66,14.67,14.87,-44.43,-795.41,661.13,11.78,-4.54,-5.02,4381,0,19.7444,-7.75433,-276.438,20287.3,-36056.5,2023.67,-130.433,-73.3883,0
21935,15.28,14.82,14.66,14.67,14.86,-44.43,-842.29,595.21,-5.22,-1.78,1.79,4387,0,20.9221,-5.21319,-275.865,19426.6,-35992.4,1764.79,-130.471,-70.4206,0
21966,15.29,14.83,14.66,14.68,14.86,-39.55,-874.51,509.28,6.54,-1.49,-1.64,4393,0,21.5449,-2.05891,-275.154,17849.8,-35766.5,1478.72,-129.987,-64.8722,0
21997,15.31,14.83,14.66,14.69,14.87,-35.64,-803.22,613.28,1.72,-3.5,-3.65,4399,0,22.2532,-0.746271,-276.565,17089.9,-35811.6,1488.81,-129.487,-61.7934,0
22028,15.3,14.83,14.65,14.7,14.87,-62.99,-827.64,608.89,4.32,-0.64,-0.47,4406,0,21.5204,-0.473415,-274.815,16749.7,-35693.3,1290.04,-129.881,-60.949,0
22059,15.36,14.84,14.65,14.72,14.89,-42.97,-835.94,555.18,7.59,-0.36,-2.76,4412,0,21.3851,-2.1483,-277.376,16241.9,-35900.8,1488.16,-129.43,-58.556,0
22090,15.35,14.84,14.65,14.75,14.9,-18.55,-815.92,632.81,1.32,-2.86,-3.06,4418,0,21.9066,0.803559,-278.627,15122.8,-35987.5,1054.91,-129.16,-54.2763,0
22121,15.29,14.84,14.66,14.78,14.89,-52.25,-827.15,585.94,0.71,-3.57,-0.79,4424,0,21.9975,0.714683,-282.339,15007.6,-36354.9,905.771,-128.764,-53.1547,0
22152,15.32,14.84,14.66,14.8,14.9,-56.64,-810.06,615.72,-2.14,1.1,-1.35,4430,0,22.3076,0.489996,-289.269,15060.6,-37199.3,815.528,-128.597,-52.0648,0
22183,15.27,14.84,14.68,14.82,14.9,-17.58,-864.26,578.12,-3.32,-4.79,-2.8,4437,0,23.174,1.36435,-297.809,14613.9,-38270.5,435.204,-128.507,-49.0717,0
22214,15.22,14.84,14.69,14.84,14.9,-3.42,-824.22,598.63,-1.52,-9.34,-2.82,4443,0,24.1189,0.257641,-304.789,15026,-39188.1,602.62,-128.575,-49.2999,0
22245,15.2,14.84,14.7,14.84,14.9,-27.83,-830.57,600.1,-1.25,-5.92,-4.68,4449,0,24.467,-0.35392,-305.712,15205,-39270.4,871.147,-128.456,-49.7364,0
22276,15.15,14.84,14.72,14.84,14.89,-31.25,-840.33,597.66,-6.04,-4.5,-4.74,4455,0,24.1847,2.38998,-302.141,14534.7,-38917.6,558.866,-128.806,-48.1057,0
22307,15.08,14.84,14.73,14.84,14.87,14.16,-822.75,603.03,-2.87,-2.63,-4.37,4461,0,23.0076,4.06975,-303.212,13887.5,-39067.6,365.335,-128.846,-45.8014,0
22338,15.08,14.84,14.74,14.84,14.88,-9.77,-830.08,618.65,4.21,0.03,-1.51,4468,0,22.4934,4.00854,-302.327,13840.3,-39186.8,359.419,-129.617,-45.7793,0
22369,15.07,14.84,14.75,14.83,14.87,-8.3,-856.45,593.26,4.27,-2.94,-4.34,4474,0,21.8402,3.19552,-298.144,14075.4,-38705.6,325.214,-129.822,-47.2101,0
22399,15.05,14.84,14.76,14.83,14.87,20.02,-755.86,598.63,5.15,-1.52,-4.53,4480,0,21.0039,2.2842,-293.057,14394.7,-38089.7,520.039,-129.974,-49.1193,0
22430,15.06,14.84,14.76,14.83,14.87,-46.39,-863.77,631.84,-5.43,-4.77,3.76,4486,0,21.0837,1.58514,-288.109,14178.2,-37525.3,434.444,-130.247,-49.2113,0
22461,15.04,14.84,14.77,14.83,14.87,-14.16,-826.66,597.17,10.98,2.59,-7.37,4492,0,19.6738,2.94932,-287.461,13923,-37422.5,409.434,-130.183,-48.4345,0
22492,15.03,14.84,14.77,14.83,14.87,22.95,-775.39,629.39,-4.21,0.33,0.29,4498,0,20.0577,2.83674,-288.683,13427.7,-37499.6,404.383,-129.899,-46.5135,0
22523,15.02,14.84,14.77,14.83,14.87,-7.81,-860.84,608.89,-3.11,0.1,-2.63,4505,0,19.8294,4.98056,-287.246,12287.1,-37281.1,148.816,-129.788,-42.7752,0
22554,15.02,14.84,14.77,14.83,14.87,33.2,-735.84,661.62,-0.91,0.73,-1.7,4511,0,19.7913,5.80997,-288.354,11973.8,-37432.2,130.637,-129.813,-41.5247,0
22585,15.01,14.84,14.77,14.84,14.87,-5.37,-886.72,591.31,-12.83,-3.92,4.26,4517,0,20.5371,5.01437,-289.924,12504.2,-37592.4,539.932,-129.663,-43.1292,0
22616,15.02,14.84,14.77,14.84,14.87,-3.91,-822.27,621.58,7.56,-0.52,-0.77,4523,0,19.8075,5.03228,-289.37,13357.8,-37639.7,628.381,-130.075,-46.1616,0
22647,15.01,14.84,14.77,14.84,14.87,32.71,-789.06,625.98,-4.19,-0.55,5.59,4529,0,19.9926,4.01988,-291.086,14970.6,-37951.9,904.912,-130.38,-51.4303,0
22678,15.01,14.84,14.77,14.84,14.86,-7.81,-864.75,580.08,-0.12,-0.14,3.55,4536,0,19.6427,-1.67875,-287.887,18881.2,-37595.3,1853.5,-130.591,-65.5868,0
22709,15.03,14.83,14.76,14.84,14.87,-13.67,-798.34,626.95,-2.8,4.3,5.69,4542,0,19.9862,-2.8228,-286.594,22701.7,-37457.9,2211.88,-130.7,-79.212,0
22740,15.04,14.83,14.76,14.83,14.87,-17.58,-843.75,577.64,4.82,1.08,1.18,4548,0,21.2969,-7.24722,-283.629,25290.7,-37001.9,3196.44,-130.459,-89.172,0
22771,15.04,14.83,14.76,14.83,14.87,27.34,-799.8,635.74,4.74,-1.39,2.69,4554,0,20.4954,-9.39907,-262.863,25210.2,-34560.3,3702.34,-131.478,-95.9086,0
22802,15.06,14.83,14.75,14.83,14.87,-32.23,-833.98,621.58,1.82,-0.43,0.78,4560,0,18.7304,-6.83251,-247.594,24437.6,-32823.8,3388.63,-132.571,-98.7005,0
22833,15.07,14.83,14.74,14.82,14.87,-12.21,-808.59,615.72,3.95,-0.18,-0.15,4567,0,17.2055,-10.1417,-240.881,24378.4,-32040.1,3870.24,-133.012,-101.206,0
22864,15.09,14.83,14.74,14.82,14.87,-13.18,-799.32,634.28,-0.49,6.11,4.21,4573,0,17.7979,-13.459,-230.49,23568.5,-30655.8,4143.01,-133.003,-102.253,0
22895,15.11,14.83,14.73,14.81,14.87,-22.46,-813.96,598.63,-1.16,2.03,2.13,4579,0,19.5653,-7.80739,-227.676,22497,-30259.7,3468.34,-132.907,-98.8113,0
22926,15.14,14.83,14.72,14.81,14.87,-31.25,-848.63,611.33,4.66,-0.83,0.34,4585,0,17.8126,-8.54263,-224.02,22149.5,-29856,3459.79,-133.275,-98.8727,0
22957,15.16,14.83,14.71,14.8,14.88,-18.07,-818.85,627.93,3.69,3.14,-1.31,4591,0,15.9825,-16.1374,-204.075,20547.1,-27492,4171.86,-134.718,-100.686,0
22988,15.17,14.83,14.7,14.8,14.88,-21.48,-837.4,609.86,0.2,4.22,-0.87,4598,0,19.9128,-7.46182,-247,23626.7,-32712.1,3155.45,-132.438,-95.6577,0
23019,15.18,14.83,14.69,14.81,14.88,-20.02,-824.71,628.91,-0.76,0.75,-2.11,4604,0,16.338,-9.45851,-244.249,23176.9,-32709.5,3280.22,-133.921,-94.8937,0
23050,15.2,14.83,14.68,14.81,14.88,-9.77,-816.41,642.09,3.17,5.31,-2.06,4610,0,16.1131,-14.9223,-224.283,21508.6,-30201.7,4163.16,-134.659,-95.9012,0
23081,15.23,14.83,14.67,14.8,14.88,-37.11,-842.29,583.5,-1.51,5.2,1.89,4616,0,16.4134,-7.22996,-259.238,23376.5,-34837.9,2833.77,-134.385,-90.1748,0
23111,15.24,14.83,14.67,14.79,14.88,-8.79,-806.15,626.95,-0.46,4.13,3.12,4622,0,14.3055,-11.1772,-248.231,22132.6,-33548.6,3083.17,-135.153,-89.1631,0
23142,15.27,14.83,14.66,14.78,14.88,-17.09,-814.45,627.44,-0.18,4.96,0.5,4628,0,17.8746,-11.2004,-275.774,23949.2,-36749.1,2989.09,-133.26,-86.8526,0
23173,15.27,14.83,14.66,14.78,14.88,-17.09,-810.06,632.32,0.55,-1.47,-1.62,4635,0,21.6291,-0.90001,-321.489,25808.1,-42046.9,991.154,-130.788,-80.2761,0
23203,15.27,14.83,14.66,14.77,14.88,-14.65,-814.94,620.12,-3.11,1.95,-0.32,4641,0,21.0807,-11.2774,-278.947,21671.3,-36264.9,2131.24,-130.006,-77.6865,0
23234,15.28,14.83,14.65,14.76,14.88,-13.67,-836.91,587.89,2.53,-0.56,0.37,4647,0,25.4178,-14.1821,-291.714,21571.8,-37075.3,2194.9,-127.094,-73.9552,0
23264,15.31,14.83,14.65,14.75,14.88,-5.86,-799.8,640.14,2,1.83,-0.34,4653,0,23.2126,-3.12426,-312.234,19835.1,-39547.1,25.0964,-126.659,-63.5255,0
23295,15.31,14.82,14.65,14.75,14.88,-31.25,-856.93,581.54,-2.01,-0.9,-1.67,4659,0,20.662,-6.60865,-282.987,15421.6,-35404.7,319.829,-125.11,-54.4855,0
23325,15.31,14.82,14.65,14.75,14.88,-16.6,-795.41,649.9,-0.93,3.13,-0.56,4665,0,24.4545,-3.26008,-288.947,14362.2,-35488,-244.827,-122.821,-49.7037,0
23355,15.34,14.82,14.65,14.75,14.89,-0.98,-811.52,652.34,2.99,2.48,-0.63,4671,0,25.6054,4.11439,-326.488,14745.6,-40048.9,-1744.56,-122.666,-45.1682,0
23386,15.36,14.82,14.65,14.75,14.9,-28.32,-806.64,618.65,-2.91,1.32,-1.92,4677,0,21.8849,8.72446,-319.897,10447.3,-39063.2,-2517.47,-122.11,-32.6509,0
23417,15.38,14.82,14.65,14.74,14.9,-4.88,-805.18,644.53,-0.1,3.73,-0.31,4683,0,19.3661,11.1051,-292.136,5662.03,-35548.9,-2444.09,-121.686,-19.3829,0
23448,15.38,14.82,14.64,14.74,14.9,1.46,-820.31,624.02,0.9,0.54,-0.37,4690,0,18.4795,14.2824,-320.524,6491.03,-39349.5,-3244.79,-122.766,-20.2514,0
23478,15.38,14.82,14.64,14.74,14.9,8.3,-788.57,651.86,5.74,-2.46,-0.37,4696,0,19.3176,13.3688,-316.44,5320.29,-38628.7,-2847.11,-122.073,-16.811,0
23509,15.39,14.82,14.64,14.74,14.9,-28.81,-805.66,644.53,4.08,-4.61,0.84,4702,0,17.5308,13.0772,-295.806,2964.56,-35764.7,-2570.7,-120.906,-10.0216,0
23540,15.42,14.82,14.65,14.74,14.91,-24.41,-818.85,637.7,-0.33,0.22,-0.49,4708,0,15.3795,8.98878,-313.616,4632.52,-38074.3,-2541.4,-121.404,-14.7693,0
23570,15.45,14.83,14.64,14.74,14.92,-41.5,-823.24,561.04,-6.19,5.33,-3.07,4714,0,18.5727,6.23731,-326.631,4941.85,-39288.4,-2152.8,-120.284,-15.1299,0
23601,15.48,14.83,14.64,14.74,14.92,-39.55,-820.8,613.28,0.07,1.64,-2.4,4720,0,20.6883,6.01616,-326.78,4053.88,-38775.6,-1845.62,-118.66,-12.4056,0
23632,15.49,14.83,14.65,14.74,14.93,-31.25,-841.31,601.56,0.27,-0.73,0.08,4726,0,21.0897,3.97089,-334.451,3713.13,-39357.5,-1419.39,-117.678,-11.1023,0
23663,15.49,14.83,14.65,14.74,14.93,-29.3,-817.38,611.33,-0.1,0.14,-2.86,4733,0,15.3033,3.93566,-331.975,2667.75,-39448.3,-1325.42,-118.829,-8.03583,0
23694,15.48,14.83,14.65,14.74,14.93,-33.2,-816.41,621.58,-1.2,-0.82,1.49,4739,0,13.1641,4.37055,-333.008,2334.5,-39648.6,-1329.94,-119.062,-7.01026,0
23725,15.46,14.83,14.65,14.75,14.92,-26.37,-828.61,624.02,-1.2,-1.74,0.17,4745,0,10.6836,5.72389,-333.853,2238.24,-40019,-1643.82,-119.87,-6.70409,0
23756,15.44,14.83,14.65,14.75,14.92,-7.81,-821.29,614.75,0.14,-0.82,-1.92,4751,0,8.17428,4.23879,-328.919,2144.93,-39648.9,-1344.59,-120.543,-6.521,0
23786,15.42,14.83,14.65,14.76,14.91,-42.48,-827.15,612.3,4.32,-1.84,-2.17,4757,0,8.25225,4.68038,-329.191,2221.53,-39850.1,-1211.37,-121.055,-6.74806,0
23817,15.38,14.83,14.65,14.77,14.91,0,-799.8,641.11,2.56,-0.38,-1.83,4763,0,7.74598,1.93712,-341.126,3313.49,-41057.3,-875.612,-120.358,-9.71329,0
23848,15.35,14.83,14.65,14.78,14.9,-18.07,-825.2,622.56,-0.22,-2.86,-1.11,4770,0,9.96084,1.51788,-342.882,2922.52,-40917.8,-505.518,-119.335,-8.52325,0
23879,15.34,14.83,14.65,14.78,14.9,-5.86,-815.43,630.86,0.01,0.79,-2.08,4776,0,10.3474,0.883137,-344.627,2619.5,-41021,-448.931,-119.03,-7.60091,0
23910,15.35,14.83,14.65,14.78,14.9,-32.23,-824.71,607.91,1.56,5.82,-1.01,4782,0,12.3455,-0.392821,-347.378,2516.04,-41256.9,-307.535,-118.767,-7.24293,0
23941,15.38,14.83,14.65,14.78,14.91,-20.02,-824.22,623.05,1.35,0.35,1.26,4788,0,12.3371,1.53336,-347.484,2095.54,-41551.8,-709.008,-119.579,-6.03059,0
23972,15.4,14.83,14.65,14.77,14.91,-25.88,-815.43,626.46,-1.1,0.43,-4.16,4794,0,10.7262,2.56447,-349.104,2277.81,-42112.6,-1253.67,-120.63,-6.52449,0
24003,15.42,14.83,14.65,14.78,14.92,-29.79,-837.4,615.23,-0.44,1.08,-0.55,4801,0,13.9722,-1.35127,-349.24,2795.66,-42255.6,-427.247,-120.993,-8.00498,0
24034,15.41,14.83,14.65,14.78,14.92,-31.74,-823.24,627.44,1.56,-1.72,-1.89,4807,0,12.9135,1.98176,-348.637,2454.34,-42299.2,-936.738,-121.327,-7.03981,0
24065,15.4,14.83,14.65,14.78,14.92,-29.79,-819.82,622.56,0.32,-0.4,-0.34,4813,0,13.0396,0.939786,-344.763,2436.19,-41964.1,-660.24,-121.719,-7.06635,0
24096,15.4,14.83,14.65,14.78,14.92,-33.69,-812.01,613.28,-2.63,-0.64,-0.59,4819,0,13.5567,0.217282,-342.774,3084.65,-42115.4,-559.703,-122.866,-8.99916,0
24127,15.41,14.83,14.65,14.79,14.92,-27.34,-827.15,609.86,-1.04,2.15,-1.48,4825,0,13.5327,-0.978649,-340.862,3927.89,-42229,-311.076,-123.889,-11.5235,0
24158,15.4,14.83,14.65,14.79,14.92,-22.46,-819.34,623.05,-1.76,0.61,-2.43,4832,0,15.4394,-3.09973,-335.412,4722.34,-41646.7,379.147,-124.166,-14.0794,0
24188,15.41,14.84,14.65,14.78,14.92,-36.13,-812.99,624.02,-2.95,3.33,-4.31,4838,0,15.5279,-3.33873,-330.649,5287.01,-41231.1,373.505,-124.698,-15.99,0
24219,15.41,14.84,14.65,14.78,14.92,-33.2,-815.92,620.61,-6.06,1.92,-1.9,4844,0,13.8018,-1.82799,-322.696,5571.79,-40526.1,56.0508,-125.586,-17.2664,0
24250,15.41,14.84,14.65,14.76,14.91,-27.34,-826.66,610.35,-7.73,4.96,-1.76,4850,0,15.2809,-1.76291,-310.414,5610.94,-39138.5,44.9893,-126.085,-18.0759,0
24281,15.45,14.83,14.65,14.75,14.92,-31.74,-819.82,602.05,-4.98,5.24,-0.44,4856,0,16.145,-3.01678,-300.497,6028.97,-37991.2,98.6398,-126.429,-20.0638,0
24312,15.47,14.83,14.65,14.74,14.92,-41.99,-849.12,604.98,-3.89,1.59,-0.59,4862,0,16.3296,-1.88966,-294.511,6792.1,-37502.4,-270.404,-127.338,-23.0629,0
24343,15.48,14.83,14.64,14.74,14.92,-36.62,-834.96,585.94,-0.16,-1.22,0.51,4869,0,17.4209,-1.53278,-284.803,7859.65,-36432.5,-248.764,-127.922,-27.5975,0
24374,15.49,14.83,14.64,14.74,14.92,-33.2,-838.38,606.93,2.43,-3.15,2.46,4875,0,17.9393,-2.45687,-277.039,8985.55,-35729,-104.596,-128.967,-32.4347,0
24405,15.49,14.83,14.64,14.74,14.93,-36.62,-810.55,622.56,-2.69,1.32,1.63,4881,0,17.6279,-2.91542,-270.371,9954.92,-35096.5,-26.7322,-129.809,-36.82,0
24436,15.51,14.83,14.64,14.74,14.93,-32.71,-825.2,611.82,-0.7,3.7,-3.37,4887,0,17.5731,-1.59414,-268.305,10702.2,-35130.4,3.60763,-130.935,-39.8883,0
24467,15.53,14.83,14.64,14.74,14.94,-28.32,-820.31,610.84,-1.93,0.6,1.17,4893,0,17.2875,-1.1432,-258.411,10733.1,-34026.4,-168.807,-131.675,-41.5355,0
24498,15.53,14.83,14.64,14.74,14.94,-31.25,-832.52,600.59,-2.96,3.52,-2.11,4900,0,17.5472,-0.715361,-252.398,11100.3,-33333.5,-257.009,-132.067,-43.9798,0
24529,15.52,14.83,14.64,14.74,14.94,-21.48,-821.29,612.3,-2.66,0.82,-2.11,4906,0,17.2496,0.243263,-252.294,11837.7,-33310.6,-197.612,-132.031,-46.92,0
24560,15.5,14.83,14.64,14.75,14.93,-49.8,-836.91,586.43,-6.89,1.98,-1.59,4912,0,18.2431,1.26982,-254.125,12740.9,-33549,-363.743,-132.018,-50.1367,0
24591,15.46,14.84,14.65,14.76,14.93,-30.76,-837.89,611.82,-4.55,-1.12,-2.01,4918,0,18.3577,0.980589,-251.246,13595.2,-33154.9,-208.305,-131.962,-54.1097,0
24622,15.38,14.84,14.65,14.78,14.91,-51.76,-870.12,559.57,-10.43,2.24,-4.69,4924,0,18.8946,-0.67426,-263.757,15758,-34823.2,52.6365,-132.028,-59.7441,0
24653,15.25,14.84,14.66,14.81,14.89,-16.6,-846.19,618.65,1.44,-4.76,-4.54,4931,0,19.8853,-1.0524,-257.134,15764.2,-34069.6,255.677,-132.497,-61.3073,0
24684,15.14,14.84,14.66,14.82,14.87,-9.77,-826.66,615.72,-1.2,-7,-0.44,4937,0,20.9167,-0.550252,-248.618,14392.8,-32801.7,344.811,-131.936,-57.891,0
24714,15.01,14.84,14.66,14.82,14.83,-69.34,-833.98,568.36,-9.19,-4.26,-1.12,4943,0,22.8929,-0.541035,-247.19,14130.7,-32444.9,554.478,-131.255,-57.1652,0
24746,14.99,14.84,14.66,14.81,14.82,7.81,-802.73,639.16,-0.02,4.36,1.75,4949,0,21.7346,-4.56552,-243.261,14038.6,-31984.9,951.849,-131.484,-57.7098,0
24776,14.98,14.83,14.65,14.79,14.81,-21.97,-858.89,564.94,-2.36,-1.11,0.17,4955,0,18.4255,-3.75691,-238.34,12518.5,-31442.3,1023.33,-131.922,-52.5237,0
24807,15.02,14.84,14.65,14.78,14.82,1.46,-801.27,643.07,-2.22,5.24,1.6,4961,0,15.4823,-3.11584,-246.906,12382.2,-32701.6,900.659,-132.447,-50.1494,0
24838,15.1,14.83,14.65,14.76,14.83,-60.55,-841.8,639.16,-6.55,8.84,-0.6,4968,0,13.7509,-4.75215,-262.722,13446.3,-34811.5,1040.81,-132.503,-51.18,0
24869,15.08,14.84,14.64,14.74,14.82,-26.37,-800.78,607.91,-27.69,9.56,0.69,4974,0,16.3812,-8.73869,-268.902,14171.9,-35350.8,1372.4,-131.463,-52.7031,0
24899,15.16,14.84,14.65,14.74,14.85,-37.6,-877.44,536.62,0.51,6,-1.32,4980,0,17.8458,-2.43477,-270.119,12837.6,-35372.2,628.973,-130.95,-47.5255,0
24930,15.22,14.84,14.64,14.73,14.86,-44.92,-858.4,592.29,-17.63,3.18,-3.73,4986,0,17.5805,-4.4547,-267.382,12443.7,-34924.6,657.768,-130.617,-46.5388,0
24960,15.17,14.85,14.64,14.73,14.85,-46.39,-848.14,580.57,-21.55,6.05,-2.33,4992,0,16.6782,-4.16038,-260.999,11509.5,-34097.9,384.915,-130.644,-44.0979,0
24990,15.25,14.86,14.64,14.73,14.87,-37.11,-881.35,495.61,-0.4,9.91,-2.44,4998,0,17.7606,-6.19452,-265.51,11703.7,-34516.1,600.1,-129.999,-44.0802,0
25022,15.29,14.86,14.64,14.73,14.88,-27.34,-870.12,562.01,-4.98,-1.58,-1.22,5004,0,18.0769,-5.84187,-270.623,11392.4,-34967.4,580.986,-129.211,-42.0971,0
25053,15.27,14.87,14.65,14.74,14.88,-16.6,-823.24,570.31,-4.44,2.2,-2.21,5011,0,19.3709,-3.25713,-277.017,10429.6,-35427.4,485.398,-127.889,-37.6498,0
25084,15.34,14.88,14.65,14.76,14.91,-62.01,-860.35,540.04,10.33,1.22,-0.98,5017,0,20.1818,-1.96787,-286.32,10426.1,-36444.7,353.675,-127.287,-36.4139,0
25115,15.3,14.88,14.65,14.78,14.9,-14.65,-874.02,551.76,12.98,-7.69,-1.37,5023,0,19.7964,-0.651746,-279.175,9237.69,-35498.9,50.259,-127.156,-33.0891,0
25145,15.22,14.88,14.66,14.8,14.89,-12.7,-872.07,508.79,18.25,-13.82,-2.31,5029,0,18.9781,-0.971252,-276.766,8750.47,-35011.8,28.776,-126.503,-31.617,0
25176,15.26,14.88,14.66,14.82,14.91,-34.67,-836.91,608.89,14.18,0.9,0.94,5035,0,21.143,-0.512014,-283.863,8699.45,-35718.2,-13.926,-125.83,-30.6466,0
25207,15.22,14.87,14.67,14.85,14.9,-29.3,-846.19,595.21,8.74,-7.29,-1.42,5041,0,22.7757,1.29796,-291.886,8618.14,-36533.2,-87.2058,-125.162,-29.5259,0
25237,15.14,14.87,14.67,14.88,14.89,-18.07,-868.65,553.22,7.91,-14,-0.39,5047,0,22.7198,3.08932,-292.879,7904.01,-36714.4,-519.087,-125.357,-26.9873,0
25268,15.12,14.87,14.67,14.89,14.89,-34.18,-818.85,633.3,3.79,-8.88,-5.32,5054,0,21.6743,2.79303,-292.714,7748.68,-36805.6,-533.357,-125.739,-26.4719,0
25299,15.1,14.87,14.67,14.9,14.89,0.98,-833.01,583.98,0.18,-0.31,-5.69,5060,0,21.0998,3.36735,-292.907,7604.19,-36781.9,-634.598,-125.576,-25.9611,0
25330,15.07,14.87,14.68,14.9,14.88,33.69,-819.82,614.75,-0.71,-3.86,-1.31,5066,0,20.4657,1.37891,-289.936,8004.27,-36449.8,-484.457,-125.717,-27.6074,0
25361,15.1,14.88,14.68,14.9,14.89,-18.55,-848.63,579.59,3.55,-0.76,-1.4,5072,0,20.2925,0.412366,-288.219,8621.07,-36306.5,-378.425,-125.968,-29.9115,0
25392,15.1,14.88,14.68,14.9,14.89,-20.51,-832.03,605.47,-4.15,-4.69,-3.97,5078,0,19.7651,2.7745,-285.911,8091.49,-36060.8,-636.444,-126.126,-28.3006,0
25423,15.09,14.88,14.68,14.9,14.89,19.53,-843.75,615.72,-1.54,-1.14,0.15,5085,0,18.9277,2.71191,-280.73,7515.51,-35461.4,-834.265,-126.318,-26.7713,0
25454,15.11,14.88,14.67,14.9,14.89,-20.02,-850.1,608.89,2.98,0.44,2.92,5091,0,18.5128,1.14705,-281.338,7942.04,-35536.4,-521.214,-126.312,-28.2295,0
25485,15.11,14.88,14.68,14.91,14.89,-50.29,-861.33,570.31,-3.36,-4.19,-2,5097,0,18.7492,0.194634,-282.981,7900.73,-35779.5,-363.345,-126.438,-27.9197,0
25516,15.1,14.88,14.68,14.91,14.89,-5.86,-814.45,613.28,0.33,-1.82,-1.15,5103,0,18.6167,0.661607,-283.749,7740.04,-35940.6,-290.359,-126.664,-27.2778,0
25546,15.11,14.88,14.68,14.91,14.89,-15.63,-855.47,579.1,1.82,1.74,1.02,5109,0,19.1651,0.582827,-288.033,7135.38,-36364.9,-186.827,-126.253,-24.7731,0
25577,15.11,14.88,14.68,14.9,14.89,-33.2,-855.47,592.77,-0.02,-5.16,-3.76,5115,0,20.48,1.53601,-292.932,5873.39,-36788.8,-108.871,-125.589,-20.0514,0
25608,15.11,14.88,14.67,14.9,14.89,14.16,-806.15,643.55,2.19,3.12,0.61,5122,0,20.6014,5.75051,-302.875,3466.9,-37801.4,-690.157,-124.809,-11.4477,0
25639,15.12,14.87,14.67,14.9,14.89,-39.06,-869.14,548.34,1.6,4.06,1.88,5128,0,21.3018,8.09849,-308.4,1507.2,-38340.6,-1067.1,-124.321,-4.88662,0
25670,15.12,14.87,14.67,14.89,14.89,-12.21,-840.33,591.31,-2.56,-0.46,0.21,5134,0,20.794,10.0143,-300.184,-688.398,-37269.7,-1408.21,-124.156,2.29517,0
25701,15.13,14.87,14.67,14.89,14.89,-13.67,-819.82,623.54,5.32,3.27,3.28,5140,0,19.795,10.6276,-283.21,-1420.51,-35281.3,-1484.39,-124.577,5.01534,0
25732,15.15,14.87,14.67,14.88,14.89,-4.39,-830.57,626.95,2.74,1.54,1.05,5146,0,20.0763,5.57612,-277.052,634.35,-34718.3,-786.246,-125.313,-2.28931,0
25763,15.16,14.87,14.67,14.88,14.89,4.88,-827.15,631.35,0.24,-1.13,4.14,5153,0,22.2635,9.82565,-292.905,2548.33,-36865.2,-1063.13,-125.861,-8.69888,0
25794,15.18,14.86,14.67,14.87,14.89,-27.34,-840.33,604,2.46,-0.53,1.35,5159,0,24.2229,6.71307,-305.382,4610.85,-38537.9,-268.816,-126.196,-15.0988,0
25825,15.21,14.86,14.67,14.86,14.9,-39.06,-846.19,580.08,-0.31,6.05,2.89,5165,0,22.501,5.34029,-296.596,6295.28,-37708.6,-197.442,-127.138,-21.2275,0
25856,15.22,14.86,14.66,14.86,14.9,-20.02,-826.66,590.33,0.67,-1.83,-0.98,5171,0,23.413,-2.06073,-289.565,10301.2,-36998.5,853.593,-127.773,-35.5768,0
25887,15.24,14.86,14.66,14.85,14.9,-35.16,-825.2,636.72,0.61,2.84,0.44,5177,0,23.4073,-7.86996,-268.828,12547.9,-34627.1,1589.98,-128.807,-46.6807,0
25918,15.26,14.86,14.66,14.84,14.91,-43.95,-839.84,589.84,-3.89,2.37,-1.15,5184,0,21.4368,-2.46038,-240.27,12516.2,-31206.6,1346.39,-129.882,-52.0947,0
25949,15.28,14.86,14.66,14.84,14.91,-18.55,-821.29,623.05,-2.81,3.5,2.12,5190,0,18.3817,-6.34948,-223.137,13166,-29437,1991.27,-131.924,-59.0068,0
25980,15.29,14.86,14.66,14.84,14.91,-22.95,-855.47,587.4,-3.57,4.75,-1.93,5196,0,13.422,-9.93845,-196.558,12190.3,-26369,2378.5,-134.158,-62.0184,0
26011,15.3,14.86,14.66,14.84,14.91,-39.55,-840.82,580.08,-2.6,1.34,-2.87,5202,0,14.4146,-3.86146,-193.065,11949.3,-25987.7,1988.91,-134.607,-61.8912,0
26042,15.3,14.86,14.66,14.83,14.91,-28.32,-830.57,598.14,-1.08,2.1,-2.23,5208,0,13.0121,-4.22536,-214.722,14176.2,-28960.3,1771.11,-134.873,-66.0206,0
26072,15.3,14.86,14.66,14.83,14.91,-22.46,-840.33,577.64,-3.34,-0.63,-1.21,5214,0,9.56372,-9.35189,-198.182,13258.4,-27100.8,1738.16,-136.749,-66.8983,0
26104,15.3,14.86,14.66,14.83,14.91,-26.37,-828.61,591.31,2.02,-1.52,-0.92,5221,0,13.4975,-5.18662,-208.113,13737.5,-28211.2,1372.48,-135.556,-66.0103,0
26134,15.3,14.86,14.66,14.83,14.91,-11.23,-834.47,588.38,4.91,-1.84,1.07,5227,0,13.2737,-6.81115,-205.787,13756.1,-28034.7,1488.66,-136.232,-66.8458,0
26165,15.32,14.86,14.66,14.83,14.92,-27.34,-828.61,594.24,1.03,1.66,-0.23,5233,0,12.7284,-10.8369,-190.9,12781.6,-26126.3,1994.35,-136.861,-66.9512,0
26196,15.35,14.86,14.66,14.82,14.92,-49.32,-833.98,593.75,-0.72,-0.15,-1.79,5239,0,16.1506,-7.56694,-240.779,17267.6,-32379.6,1330.91,-134.48,-71.7151,0
26227,15.34,14.86,14.66,14.8,14.92,-18.07,-832.52,601.07,-0.96,1.98,-0.37,5245,0,17.3063,-5.45327,-245.807,17514.2,-33007.7,929.563,-134.283,-71.2507,0
26258,15.37,14.86,14.65,14.78,14.92,-26.86,-829.59,596.19,-6.47,4.4,0.26,5252,0,15.4077,-9.6486,-214.42,15090.7,-29034.1,1665.99,-135.408,-70.3799,0
26289,15.38,14.85,14.65,14.77,14.91,-26.86,-856.45,553.71,-4.31,2.55,-0.38,5258,0,15.3963,-6.34662,-243.089,17177.7,-32689.8,1017.09,-134.477,-70.6647,0
26320,15.38,14.85,14.65,14.76,14.91,-29.3,-854.98,566.41,-10.24,3.02,-2.44,5264,0,16.0885,-8.16812,-244.894,17168.2,-32760.5,1092.49,-133.775,-70.1051,0
26351,15.42,14.85,14.65,14.75,14.92,-18.55,-829.59,581.05,1.7,4.14,1.48,5270,0,17.9592,-9.44762,-254.535,17767.9,-33898.3,1112.38,-133.18,-69.8061,0
26382,15.44,14.85,14.65,14.74,14.92,-29.3,-843.26,618.16,-5.92,2.86,1.19,5276,0,21.274,-6.78489,-290.264,19423.9,-38032.2,302.337,-131.027,-66.9197,0
26413,15.4,14.85,14.65,14.74,14.91,-39.06,-848.63,565.43,-2.24,0.81,-1.53,5283,0,21.0166,-4.22577,-280.404,16023.5,-36289,-118.408,-129.417,-57.1412,0
26444,15.41,14.85,14.65,14.74,14.91,-32.23,-825.2,609.37,-1.06,2.66,1.18,5289,0,21.7742,-5.99364,-305.102,16363.7,-39251.4,103.724,-128.65,-53.6341,0
26475,15.41,14.85,14.65,14.73,14.91,-23.44,-870.61,578.12,-2.24,0.77,-0.16,5295,0,21.0423,-2.26189,-320.453,15002.8,-41071,-702.392,-128.166,-46.8182,0
26506,15.36,14.85,14.65,14.73,14.9,-57.13,-860.35,536.13,-5.42,0.85,-3.18,5301,0,18.852,0.469296,-317.969,11444.4,-40360.3,-1365.33,-126.932,-35.9937,0
26536,15.34,14.85,14.65,14.74,14.89,-16.11,-862.79,580.08,7.31,-1.02,-1.08,5307,0,20.3802,4.68123,-332.981,8905.21,-41624.3,-2020.85,-125.005,-26.7455,0
26566,15.37,14.85,14.65,14.74,14.9,-49.8,-838.87,587.4,2.15,0.76,0.6,5313,0,22.5558,6.66278,-347.719,7148.32,-42845.6,-2230.24,-123.219,-20.5588,0
26597,15.42,14.85,14.65,14.73,14.91,-42.97,-837.89,598.63,-1.69,4.87,0.21,5319,0,23.0561,9.90974,-334.212,2690.91,-40590.5,-2678.9,-121.451,-8.04736,0
26627,15.46,14.85,14.64,14.74,14.92,-68.36,-838.38,571.78,-2.6,3.03,-3.76,5325,0,21.4799,11.8163,-326.214,-22.6011,-39547.1,-2914.27,-121.23,0.0694829,0
26658,15.49,14.85,14.65,14.74,14.93,-36.13,-840.33,599.12,1.92,3.07,1.31,5332,0,20.4901,13.7517,-342.066,-252.143,-41611.3,-3462.16,-121.647,0.737315,0
26688,15.51,14.85,14.65,14.74,14.94,-30.27,-847.17,576.66,6.35,-0.91,1.15,5338,0,19.7259,15.4056,-333.234,-1992.69,-40704.7,-3949.59,-122.151,5.98071,0
26719,15.51,14.85,14.65,14.74,14.94,-33.69,-835.45,597.66,2.9,-1.11,0.92,5344,0,18.135,10.6369,-335.621,-2012.09,-41178.1,-3255.09,-122.692,5.99621,0
26753,15.47,14.85,14.65,14.74,14.93,-31.74,-830.08,615.23,-3.38,-0.9,0.2,5351,0,19.363,7.32693,-339.484,-2068.06,-41627.2,-2265.92,-122.619,6.09238,0
26784,15.44,14.85,14.65,14.73,14.92,-10.74,-839.84,616.21,-6.33,0.49,0.65,5357,0,16.62,10.7251,-332.23,-3540.24,-40670.5,-2916.32,-122.417,10.6563,0
26814,15.43,14.85,14.65,14.73,14.91,-38.09,-826.17,570.8,-3.19,5.05,-1.56,5363,0,17.4923,10.8801,-330.179,-4247.73,-40355.9,-2734.74,-122.224,12.8649,0
26845,15.42,14.85,14.64,14.73,14.91,-25.39,-842.77,585.94,4.83,-2.6,-0.85,5369,0,17.0564,13.5695,-333.725,-4631.81,-40481.2,-3191.7,-121.301,13.8792,0
26875,15.43,14.85,14.65,14.74,14.92,-46.39,-830.08,578.61,2.01,-1.59,1.72,5375,0,16.5629,11.3349,-337.987,-4347.28,-40824,-2959.6,-120.786,12.8623,0
26906,15.41,14.85,14.65,14.75,14.92,-41.02,-846.68,579.59,5.05,-4.21,0.13,5381,0,18.5339,8.92247,-338.184,-4269.97,-40409.6,-2212.04,-119.49,12.6263,0
26937,15.39,14.85,14.65,14.77,14.91,-38.09,-859.37,573.73,6,-3.71,-1.76,5387,0,14.7633,10.5637,-340.001,-3955.8,-40790.8,-2646.6,-119.973,11.6347,0
26968,15.37,14.85,14.65,14.78,14.91,-26.86,-813.48,594.73,7.98,-3.09,-0.27,5394,0,15.9634,8.2506,-336.182,-3766.98,-40259,-1835.55,-119.754,11.2051,0
26999,15.36,14.85,14.65,14.78,14.91,-28.81,-830.57,607.42,-1.91,2.23,0.6,5400,0,15.4469,7.83942,-336.48,-2773.56,-40522.5,-1843.6,-120.431,8.24321,0
27030,15.34,14.85,14.65,14.77,14.9,-22.46,-827.15,619.14,-0.2,-2.55,-2.1,5406,0,15.6704,3.4053,-338.128,-1259.01,-40863.7,-1033.55,-120.853,3.72341,0
27061,15.33,14.85,14.65,14.78,14.9,-18.55,-833.98,600.1,-2.01,-1.08,-2.5,5412,0,14.4324,5.2179,-332.601,-921.986,-40486.9,-1387,-121.729,2.77187,0
27091,15.3,14.85,14.65,14.79,14.9,-28.81,-834.47,602.54,0.98,0.55,-0.48,5418,0,13.0027,4.86859,-329.569,238.643,-40630.6,-1305.1,-123.284,-0.724466,0
27122,15.28,14.85,14.65,14.79,14.89,-37.6,-829.1,603.03,3.92,-1.59,-3.47,5424,0,12.3442,2.16083,-325.454,1758.74,-40385.8,-839.503,-124.091,-5.40449,0
27153,15.26,14.85,14.65,14.8,14.89,-38.57,-826.17,607.91,-0.26,-1.98,0.89,5431,0,10.3375,1.22675,-318.158,3354.79,-39954.3,-764.614,-125.58,-10.5446,0
27184,15.24,14.85,14.66,14.8,14.89,-27.83,-810.06,615.23,0.61,-5.7,-2.56,5437,0,11.6796,-0.679309,-315.229,4959.75,-39576.1,-105.157,-125.547,-15.7342,0
27215,15.22,14.85,14.65,14.81,14.88,-25.39,-826.66,609.86,-2.05,-4.02,0.18,5443,0,12.8741,-2.44718,-311.428,6589.1,-39044.2,441.354,-125.372,-21.1579,0
27246,15.2,14.85,14.66,14.81,14.88,-39.55,-833.01,590.33,-0.49,-1.58,0.46,5449,0,12.7566,-3.72016,-312.486,8312.01,-39236,659.069,-125.561,-26.5998,0
27277,15.18,14.85,14.66,14.81,14.87,-26.86,-822.27,606.45,0.37,-1.27,0.72,5455,0,13.098,-5.90706,-308.341,9616.81,-38847.3,1119.78,-125.988,-31.1894,0
27308,15.17,14.85,14.66,14.81,14.87,-26.37,-809.57,620.61,-0.82,0.34,-2.46,5462,0,12.9065,-5.73873,-300.025,10433.9,-37945.9,1204.03,-126.476,-34.7772,0
27339,15.17,14.85,14.66,14.8,14.87,-26.37,-831.54,594.73,-1.79,-0.91,0,5468,0,13.2725,-4.04071,-292.68,11033,-36973.4,992.786,-126.327,-37.6968,0
27370,15.17,14.85,14.66,14.81,14.87,-21,-827.64,611.33,1.35,-1.76,-0.63,5474,0,14.4951,-7.11757,-294.727,13068.2,-37394,1252.34,-126.877,-44.3402,0
27401,15.16,14.85,14.66,14.81,14.87,-17.58,-821.29,625.98,-0.63,-0.95,0.31,5480,0,15.4947,-7.81002,-286.312,14098.7,-36561.3,1320.93,-127.697,-49.2426,0
27432,15.15,14.85,14.66,14.81,14.87,-25.88,-814.45,625.49,2.75,-0.6,0.56,5486,0,15.3956,-5.07033,-280.778,14999.7,-36224.7,1097.25,-129.016,-53.4224,0
27463,15.15,14.85,14.66,14.82,14.87,-34.67,-833.01,599.61,1.16,-2.4,1.81,5493,0,15.2853,-6.81076,-274.955,16359.3,-35795.5,1337.61,-130.187,-59.4988,0
27494,15.14,14.85,14.66,14.82,14.87,-22.46,-812.5,622.07,2.34,-3.08,1.63,5499,0,15.3457,-4.71104,-262.793,16043,-34381.4,1063.96,-130.831,-61.0484,0
27525,15.12,14.85,14.66,14.83,14.86,-31.74,-822.27,610.84,-0.67,-2.97,-0.98,5505,0,15.714,-3.16553,-253.32,15929,-33275.3,886.848,-131.357,-62.8811,0
27556,15.11,14.85,14.66,14.84,14.86,-25.88,-814.94,611.33,3.62,-2.35,0.61,5511,0,16.0689,-2.8241,-259.87,17431.1,-34170.4,962.601,-131.49,-67.0756,0
27587,15.12,14.85,14.66,14.84,14.87,-28.81,-814.45,605.47,1.98,-3.02,0.08,5517,0,16.534,-3.51954,-254.129,17894.8,-33432,1089.62,-131.555,-70.4164,0
27617,15.13,14.84,14.66,14.83,14.87,-26.86,-822.75,602.54,-1.37,-1.21,-1.35,5523,0,17.7251,-0.947637,-253.063,17890.4,-33361.1,805.588,-131.83,-70.6954,0
27649,15.14,14.84,14.66,14.83,14.87,-22.95,-830.08,601.07,1.5,0.44,0.23,5530,0,19.7699,1.88707,-253.276,18089,-33297.8,808.944,-131.469,-71.4195,0
27679,15.15,14.84,14.66,14.83,14.87,-21.48,-832.03,616.7,0.18,0.54,1.08,5536,0,20.0359,0.345779,-260.786,19342.6,-34201.1,1149.36,-131.146,-74.1706,0
27710,15.16,14.84,14.66,14.82,14.87,-22.46,-825.2,615.23,-0.05,-0.08,-0.42,5542,0,21.3486,-0.202896,-260.288,19596.8,-33935.9,1529.88,-130.379,-75.2891,0
27741,15.17,14.84,14.66,14.81,14.87,-11.72,-816.41,624.02,-4.45,0.88,-0.87,5548,0,22.7291,-1.15154,-258.567,19707,-33552.1,1659.07,-129.761,-76.2162,0
27772,15.19,14.84,14.65,14.81,14.88,-43.95,-831.05,595.7,-2.08,-0.21,-0.69,5554,0,22.2501,-3.72672,-252.716,19594.7,-32698,2042.86,-129.387,-77.5366,0
27803,15.18,14.84,14.65,14.82,14.87,-14.65,-819.34,629.88,0.44,-1.66,-0.47,5561,0,18.5078,-7.33612,-255.248,20263.8,-33168,2415.42,-129.944,-79.3888,0
27834,15.17,14.84,14.66,14.82,14.87,-36.13,-828.12,601.56,0.24,-1.88,-0.84,5567,0,16.1484,-6.32521,-264.945,20932.1,-34555.2,2136.26,-130.425,-79.0052,0
27865,15.18,14.84,14.65,14.81,14.87,-23.93,-816.41,625,2.73,-2.9,0.73,5573,0,17.5874,-7.60856,-275.386,22115.6,-35664.6,2362.46,-129.508,-80.3075,0
27896,15.23,14.84,14.65,14.79,14.88,-21.97,-817.38,630.86,-5.91,6.67,1.34,5579,0,20.8077,-8.3455,-287.321,23226.2,-36771.4,2479.29,-127.98,-80.8375,0
27927,15.26,14.84,14.65,14.76,14.88,-41.5,-825.68,598.63,-10.23,4.79,0.31,5585,0,22.9039,-7.5046,-292.526,23556.7,-37302.8,2482.22,-127.52,-80.5285,0
27958,15.29,14.84,14.64,14.74,14.88,-9.28,-822.75,605.47,-2.79,0.92,-1.26,5592,0,22.4976,-8.25172,-294.438,23630,-37508.5,2531.27,-127.39,-80.2547,0
27989,15.34,14.84,14.64,14.71,14.88,-29.3,-827.64,625.49,-17.92,5.62,1.08,5598,0,21.8565,-8.84995,-291.092,23207.5,-37231,2373.86,-127.901,-79.7257,0
28020,15.31,14.84,14.64,14.7,14.87,-40.53,-855.96,568.85,-19.27,-0.38,-1.05,5604,0,21.7348,-8.20073,-285.318,22194.7,-36382.1,2251.38,-127.514,-77.7891,0
28051,15.29,14.84,14.64,14.7,14.87,-54.69,-877.93,552.73,-11.39,2.73,-0.53,5610,0,22.2814,-5.2097,-280.647,20731.5,-35741.7,1818.98,-127.355,-73.8704,0
28082,15.27,14.84,14.63,14.7,14.86,-46.39,-875.98,546.39,1.24,1.08,0.63,5616,0,22.2796,-4.80636,-278.087,19918.3,-35417.9,1833.73,-127.363,-71.6261,0
28113,15.3,14.84,14.64,14.7,14.87,-39.55,-831.54,591.31,-2.01,4.69,-2.15,5623,0,20.9666,-1.46098,-276.128,18295.3,-34996.5,1463.73,-126.74,-66.2563,0
28144,15.29,14.84,14.64,14.7,14.87,-47.85,-820.8,592.77,-7.02,8.37,-0.99,5629,0,20.8244,-1.2699,-272.066,17017.1,-34484.1,1395.11,-126.749,-62.5474,0
28175,15.31,14.84,14.64,14.7,14.87,-34.18,-853.52,585.94,7.62,3.8,-2.4,5635,0,20.428,-0.283843,-269.147,15965.4,-34105.5,1064.74,-126.717,-59.3188,0
28205,15.34,14.85,14.64,14.7,14.88,-0.49,-813.96,600.59,2.62,-0.63,-2.23,5641,0,20.4485,-1.08757,-273.963,16217.5,-34591.1,1084.09,-126.262,-59.1956,0
28235,15.35,14.84,14.64,14.71,14.88,-80.57,-882.32,517.58,3.11,-3.05,-1.99,5647,0,21.2263,-2.76068,-283.457,17465.5,-35766.9,1308.63,-126.181,-61.6154,0
28266,15.41,14.85,14.64,14.72,14.9,-31.25,-835.94,604.49,6.18,0.39,-0.6,5653,0,21.4568,-4.15269,-288.873,18713.8,-36443.5,1415.06,-126.157,-64.7817,0
28296,15.42,14.85,14.64,14.71,14.9,-25.88,-847.17,597.66,-7.5,2.65,2.41,5659,0,21.7529,-4.65687,-293.888,19692.2,-37207.4,1558.23,-126.604,-67.0056,0
28327,15.43,14.85,14.64,14.72,14.91,-21,-931.15,469.73,7.88,-3.22,-0.43,5665,0,22.2912,-3.34801,-296.908,19569,-37360.2,1663.77,-125.831,-65.9093,0
28357,15.53,14.85,14.64,14.73,14.94,-17.09,-820.8,638.67,9.56,-2.34,-2.08,5671,0,22.1608,-0.988386,-296.402,18953.6,-37185.4,1434.41,-125.456,-63.9455,0
28387,15.5,14.85,14.64,14.72,14.93,-27.34,-816.89,618.16,-12.27,5.6,-0.06,5677,0,22.3235,-1.00383,-294.677,18719.8,-37005.8,1455.45,-125.581,-63.5266,0
28418,15.48,14.86,14.64,14.73,14.93,-21.97,-880.37,527.34,0.5,3.51,-4.32,5684,0,23.7666,-1.07099,-296.973,18735.4,-36998.9,1506.21,-124.587,-63.0879,0
28449,15.51,14.86,14.65,14.75,14.94,-43.46,-845.7,617.19,4.73,-5.56,-2.89,5690,0,24.9983,0.341308,-300.211,18443.1,-37175.7,1285.97,-123.832,-61.4336,0
28480,15.45,14.86,14.65,14.75,14.93,-39.55,-843.26,584.47,-7.29,2.26,-2.04,5696,0,24.361,0.773722,-300.667,18302.8,-37043.3,1173.34,-123.204,-60.874,0
28510,15.43,14.86,14.65,14.76,14.92,16.6,-838.38,587.89,4.53,0.21,-3.31,5702,0,24.4646,0.149914,-299.88,18582,-36867.7,1144.98,-122.942,-61.965,0
28541,15.43,14.86,14.65,14.78,14.93,-28.81,-850.1,577.64,5.68,-8.19,-1.59,5708,0,24.7492,-0.504757,-292.696,18524.2,-35848.6,1275.19,-122.477,-63.2884,0
28572,15.38,14.86,14.66,14.8,14.92,-34.18,-832.03,618.65,1.73,-5.04,-1.73,5714,0,23.7847,-2.23915,-287.831,19438.1,-35331.1,1484.56,-122.749,-67.5329,0
28602,15.36,14.86,14.66,14.81,14.92,-24.9,-845.21,586.43,6.64,-1.47,-0.4,5720,0,22.8534,-4.95358,-286.764,21046.7,-35347.9,1933.79,-123.265,-73.3941,0
28633,15.34,14.86,14.66,14.83,14.92,-20.51,-908.69,556.64,10.59,-12.47,-1.72,5727,0,22.8279,-4.92755,-281.714,21691.4,-35012.2,2049.28,-124.283,-76.9981,0
28664,15.31,14.86,14.66,14.83,14.92,15.63,-786.62,616.7,-2.51,-1.17,-2.88,5733,0,21.8126,-4.54357,-280.748,22101.6,-35181.8,2232.14,-125.315,-78.7241,0
28695,15.31,14.86,14.66,14.84,14.92,-28.32,-848.63,584.47,1.81,2.15,-0.02,5739,0,20.8038,-3.40685,-279.391,22146.1,-35262.1,2200.54,-126.211,-79.2656,0
28726,15.29,14.86,14.66,14.85,14.92,-39.06,-837.4,608.4,-0.12,-5.21,0.22,5745,0,20.888,-3.35392,-281.695,22534.1,-35665,2275.93,-126.609,-79.9947,0
28757,15.27,14.86,14.66,14.85,14.91,-4.39,-809.57,610.35,1.82,-0.87,-0.69,5751,0,22.2937,-4.93006,-288.978,23488.6,-36444.9,2646.83,-126.117,-81.2812,0
28788,15.26,14.86,14.66,14.84,14.91,-7.81,-829.59,598.63,-0.62,-2.61,0.85,5758,0,24.0929,-4.97232,-294.169,23821.1,-36925.3,2648.23,-125.524,-80.9777,0
28821,15.27,14.86,14.66,14.84,14.91,-35.16,-840.33,590.82,1.37,1.58,-0.22,5764,0,24.4793,-2.97824,-292.052,23006.2,-36439.4,2249.59,-124.77,-78.7744,0
28852,15.27,14.86,14.66,14.84,14.91,-11.23,-817.87,609.86,0.65,1.72,-1.74,5770,0,24.4638,-5.52681,-292.173,22754.7,-36200.4,2405.83,-123.901,-77.8811,0
28883,15.28,14.86,14.66,14.84,14.91,-32.71,-843.26,613.28,-3.58,1.05,1.73,5777,0,24.3707,-1.34444,-286.989,20301.9,-34995.4,1759.62,-121.94,-70.7406,0
28914,15.27,14.86,14.66,14.85,14.91,-16.6,-826.66,604.98,1.36,-1.97,-2.57,5783,0,23.9361,-1.2031,-280.633,18108.5,-33758.2,1695.7,-120.293,-64.5255,0
28945,15.25,14.86,14.66,14.85,14.91,-31.25,-830.57,595.21,2.4,-1.45,0.87,5789,0,23.8261,0.611449,-263.346,13528.2,-31139.7,1101.53,-118.245,-51.367,0
28976,15.24,14.85,14.66,14.85,14.9,-13.18,-806.15,616.7,0.82,-3.47,-0.58,5795,0,22.9421,9.33498,-252.961,8785.22,-29202.7,20.3108,-115.443,-34.727,0
29007,15.23,14.85,14.67,14.85,14.9,-21,-830.57,592.77,0.73,3.36,0.67,5801,0,20.4769,7.73645,-233.864,5114.96,-26625.9,178.011,-113.852,-21.8639,0
29038,15.22,14.85,14.66,14.85,14.9,10.74,-809.08,622.56,2.35,0.24,-0.89,5808,0,19.5375,8.83623,-213.694,2783.17,-24124.5,363.579,-112.894,-13.0259,0
29069,15.23,14.85,14.66,14.85,14.9,-9.28,-815.43,617.19,1.99,-0.78,1.99,5814,0,16.3608,-1.05232,-201.095,4280.88,-23383.2,1409.74,-116.28,-21.2902,0
29100,15.24,14.85,14.66,14.84,14.9,-36.13,-841.31,587.89,-0.47,4.58,-0.16,5820,0,12.6398,-3.92402,-179.059,4681.78,-21581.2,1374.18,-120.524,-26.1428,0
29131,15.25,14.85,14.66,14.83,14.9,-22.95,-820.31,628.42,0.63,1.26,-2.8,5826,0,14.5141,-4.43081,-200.401,8726.53,-24418,1648.57,-121.845,-43.5407,0
29161,15.26,14.85,14.66,14.81,14.9,-19.04,-829.59,601.56,-3.41,6.88,0.27,5832,0,11.6838,-6.08035,-195.06,10158.5,-24160.2,1560.49,-123.863,-52.0798,0
29192,15.28,14.85,14.66,14.8,14.9,-33.69,-818.36,615.23,-4.14,7.31,-1.7,5838,0,11.9681,-7.71252,-181.947,9973.87,-22686.2,1583.66,-124.687,-54.8093,0
29223,15.29,14.85,14.65,14.78,14.9,-17.09,-832.52,604.49,-5.82,1.93,-0.27,5845,0,15.0553,-3.19269,-225.234,13942.3,-27596.4,546.05,-122.523,-61.9011,0
29254,15.32,14.85,14.65,14.77,14.9,-22.46,-809.57,607.42,-3.79,0.66,-0.55,5851,0,17.269,-3.76789,-218.007,13250.1,-26329.3,686.332,-120.77,-60.7759,0
29285,15.34,14.85,14.65,14.76,14.9,-32.71,-823.73,604.49,-4,3.98,0.56,5857,0,20.3001,-1.78733,-220.253,12992.2,-26065.6,629.584,-118.346,-58.9798,0
29316,15.36,14.85,14.65,14.75,14.9,-29.3,-823.24,602.05,-0.93,2.07,-2.02,5863,0,20.1145,-7.04816,-259.806,16457.5,-30481.2,1005.17,-117.324,-63.3461,0
29347,15.38,14.85,14.65,14.74,14.9,-32.71,-843.26,591.8,1.08,1.89,1.53,5869,0,17.8631,-12.4248,-255.962,15782.1,-29857.2,1754.57,-116.646,-61.6559,0
29378,15.38,14.85,14.65,14.74,14.9,-45.9,-832.52,580.57,-0.31,0.02,1.54,5876,0,24.0568,-7.9652,-297.776,17339.5,-33946,1159.52,-113.998,-58.233,0
29409,15.36,14.85,14.64,14.73,14.9,-19.53,-820.8,615.72,-0.72,-1.15,-0.1,5882,0,26.424,-0.665528,-316.326,16122.1,-35647.9,398.075,-112.693,-50.9663,0
29440,15.37,14.84,14.64,14.73,14.9,-35.16,-853.52,559.57,3.43,1.56,1,5888,0,22.6189,-1.67641,-294.677,12435.9,-33268,125.973,-112.897,-42.1994,0
29471,15.4,14.84,14.64,14.73,14.91,-33.69,-834.96,599.61,4.08,-3.31,0.61,5894,0,22.8009,3.21299,-309.894,11959.1,-35131.4,-732.916,-113.365,-38.5889,0
29502,15.44,14.84,14.64,14.73,14.91,-24.41,-811.04,639.65,-2.25,1.34,0.63,5900,0,23.6341,0.152756,-333.355,12567.9,-37672.9,-83.1906,-113.011,-37.7017,0
29533,15.45,14.84,14.64,14.73,14.91,-45.41,-839.84,582.52,-4.49,4.25,0.53,5907,0,18.3852,2.0136,-314.64,8203.31,-35493,-162.652,-112.805,-26.0711,0
29564,15.44,14.84,14.64,14.71,14.91,-24.9,-821.29,609.86,-7.76,2.33,0.5,5913,0,15.8066,7.07658,-321.549,6946.97,-36430.5,-1017.07,-113.297,-21.605,0
29595,15.44,14.85,14.64,14.7,14.91,-42.48,-832.52,606.93,-10.46,2.89,-0.4,5919,0,16.8154,12.5396,-327.911,5967.15,-37012,-1877.82,-112.872,-18.1976,0
29626,15.46,14.84,14.64,14.69,14.91,-18.07,-848.14,611.33,-10.65,6.44,-0.63,5925,0,13.6772,14.3035,-321.033,4589.16,-36156.8,-2376.06,-112.626,-14.2949,0
29657,15.45,14.84,14.64,14.7,14.91,-48.83,-871.58,539.06,4.69,-1.37,-2.21,5931,0,10.7439,12.0482,-329.154,5290.64,-37145.4,-2338.48,-112.85,-16.0721,0
29688,15.48,14.84,14.64,14.7,14.92,17.09,-789.55,641.6,9.35,-0.31,2.01,5938,0,8.70319,11.2399,-343.961,6523.79,-38869.3,-2601.18,-113.005,-18.9665,0
29719,15.56,14.85,14.64,14.7,14.94,-37.6,-831.54,583.98,-3.88,5.88,-1.21,5944,0,5.93802,12.6022,-334.898,5648.56,-37779.1,-2703.12,-112.808,-16.8666,0
29750,15.6,14.85,14.64,14.71,14.95,-39.55,-841.31,587.89,-3.03,1.35,-1.63,5950,0,2.66932,5.80587,-333.118,6528.41,-37930.4,-2012.02,-113.865,-19.5971,0
29780,15.62,14.85,14.64,14.71,14.95,-26.86,-835.94,606.93,-1.28,2.21,-1.15,5956,0,0.191929,2.41508,-341.528,7608.42,-39136.1,-2000.39,-114.591,-22.2775,0
29811,15.63,14.85,14.64,14.7,14.96,-31.25,-834.96,600.59,1.35,0.55,0.15,5962,0,0.0663017,10.4256,-344.596,6662.95,-39383.1,-3163.51,-114.288,-19.3355,0
29842,15.65,14.85,14.64,14.7,14.96,-21,-830.08,604,1.93,-1.51,-0.11,5968,0,-0.976308,9.41985,-340.748,6205.58,-38807.3,-3201.68,-113.889,-18.2115,0
29873,15.66,14.85,14.64,14.7,14.96,-32.71,-838.87,582.03,-0.33,1.08,1.29,5975,0,-2.67842,7.0482,-343.322,7035.92,-39321.5,-2991.21,-114.533,-20.4936,0
29903,15.65,14.85,14.64,14.71,14.96,-39.55,-833.98,604,-0.79,1.36,-0.11,5981,0,-3.93,10.9237,-335.64,6699.7,-38610.1,-3479.2,-115.035,-19.9611,0
29934,15.65,14.85,14.64,14.71,14.96,-28.81,-835.94,601.07,-0.84,1.33,0.02,5987,0,-4.07549,5.10431,-336.513,7798.16,-38850.5,-2579.55,-115.45,-23.1733,0
29964,15.65,14.85,14.64,14.72,14.96,-43.95,-846.19,582.03,1.51,-1.34,-0.63,5993,0,-3.0574,4.20509,-336.215,8480.33,-38830.6,-2167.59,-115.493,-25.2229,0
29995,15.61,14.85,14.64,14.74,14.96,-40.04,-832.52,598.14,5.85,-5.52,-2.55,5999,0,-2.06582,6.50822,-325.23,8279.28,-37738,-2212.57,-116.035,-25.457,0
30025,15.58,14.85,14.65,14.75,14.96,-9.77,-820.31,631.35,0.31,-1.82,-1.41,6005,0,-3.03623,0.858196,-325.055,9700.69,-38192.6,-1366.93,-117.496,-29.8431,0
30055,15.54,14.85,14.65,14.76,14.95,-50.29,-845.7,583.01,-3.5,0.79,2.85,6011,0,-3.32683,1.12096,-321.895,10266.4,-38082.2,-1264.25,-118.306,-31.8938,0
30086,15.48,14.85,14.65,14.77,14.94,-35.16,-834.47,604,1.56,-4.44,-2.11,6017,0,-0.432622,0.340162,-317.531,10762.2,-37565.5,-523.799,-118.305,-33.8934,0
30117,15.44,14.85,14.65,14.78,14.93,-35.64,-824.71,604,2.01,1.35,-1.79,6023,0,-0.306885,-2.53913,-320.391,12085.2,-38157.5,-234.209,-119.097,-37.72,0
30148,15.4,14.85,14.65,14.78,14.92,-23.44,-822.75,614.26,-0.92,-1.3,-1.43,6030,0,2.35983,-6.18687,-320.268,13204.7,-38251.6,613.642,-119.436,-41.2301,0
30178,15.37,14.85,14.65,14.79,14.92,-38.57,-823.73,606.93,0.46,0.6,-2.28,6036,0,2.59873,-5.21729,-321.036,13750.3,-38471.9,667.483,-119.837,-42.8308,0
30209,15.35,14.85,14.66,14.8,14.91,-37.6,-832.03,589.36,1.67,-1.14,-1.1,6042,0,4.38935,-6.02722,-322.578,14448.6,-38512.8,903.805,-119.391,-44.7909,0
30240,15.33,14.85,14.66,14.81,14.91,-21.48,-835.45,601.56,1.57,-0.29,-2.39,6048,0,7.17695,-7.07455,-321.291,15032.8,-38230.5,1203.95,-118.99,-46.7885,0
30270,15.32,14.85,14.66,14.81,14.91,-31.74,-823.73,608.4,1.08,-2.08,-0.98,6054,0,9.36598,-7.43502,-322.478,15517.8,-38282.7,1419.09,-118.714,-48.1206,0
30301,15.29,14.85,14.66,14.81,14.9,-11.72,-834.96,589.84,-1.56,-1.39,-1.53,6060,0,11.2181,-7.62653,-323.094,15718,-38155.7,1560.05,-118.095,-48.6485,0
30332,15.27,14.85,14.66,14.82,14.9,-31.25,-822.27,601.56,-0.44,0.9,-1.08,6066,0,12.3613,-6.44651,-323.221,15731.2,-37985.5,1531.57,-117.522,-48.6702,0
30363,15.25,14.85,14.66,14.83,14.9,-31.25,-822.75,602.54,1.29,1.85,-0.63,6073,0,14.202,-5.40425,-323.891,15831.1,-37965.3,1328,-117.216,-48.878,0
30394,15.24,14.85,14.66,14.83,14.9,-33.2,-813.48,623.54,-0.64,-1.17,-0.5,6079,0,16.551,-4.54361,-324.106,15802.8,-37914,1389.83,-116.98,-48.7581,0
30425,15.21,14.85,14.66,14.84,14.89,-29.79,-831.54,599.12,0.09,0.07,0.48,6085,0,16.1514,-0.840017,-319.889,15230.1,-37364,882.795,-116.803,-47.6106,0
30456,15.2,14.85,14.66,14.85,14.89,-25.88,-833.01,600.59,4.22,-2.76,0.69,6091,0,16.4696,0.903425,-320.245,15587.6,-37576.4,816.5,-117.337,-48.6741,0
30487,15.19,14.85,14.67,14.86,14.89,-27.34,-831.05,612.3,1.63,-4.79,-0.73,6097,0,17.2069,-0.940194,-326.182,16964.6,-38390.5,1087.64,-117.697,-52.0093,0
30517,15.18,14.85,14.67,14.86,14.89,-32.23,-831.54,603.52,1.24,-3.03,-2.9,6103,0,17.8428,0.892638,-318.398,17029.2,-37617.3,812.749,-118.146,-53.4837,0
30548,15.16,14.85,14.67,14.87,14.89,-8.79,-821.29,618.65,1.9,-3.62,-0.93,6110,0,19.1959,4.02073,-310.28,17552.4,-36945.6,318.699,-119.072,-56.5697,0
30579,15.15,14.85,14.67,14.87,14.88,-18.07,-829.1,625.49,0.81,-3.03,-0.68,6116,0,19.689,-0.357104,-300.27,18553.6,-36028.8,739.729,-119.988,-61.7906,0
30610,15.16,14.85,14.67,14.87,14.89,-38.09,-847.66,561.52,1.38,1.04,0.1,6122,0,19.0102,-1.44971,-285.277,18754.9,-34340.5,1130.5,-120.376,-65.7436,0
30641,15.16,14.85,14.67,14.88,14.89,-16.6,-821.29,605.96,4.21,-3.75,-1.54,6128,0,20.6721,0.481027,-277.477,19022.8,-33667.7,886.954,-121.335,-68.5559,0
30672,15.18,14.85,14.67,14.87,14.89,-0.98,-806.15,618.16,3.39,2.21,-0.95,6134,0,21.1907,0.105224,-288.392,21087.6,-35165.2,793.518,-121.936,-73.1212,0
30703,15.22,14.85,14.66,14.85,14.9,-24.41,-813.48,639.65,-1.58,1.59,0.11,6141,0,19.933,-1.17552,-270.104,19979.5,-33121.3,940.776,-122.624,-73.9687,0
30734,15.17,14.85,14.67,14.88,14.89,19.04,-807.13,690.43,15.86,-15.18,-2.62,6147,0,22.491,4.62804,-270.122,19102,-32761.9,420.184,-121.286,-70.7161,0
30765,15.1,14.85,14.67,14.89,14.88,-48.34,-819.34,602.54,1.82,-12.37,0.75,6153,0,21.1458,2.41342,-267.653,19225.6,-32464.6,703.854,-121.294,-71.8308,0
30796,15.07,14.85,14.67,14.9,14.87,-21.97,-812.5,620.61,4.83,-2.16,-0.47,6159,0,21.4145,0.652632,-257.205,18852.4,-31298.9,925.297,-121.688,-73.2962,0
30827,15.03,14.84,14.67,14.88,14.85,-29.79,-826.66,604,-1.72,-1.76,4.27,6165,0,22.3555,2.11289,-243.569,16660.7,-29288.3,797.25,-120.246,-68.4025,0
30858,15.03,14.84,14.66,14.83,14.84,58.11,-769.53,675.29,1.66,2.19,3.85,6172,0,18.8267,2.70511,-252.488,17046.5,-30614.7,529.963,-121.252,-67.5133,0
30889,15.12,14.84,14.65,14.78,14.85,-48.83,-837.4,576.66,-2.44,1.21,1.75,6178,0,14.3811,-3.20764,-266.574,19285.4,-32896.7,727.692,-123.405,-72.3443,0
30920,15.15,14.83,14.64,14.75,14.84,-41.5,-817.38,592.77,-10.94,4.33,1.76,6184,0,15.6042,-5.94937,-284.02,21519.1,-34984.7,955.887,-123.177,-75.7658,0
30951,15.21,14.83,14.64,14.74,14.86,-39.06,-840.33,614.26,-0.56,4.11,1.1,6190,0,20.1942,-4.03014,-295.087,22439.2,-36040.2,951.099,-122.134,-76.0431,0
30982,15.23,14.83,14.64,14.74,14.86,-41.02,-816.89,624.51,-8.98,4.28,-0.27,6196,0,21.709,-4.86348,-303.942,23316.3,-37126.5,1200.78,-122.15,-76.7128,0
31013,15.22,14.83,14.64,14.75,14.86,-8.79,-868.16,571.29,-0.57,-4.96,-2.71,6203,0,20.7433,-2.82675,-308.298,23658.4,-37956.3,925.497,-123.116,-76.7386,0
31044,15.28,14.83,14.64,14.75,14.88,-32.71,-816.41,629.88,4.18,-0.44,-0.02,6209,0,19.74,0.57618,-300.899,22335.7,-37124,370.511,-123.377,-74.2294,0
31075,15.29,14.83,14.64,14.76,14.88,-29.79,-808.11,632.32,0.78,1.23,-2.43,6215,0,19.6864,-0.375685,-283.855,20669.1,-34983.1,454.755,-123.242,-72.8153,0
31106,15.4,14.83,14.65,14.79,14.92,-10.25,-816.89,616.7,17.75,0.31,-0.44,6221,0,20.4376,-2.68275,-270.172,19740,-33184.6,747.248,-122.827,-73.0644,0
31136,15.42,14.84,14.65,14.79,14.92,12.21,-829.1,637.7,-2.53,-6.97,0.58,6227,0,22.0751,-5.88965,-263.182,19434,-32474.6,989.355,-123.392,-73.8426,0
31167,15.34,14.83,14.65,14.78,14.9,-43.46,-808.59,618.16,-7.13,-2.2,-1.56,6233,0,21.8107,-7.37039,-267.465,19979.2,-33166,1248.04,-124.001,-74.6983,0
31198,15.36,14.84,14.65,14.78,14.91,-56.15,-799.8,626.46,-0.44,8.29,-5.26,6240,0,22.0203,-4.99265,-274.056,19379.3,-33810.7,1283.83,-123.372,-70.7131,0
31229,15.34,14.84,14.65,14.77,14.9,-1.46,-848.63,609.37,-6.74,7.07,-1.91,6246,0,23.2729,-3.56888,-277.193,18449.8,-34001.9,1284.73,-122.665,-66.5596,0
31260,15.33,14.84,14.65,14.78,14.9,-10.25,-825.2,596.68,-6.01,1.51,-3.12,6252,0,24.2567,-0.00105756,-281.451,17307.3,-34480.6,1082.76,-122.51,-61.4931,0
31291,15.4,14.85,14.65,14.78,14.92,-47.36,-798.34,651.37,5.15,-0.33,-4.34,6258,0,23.7043,0.697885,-282.157,16741,-34798.8,857.052,-123.331,-59.3324,0
31322,15.4,14.85,14.65,14.77,14.92,-23.44,-853.52,571.29,-6.15,1.9,-1.68,6264,0,22.9015,-1.32736,-278.564,16454.6,-34449.2,1092.74,-123.668,-59.0696,0
31353,15.39,14.85,14.65,14.77,14.91,13.18,-827.64,618.65,0.22,-0.04,-1.58,6271,0,23.1171,-1.92397,-270.335,15847.2,-33412.4,1228.14,-123.596,-58.6206,0
31384,15.41,14.85,14.65,14.78,14.92,-41.99,-824.71,587.4,5.15,-2.88,-1.95,6277,0,22.9821,-1.56103,-267.105,14760.2,-32888,1145.44,-123.128,-55.2599,0
31415,15.43,14.85,14.65,14.79,14.93,-40.53,-822.27,606.45,-2.68,-2.88,0.11,6283,0,22.0077,-1.46284,-265.484,14015.3,-32690.8,882.407,-123.137,-52.7915,0
31446,15.42,14.85,14.65,14.8,14.93,-18.07,-813.96,625.49,-0.65,2.47,-1.85,6289,0,21.1875,-1.82454,-265.788,13470.8,-32686.6,907.889,-122.98,-50.6826,0
31477,15.4,14.85,14.66,14.81,14.93,-47.85,-849.61,574.22,-2.08,1.81,-2.18,6295,0,21.2376,-1.05392,-264.865,12659.6,-32514.4,833.565,-122.758,-47.7961,0
31508,15.35,14.85,14.66,14.83,14.92,-24.9,-817.87,611.82,0.98,-4.82,-0.79,6302,0,21.1188,0.61472,-260.201,11534.7,-31819.4,705.085,-122.288,-44.3301,0
31538,15.33,14.85,14.66,14.84,14.92,-10.74,-812.5,634.77,0.04,-0.21,0.08,6308,0,20.6891,1.01934,-256.163,11064.5,-31292.8,694.595,-122.16,-43.1932,0
31569,15.31,14.86,14.66,14.83,14.92,-5.37,-831.54,600.59,-7.6,0.39,1.8,6314,0,20.7752,2.22673,-250.263,10119.2,-30543,592.639,-122.044,-40.4341,0
31599,15.29,14.86,14.66,14.83,14.91,-13.67,-824.71,601.56,-3.02,1.91,-0.76,6320,0,20.5614,2.47221,-247.889,9904.88,-30296.5,585.19,-122.218,-39.957,0
31629,15.28,14.86,14.66,14.82,14.91,-17.09,-848.14,577.64,-0.49,1.04,-5.45,6326,0,20.3147,1.99235,-243.44,9608.17,-29668.8,536.718,-121.873,-39.4682,0
31660,15.29,14.86,14.66,14.81,14.9,-0.49,-804.69,632.81,-6.24,5.31,-1.76,6332,0,20.4634,0.493117,-240.936,9765.24,-29311.2,761.617,-121.655,-40.5304,0
31690,15.28,14.86,14.66,14.8,14.9,-0.49,-839.84,602.54,-1.78,2.45,-2.21,6338,0,21.1304,-0.267771,-244.853,9943.87,-29743.7,843.77,-121.476,-40.6116,0
31721,15.3,14.86,14.66,14.8,14.91,-23.44,-858.89,571.29,2.44,-2.86,-1.25,6344,0,20.8107,-0.254018,-243.728,9521.17,-29656.6,823.399,-121.679,-39.0647,0
31752,15.29,14.86,14.66,14.8,14.9,-20.51,-835.94,587.4,1.02,-3.02,1.9,6350,0,19.8249,-1.52131,-243.985,9293.41,-29555.4,853.601,-121.136,-38.09,0
31782,15.28,14.86,14.66,14.8,14.9,-21.97,-850.59,555.66,1.97,-0.89,0.99,6356,0,18.4076,-2.12501,-246.254,9257.5,-29913.5,905.039,-121.474,-37.5933,0
31813,15.29,14.86,14.66,14.8,14.9,-36.13,-847.66,577.64,-0.2,-4.22,2.85,6363,0,19.2431,0.0328757,-244.891,8310.11,-29592.2,780.465,-120.839,-33.934,0
31844,15.28,14.86,14.66,14.8,14.9,-18.55,-812.99,619.63,-1.92,0.79,1.4,6369,0,20.1875,0.930073,-246.116,7850.23,-29680.3,882.566,-120.595,-31.8965,0
31874,15.29,14.85,14.66,14.79,14.9,-13.67,-853.52,585.94,1.92,2.69,0.1,6375,0,19.5404,1.17224,-250.221,7921.68,-30239.1,896.07,-120.85,-31.6588,0
31905,15.3,14.85,14.65,14.79,14.9,-12.21,-836.91,606.45,1.6,2.76,2.11,6381,0,19.7999,1.30423,-253.045,8278.38,-30597.1,1172.62,-120.916,-32.7151,0
31936,15.31,14.85,14.65,14.79,14.9,-38.57,-837.4,605.96,0.21,-1.61,2.02,6387,0,21.2099,0.446162,-254.516,8735.74,-30763.8,1358.81,-120.872,-34.3228,0
31966,15.31,14.85,14.66,14.8,14.91,2.44,-823.24,619.63,5.06,0.83,-0.53,6393,0,20.7515,0.0751926,-255.736,9283.61,-30925.8,1484.04,-120.929,-36.3016,0
31997,15.33,14.85,14.65,14.8,14.91,-2.93,-805.18,622.56,0.73,2.46,1.98,6399,0,21.7949,-0.31699,-257.298,9760.7,-31205.2,1568.9,-121.28,-37.9355,0
32028,15.35,14.85,14.65,14.8,14.91,-10.25,-827.15,617.68,1.51,0.88,-0.72,6406,0,20.261,-1.90285,-253.738,10357.2,-30945,1745.48,-121.957,-40.8188,0
32059,15.37,14.85,14.65,14.8,14.92,-30.76,-834.47,596.68,2.71,-1.76,2.64,6412,0,18.9707,-4.86593,-250.157,11779.1,-30912,1998.74,-123.571,-47.087,0
