currTime,s1,s2,s3,s4,s,AccX,AccY,AccZ,GyroX,GyroY,GyroZ
22,14.75,14.81,14.63,14.70,14.73,-93.75,-825.68,618.65,-8.27,-12.47,2.98
53,14.75,14.81,14.63,14.71,14.73,-147.46,-1017.09,264.16,12.27,-16.34,-2.05
84,14.75,14.81,14.63,14.71,14.73,-28.81,-864.75,615.72,-7.39,6.64,-0.26
114,14.75,14.81,14.63,14.71,14.73,-18.07,-838.38,572.27,1.39,0.05,-1.24
148,14.75,14.82,14.63,14.71,14.73,-32.71,-863.77,542.97,1.64,0.23,-3.01
179,14.75,14.82,14.63,14.71,14.73,-26.86,-862.79,541.02,1.18,-1.28,-1.44
209,14.75,14.82,14.63,14.71,14.73,-19.53,-858.40,547.85,-0.31,-1.45,0.17
240,14.75,14.82,14.63,14.71,14.73,-17.09,-851.07,564.94,0.08,1.18,-0.03
271,14.75,14.82,14.63,14.71,14.73,-16.60,-884.77,549.32,-0.90,0.93,-3.08
302,14.75,14.82,14.63,14.71,14.73,-46.88,-854.49,557.13,-2.09,1.44,0.15
333,14.75,14.82,14.63,14.71,14.73,-19.04,-848.63,562.50,-2.66,-0.50,0.64
364,14.75,14.82,14.63,14.71,14.73,-33.20,-867.68,553.71,-1.00,0.70,-2.12
395,14.75,14.81,14.63,14.71,14.73,-32.71,-870.61,550.78,-1.76,1.34,0.66
426,14.75,14.82,14.63,14.71,14.73,-22.95,-868.16,547.36,-0.85,0.65,-1.56
457,14.75,14.82,14.63,14.71,14.73,-32.71,-865.23,549.80,-1.13,2.92,1.20
488,14.75,14.82,14.63,14.71,14.73,-29.79,-867.68,540.04,-0.06,-2.17,-0.78
519,14.74,14.82,14.63,14.71,14.73,-30.27,-865.23,552.73,-2.02,1.59,-0.54
550,14.74,14.82,14.63,14.71,14.73,-20.51,-857.42,540.53,-1.11,0.44,-1.44
581,14.74,14.82,14.63,14.71,14.72,-39.55,-853.52,553.22,-2.32,-0.76,-3.13
612,14.74,14.82,14.63,14.71,14.72,-21.97,-881.84,549.32,-1.05,-0.08,-1.86
643,14.74,14.82,14.63,14.71,14.72,-16.11,-861.33,555.18,1.57,1.30,-0.80
674,14.74,14.82,14.63,14.71,14.72,-17.09,-872.07,566.89,0.70,-0.94,-1.21
704,14.74,14.82,14.63,14.71,14.72,-18.55,-864.75,548.34,0.01,-2.31,-0.66
735,14.74,14.82,14.63,14.71,14.73,-12.21,-870.12,559.08,2.63,-1.84,-1.64
767,14.74,14.82,14.63,14.71,14.73,-24.90,-862.79,551.76,0.75,-1.45,0.73
798,14.74,14.82,14.63,14.72,14.73,-34.67,-868.65,546.87,2.50,1.05,1.49
828,14.74,14.82,14.63,14.72,14.73,-19.04,-872.07,552.25,3.11,-2.73,1.90
859,14.74,14.82,14.63,14.72,14.73,-23.44,-872.56,548.83,-0.31,-1.52,-0.37
891,14.75,14.82,14.63,14.72,14.73,-25.88,-860.35,543.95,1.62,-0.79,-1.05
921,14.75,14.81,14.63,14.72,14.73,-26.37,-866.70,545.41,-0.82,3.34,-3.28
952,14.75,14.81,14.63,14.72,14.73,-28.32,-860.35,559.57,-2.45,2.10,-1.78
983,14.75,14.81,14.63,14.71,14.73,-52.73,-871.09,577.15,0.17,-2.27,0.51
1014,14.75,14.81,14.63,14.71,14.73,-21.00,-864.75,560.06,-5.27,3.84,-1.92
1045,14.74,14.82,14.63,14.71,14.73,-41.99,-856.93,559.57,-1.66,2.34,1.08
1076,14.74,14.82,14.63,14.71,14.73,-27.34,-865.72,549.32,0.20,-1.62,-0.52
1107,14.74,14.82,14.63,14.71,14.72,-27.34,-878.91,539.06,-0.38,-1.01,2.15
1138,14.74,14.81,14.63,14.72,14.73,-30.76,-867.68,557.13,2.09,0.49,2.47
1169,14.74,14.82,14.63,14.72,14.73,-29.79,-864.75,544.43,2.53,-2.35,0.25
1200,14.74,14.81,14.63,14.72,14.73,-23.93,-860.35,537.60,1.27,2.66,-1.98
1231,14.74,14.82,14.63,14.72,14.73,-30.76,-866.70,571.29,0.37,-1.07,-2.24
1262,14.74,14.81,14.63,14.73,14.73,-15.14,-858.89,572.27,-0.28,0.12,0.85
1293,14.74,14.81,14.64,14.73,14.73,-28.32,-857.42,561.52,3.26,0.16,2.23
1324,14.74,14.81,14.64,14.73,14.73,-29.79,-865.23,567.87,0.54,1.49,-0.66
1355,14.74,14.81,14.64,14.73,14.73,-34.67,-861.82,563.96,0.00,2.02,1.34
1386,14.74,14.81,14.64,14.73,14.73,-38.09,-871.09,553.22,-0.05,1.96,-0.69
1417,14.74,14.82,14.64,14.73,14.73,-22.46,-868.16,551.27,0.51,1.72,0.72
1448,14.74,14.81,14.64,14.73,14.73,-11.72,-869.14,563.96,-0.73,0.60,-2.24
1479,14.73,14.82,14.64,14.73,14.73,-21.00,-860.35,551.27,1.22,-1.32,0.69
1510,14.73,14.82,14.64,14.73,14.73,-25.88,-864.26,553.22,0.60,-0.33,-2.45
1540,14.73,14.81,14.64,14.74,14.73,-14.16,-853.03,568.85,2.56,0.21,-0.22
1571,14.73,14.82,14.64,14.74,14.73,-23.44,-854.49,558.59,1.06,0.25,-1.48
1601,14.73,14.81,14.64,14.74,14.73,-32.23,-867.68,562.01,4.33,-1.31,-1.01
1631,14.73,14.81,14.64,14.74,14.73,-35.64,-852.05,577.64,5.82,-1.32,-2.18
1662,14.73,14.81,14.64,14.74,14.73,-20.51,-862.30,571.29,1.08,1.18,0.63
1692,14.73,14.81,14.64,14.74,14.73,-20.02,-856.45,576.66,2.34,-2.69,-2.49
1723,14.73,14.81,14.64,14.75,14.73,-27.34,-857.42,562.01,1.24,-0.05,0.32
1754,14.73,14.81,14.64,14.75,14.73,-27.34,-855.47,564.94,-1.29,-0.53,-0.40
1785,14.74,14.81,14.64,14.75,14.74,-23.44,-842.29,580.08,-0.05,0.50,-2.18
1815,14.74,14.82,14.64,14.76,14.74,-31.25,-863.28,564.94,0.96,-0.40,-1.21
1846,14.74,14.81,14.64,14.76,14.74,-28.32,-862.79,555.18,2.34,-1.73,-1.67
1877,14.74,14.82,14.65,14.77,14.74,-24.90,-851.56,548.34,5.29,-3.66,0.67
1907,14.74,14.81,14.65,14.78,14.75,-17.09,-852.54,569.82,6.80,-6.13,-0.76
1938,14.74,14.81,14.65,14.78,14.75,-17.09,-847.17,579.59,2.62,-1.31,-0.15
1969,14.74,14.81,14.65,14.79,14.75,-13.67,-839.84,572.75,3.66,-2.46,0.56
2000,14.74,14.81,14.65,14.79,14.75,-16.60,-830.57,587.89,2.85,-3.74,0.98
2031,14.73,14.81,14.65,14.79,14.75,-14.16,-837.40,573.24,0.41,-1.13,3.14
2062,14.72,14.81,14.65,14.79,14.74,-10.74,-845.70,586.91,-0.65,-2.82,-2.92
2093,14.72,14.81,14.65,14.79,14.74,-21.48,-842.29,581.54,-1.13,-0.35,2.98
2124,14.71,14.81,14.65,14.78,14.74,-17.09,-845.21,576.17,0.34,2.91,-0.27
2155,14.70,14.81,14.65,14.78,14.74,-9.77,-852.05,588.38,-2.05,1.13,-1.72
2186,14.70,14.81,14.65,14.77,14.73,-6.35,-851.56,562.01,2.66,0.02,-3.16
2217,14.69,14.81,14.65,14.77,14.73,-6.35,-840.82,565.92,0.62,1.44,-4.21
2248,14.69,14.81,14.65,14.76,14.73,-0.49,-828.61,586.91,-3.32,0.70,-2.14
2279,14.69,14.81,14.65,14.75,14.72,-23.93,-838.38,588.87,-1.47,1.87,1.87
2310,14.69,14.81,14.64,14.74,14.72,-12.70,-857.42,583.98,-0.47,-0.16,-2.02
2341,14.69,14.81,14.64,14.73,14.72,-5.86,-818.85,572.27,0.73,1.79,-2.18
2372,14.69,14.80,14.64,14.72,14.71,9.77,-807.13,598.63,-5.26,2.35,5.78
2403,14.70,14.80,14.63,14.70,14.71,-16.60,-843.75,573.24,-4.67,2.30,6.83
2434,14.71,14.80,14.63,14.70,14.71,-59.08,-885.74,558.59,-9.56,5.17,-0.27
2465,14.70,14.80,14.63,14.69,14.71,-15.14,-840.82,564.94,-1.55,2.65,0.45
2496,14.70,14.80,14.63,14.69,14.70,-21.48,-848.14,557.62,-3.07,0.09,1.60
2527,14.70,14.80,14.63,14.68,14.70,-22.46,-842.29,567.87,-4.09,0.98,0.15
2558,14.70,14.80,14.63,14.68,14.70,-19.53,-850.10,555.18,-6.33,1.95,2.84
2589,14.71,14.79,14.62,14.67,14.70,-27.34,-855.96,566.89,-5.78,4.15,6.16
2620,14.71,14.80,14.63,14.67,14.70,-49.80,-875.98,538.57,-4.80,-0.37,3.37
2651,14.71,14.80,14.62,14.66,14.70,-25.88,-840.33,573.73,-7.02,1.21,3.13
2682,14.71,14.80,14.62,14.65,14.70,-55.66,-870.61,543.95,-12.12,3.57,4.59
2713,14.70,14.80,14.62,14.65,14.69,-41.50,-897.46,539.55,-11.69,0.24,-0.40
2744,14.69,14.80,14.62,14.65,14.69,-205.08,-915.53,474.12,-13.55,-10.66,9.31
2775,14.67,14.80,14.62,14.65,14.68,-257.32,-1110.84,330.57,-1.96,-51.87,26.95
2806,14.65,14.79,14.62,14.65,14.68,-135.74,-823.24,247.07,4.63,-82.24,39.73
2837,14.63,14.79,14.62,14.65,14.67,-29.30,-1006.84,-83.01,-129.34,-15.89,28.82
2868,14.62,14.79,14.62,14.65,14.67,-482.91,-531.25,428.71,-18.57,-30.56,21.83
2899,14.62,14.79,14.62,14.65,14.67,-149.90,-986.82,283.69,-34.79,8.83,25.69
2930,14.62,14.79,14.61,14.65,14.67,-157.71,-1053.71,243.16,-28.03,8.13,33.85
2961,14.62,14.79,14.61,14.65,14.67,-119.14,-981.45,269.53,-27.69,-10.87,30.93
2992,14.62,14.78,14.61,14.65,14.67,-68.85,-927.73,310.06,-23.15,-29.87,20.36
3023,14.61,14.78,14.61,14.65,14.67,-6.35,-1030.27,347.17,-19.50,-39.59,8.53
3054,14.61,14.78,14.61,14.65,14.67,78.12,-933.11,385.74,-36.82,-42.76,5.09
3085,14.61,14.78,14.61,14.65,14.66,62.99,-985.35,439.45,-44.90,-33.92,2.98
3116,14.61,14.78,14.61,14.65,14.66,91.31,-976.07,473.63,-30.76,-32.26,9.05
3147,14.61,14.78,14.61,14.65,14.66,108.89,-965.33,490.72,-9.55,-37.82,10.58
3178,14.61,14.78,14.61,14.65,14.66,127.44,-875.98,489.26,0.94,-30.66,23.76
3208,14.61,14.78,14.61,14.65,14.66,119.63,-849.12,519.53,-5.99,-21.38,24.50
3239,14.61,14.78,14.61,14.65,14.66,59.57,-918.95,530.76,1.88,-25.09,20.63
3269,14.61,14.78,14.61,14.65,14.66,45.41,-871.09,492.19,16.92,-33.65,5.89
3299,14.61,14.78,14.61,14.65,14.66,49.32,-924.32,515.62,25.50,-42.56,1.33
3330,14.61,14.78,14.61,14.65,14.66,11.23,-878.42,502.44,34.17,-42.21,4.72
3360,14.61,14.78,14.61,14.65,14.66,-17.58,-863.77,515.14,20.10,-34.90,3.59
3391,14.61,14.78,14.61,14.65,14.66,-59.08,-892.58,499.51,26.82,-40.08,0.79
3422,14.61,14.78,14.61,14.65,14.66,-70.80,-799.32,496.09,19.68,-40.47,-5.52
3453,14.61,14.78,14.61,14.65,14.66,-70.80,-843.75,498.05,19.20,-45.40,-5.20
3483,14.61,14.78,14.61,14.65,14.66,-62.50,-709.96,443.36,21.18,-43.81,-4.58
3514,14.61,14.78,14.61,14.66,14.67,-88.38,-689.45,449.22,-3.51,-38.74,-8.53
3545,14.61,14.78,14.61,14.66,14.66,1151.86,-182.62,679.69,246.19,35.81,-34.16
3576,14.65,14.78,14.61,14.66,14.67,797.36,-2000.00,169.43,-76.27,34.03,-28.67
3606,14.63,14.78,14.61,14.66,14.67,-4.39,-1110.35,655.76,-42.56,15.57,-11.15
3637,14.62,14.78,14.61,14.66,14.67,52.25,-793.46,596.19,-7.47,-20.05,-3.18
3668,14.63,14.78,14.61,14.66,14.67,-69.82,-973.14,403.32,28.98,12.34,6.02
3699,14.66,14.78,14.61,14.66,14.68,-26.37,-880.37,561.04,28.56,-3.13,4.51
3730,14.67,14.78,14.61,14.65,14.68,-46.39,-884.28,536.13,-4.59,-1.86,-1.54
3761,14.68,14.78,14.61,14.65,14.68,-16.11,-873.54,525.39,4.48,6.49,1.32
3792,14.72,14.79,14.61,14.65,14.69,-34.18,-922.85,532.71,-1.26,9.75,7.44
3823,14.74,14.79,14.61,14.65,14.70,-120.12,-903.81,467.29,6.69,-0.76,8.57
3854,14.79,14.79,14.61,14.65,14.71,-42.97,-874.51,545.41,16.90,-3.28,1.25
3885,14.85,14.79,14.61,14.65,14.72,-67.38,-860.35,539.06,10.30,2.96,3.96
3916,14.89,14.80,14.61,14.65,14.74,-56.64,-867.19,528.32,12.66,-1.11,-4.34
3947,14.95,14.80,14.62,14.65,14.75,-56.64,-867.68,520.51,16.06,-8.52,-12.07
3978,14.98,14.80,14.61,14.65,14.76,-16.11,-848.63,581.54,0.79,3.45,-0.69
4011,15.03,14.80,14.62,14.65,14.78,-4.88,-890.14,550.29,8.13,-11.21,-5.24
4042,15.07,14.80,14.61,14.65,14.78,-52.25,-850.10,567.38,12.20,-6.52,0.15
4073,15.08,14.80,14.62,14.65,14.79,-35.16,-858.40,558.59,8.47,-3.53,-0.50
4104,15.12,14.81,14.62,14.66,14.80,-25.39,-902.34,548.34,16.15,-4.64,-3.80
4135,15.16,14.81,14.62,14.66,14.81,-1.95,-866.70,582.03,15.02,-8.05,-1.00
4166,15.20,14.81,14.62,14.66,14.82,-26.86,-843.75,602.54,10.01,-6.70,-0.53
4197,15.25,14.81,14.62,14.67,14.84,-46.39,-858.89,583.50,12.71,-1.51,0.03
4228,15.29,14.81,14.62,14.68,14.85,-12.70,-811.04,617.19,11.92,-4.34,-1.59
4259,15.33,14.81,14.63,14.69,14.86,-21.48,-817.38,596.68,8.02,-0.56,-1.64
4290,15.35,14.81,14.62,14.70,14.87,-24.90,-826.17,609.37,4.82,0.43,-2.47
4321,15.38,14.81,14.63,14.71,14.88,-18.55,-832.52,605.96,6.60,0.62,-0.60
4352,15.40,14.81,14.63,14.73,14.89,-24.41,-806.15,617.19,3.31,0.90,-2.60
4383,15.39,14.81,14.63,14.74,14.89,-14.65,-832.03,616.21,1.74,2.52,-3.27
4414,15.39,14.82,14.63,14.75,14.90,-30.27,-832.52,617.68,-2.56,-0.31,-0.99
4445,15.40,14.82,14.63,14.75,14.90,-46.39,-825.68,613.28,-1.42,5.22,1.15
4476,15.41,14.82,14.64,14.77,14.91,-42.48,-833.01,568.85,-6.44,2.84,-3.13
4507,15.43,14.82,14.64,14.78,14.92,-27.34,-850.59,580.08,1.77,-1.34,-1.25
4538,15.49,14.83,14.64,14.78,14.93,-35.16,-812.99,608.89,9.48,-2.26,-1.97
4569,15.53,14.83,14.64,14.77,14.94,-36.13,-829.59,588.38,2.95,-3.91,-0.24
4600,15.55,14.83,14.64,14.77,14.95,-8.30,-816.41,614.26,1.14,-2.65,1.15
4631,15.59,14.83,14.64,14.77,14.96,-24.90,-819.34,667.48,4.44,-0.63,1.80
4661,15.64,14.83,14.64,14.75,14.97,-8.79,-823.24,609.37,6.33,-1.13,1.12
4693,15.71,14.83,14.64,14.74,14.98,-26.86,-843.26,586.43,2.79,-3.32,-1.79
4724,15.80,14.83,14.64,14.73,15.00,-48.34,-822.27,580.08,-0.38,-1.37,0.94
4754,15.96,14.83,14.64,14.72,15.03,-24.41,-807.62,644.04,-2.12,2.36,-0.59
4785,16.13,14.83,14.64,14.71,15.08,-34.18,-858.89,575.20,-7.15,-1.03,1.44
4817,16.27,14.83,14.63,14.71,15.11,-32.71,-835.45,599.12,5.61,-3.89,0.87
4847,16.35,14.84,14.63,14.71,15.13,-19.04,-825.68,600.10,5.97,-4.00,-1.29
4878,16.38,14.83,14.64,14.72,15.14,-32.23,-808.59,609.37,4.47,-5.35,0.22
4908,16.40,14.84,14.64,14.72,15.15,-12.21,-827.15,633.79,2.79,-6.02,0.85
4939,16.41,14.83,14.64,14.72,15.15,-38.09,-819.82,617.68,2.34,-3.91,2.34
4969,16.41,14.83,14.64,14.72,15.15,-29.79,-803.22,617.19,6.80,-4.66,4.47
5000,16.41,14.83,14.64,14.72,15.15,-25.88,-805.66,624.02,7.69,-6.93,2.23
5030,16.39,14.83,14.63,14.72,15.14,-32.23,-836.91,609.86,4.87,-5.34,4.23
5061,16.32,14.83,14.63,14.71,15.12,-22.95,-845.21,604.00,-1.35,-9.02,6.85
5092,16.17,14.81,14.63,14.69,15.08,27.83,-932.13,610.84,-8.03,-7.63,20.51
5122,15.77,14.80,14.62,14.67,14.97,-78.12,-855.47,702.15,-3.61,10.37,37.77
5153,15.12,14.79,14.62,14.66,14.80,-884.77,-1233.40,295.41,-29.36,-44.85,110.28
5184,14.74,14.78,14.62,14.66,14.70,-743.16,-2000.00,70.31,113.51,-250.14,155.99
5214,14.65,14.78,14.61,14.66,14.68,621.58,-355.47,907.23,250.13,-250.14,190.05
5245,14.64,14.78,14.61,14.65,14.67,-258.30,-1352.05,-13.18,-82.82,-250.14,196.35
5276,14.64,14.78,14.61,14.65,14.67,-200.68,-1157.23,362.30,0.22,-250.14,84.03
5307,14.63,14.78,14.61,14.65,14.67,-184.57,-886.23,486.82,-72.60,-250.14,98.86
5338,14.63,14.78,14.62,14.65,14.67,-232.91,-870.12,362.30,-74.47,-250.14,68.40
5369,14.63,14.78,14.61,14.65,14.67,-164.06,-891.60,263.67,-88.85,-244.85,42.98
5400,14.63,14.78,14.61,14.65,14.67,-135.25,-931.64,214.84,-65.67,-209.01,39.40
5431,14.63,14.78,14.61,14.65,14.67,-43.95,-940.92,174.80,-18.50,-164.85,56.77
5462,14.63,14.78,14.61,14.65,14.67,23.93,-847.66,120.61,21.74,-102.17,67.49
5493,14.63,14.78,14.61,14.65,14.67,-14.65,-785.64,41.50,47.02,-57.29,69.60
5523,14.62,14.78,14.62,14.65,14.67,-27.34,-744.63,10.74,51.47,-37.97,77.85
5555,14.62,14.78,14.61,14.65,14.67,-29.30,-798.83,39.06,69.21,-34.93,80.08
5586,14.62,14.78,14.62,14.65,14.67,41.99,-781.25,83.01,71.82,-12.36,82.00
5617,14.62,14.78,14.61,14.65,14.67,95.21,-832.52,171.87,33.51,47.11,114.98
5647,14.62,14.78,14.61,14.65,14.67,143.55,-931.64,238.28,-31.77,100.50,152.01
5679,14.62,14.78,14.61,14.65,14.67,184.08,-1113.77,344.24,-67.05,131.54,135.64
5710,14.61,14.78,14.61,14.65,14.66,456.05,-1182.62,598.63,-98.91,153.17,72.36
5740,14.61,14.78,14.61,14.65,14.67,772.46,-1477.54,816.89,-81.26,202.87,24.09
5771,14.61,14.79,14.61,14.65,14.67,786.13,-1066.41,872.56,-45.28,250.13,-0.26
5803,14.61,14.78,14.61,14.66,14.67,739.26,-1002.93,822.75,-70.43,250.13,-35.91
5833,14.61,14.79,14.61,14.65,14.67,525.88,-2000.00,1272.46,-22.79,250.13,-100.56
5864,14.62,14.79,14.61,14.65,14.67,574.22,-1145.51,1345.21,55.24,250.13,-99.47
5895,14.65,14.80,14.61,14.65,14.68,54.20,-1210.94,1125.00,250.13,115.56,-88.17
5926,15.00,14.81,14.61,14.66,14.77,-2000.00,-744.63,910.64,250.13,-60.34,-25.02
5957,15.38,14.81,14.62,14.69,14.88,1821.78,-818.85,959.47,37.27,-44.71,-27.02
5988,15.54,14.81,14.63,14.72,14.92,26.37,-507.32,1161.13,67.11,-92.45,-7.60
6019,15.74,14.81,14.63,14.75,14.98,229.00,-679.20,409.18,18.42,72.62,73.63
6050,15.98,14.81,14.64,14.76,15.05,109.86,-644.53,586.43,51.43,-34.83,-39.73
6081,16.10,14.81,14.64,14.77,15.08,-101.56,-801.27,657.71,21.56,-16.98,0.62
6112,16.16,14.81,14.64,14.78,15.10,-19.04,-826.66,589.84,5.28,8.28,0.52
6143,16.20,14.81,14.64,14.79,15.11,19.53,-841.80,575.68,21.31,-0.21,-5.61
6174,16.20,14.81,14.64,14.80,15.11,-6.84,-793.46,626.95,19.02,-0.08,-1.62
6205,16.16,14.81,14.64,14.80,15.10,-21.48,-796.39,643.07,0.79,4.03,-2.82
6236,16.12,14.81,14.64,14.80,15.09,-4.88,-820.31,628.91,-1.63,11.27,-3.27
6267,16.09,14.81,14.63,14.80,15.08,-411.62,-873.05,602.05,8.44,9.53,-5.77
6298,16.10,14.81,14.64,14.81,15.09,-55.18,-1187.50,831.05,43.11,-177.03,31.31
6329,16.09,14.82,14.64,14.82,15.09,446.78,-2000.00,-817.87,-80.47,250.13,-18.89
6360,16.10,14.81,14.64,14.85,15.10,-193.85,269.53,-2000.00,60.83,-250.14,-44.31
6391,16.07,14.82,14.65,14.88,15.10,803.71,293.46,-1740.23,-147.25,-101.52,-41.34
6422,15.99,14.81,14.65,14.88,15.09,734.37,-634.77,832.52,-43.64,20.15,-12.88
6453,15.89,14.82,14.66,14.90,15.07,-450.68,-361.82,1011.23,-33.41,20.44,-21.35
6484,15.77,14.82,14.66,14.92,15.04,13.18,-916.50,333.50,-3.73,38.90,-3.53
6515,15.69,14.82,14.66,14.93,15.03,121.09,-778.81,672.85,4.03,-32.44,3.95
6545,15.64,14.82,14.67,14.96,15.02,-48.34,-729.49,735.84,9.97,-1.56,-2.14
6576,15.60,14.82,14.67,14.98,15.02,-4.88,-818.36,625.00,-0.90,9.99,-1.72
6606,15.53,14.82,14.68,15.00,15.01,4.39,-795.41,659.18,-0.53,-5.63,-0.64
6636,15.46,14.82,14.68,15.03,15.00,-15.63,-785.64,655.27,0.53,-0.53,0.47
6667,15.33,14.82,14.69,15.09,14.98,-49.80,-824.22,612.30,-6.11,-5.67,-1.62
6697,15.08,14.82,14.70,15.12,14.93,-38.09,-836.91,605.96,-14.56,-15.79,-10.53
6728,14.78,14.82,14.70,15.06,14.84,-48.83,-855.47,582.52,-30.46,-3.05,-29.42
6759,14.64,14.81,14.69,14.93,14.77,-468.75,-767.09,861.82,-56.89,19.46,-27.17
6790,14.62,14.81,14.68,14.78,14.72,-257.32,-1318.36,813.48,-76.63,-41.16,-99.73
6820,14.61,14.79,14.66,14.71,14.69,0.49,-1048.34,422.85,-33.02,-59.95,-143.68
6851,14.61,14.79,14.63,14.68,14.68,103.03,-731.45,-0.49,-16.76,2.36,-145.17
6882,14.61,14.79,14.62,14.66,14.67,-374.02,-1105.47,333.50,9.53,8.08,-140.34
6912,14.61,14.79,14.62,14.66,14.67,-613.28,-515.14,352.54,9.98,105.63,-98.51
6943,14.61,14.79,14.62,14.65,14.67,-801.27,-605.47,334.47,12.52,146.88,-46.48
6974,14.61,14.79,14.62,14.65,14.67,-654.79,-643.07,439.45,1.33,117.95,-15.66
7012,14.61,14.79,14.61,14.65,14.66,-532.71,-756.84,626.95,-47.65,126.33,86.44
7044,14.61,14.78,14.61,14.65,14.66,-411.62,-760.25,772.46,-33.45,115.32,86.05
7075,14.60,14.78,14.61,14.65,14.66,-385.25,-809.08,808.59,-15.88,114.21,85.31
7106,14.60,14.78,14.61,14.65,14.66,-344.73,-763.18,786.13,-18.63,96.87,78.91
7137,14.60,14.78,14.61,14.65,14.66,-274.41,-907.23,822.27,-21.89,64.69,51.85
7168,14.60,14.78,14.61,14.65,14.66,-150.39,-918.95,790.53,-31.31,36.99,33.23
7199,14.60,14.78,14.61,14.65,14.66,161.62,-1334.47,815.43,-33.37,47.22,61.25
7230,14.60,14.78,14.61,14.65,14.66,235.84,-1029.30,764.65,9.92,90.85,126.41
7261,14.60,14.78,14.61,14.65,14.66,226.07,-973.14,549.32,-6.78,97.31,99.10
7292,14.60,14.78,14.61,14.65,14.66,372.07,-784.67,500.49,-27.50,75.89,25.92
7323,14.60,14.78,14.61,14.65,14.66,407.71,-968.26,516.60,-43.96,81.56,13.47
7354,14.60,14.78,14.61,14.65,14.66,213.87,-907.23,584.47,5.93,59.23,42.58
7385,14.60,14.78,14.61,14.65,14.66,104.49,-522.95,287.11,147.44,-76.54,-19.56
7416,14.63,14.77,14.61,14.64,14.67,495.12,-519.53,635.25,2.37,-122.89,-51.50
7447,14.78,14.77,14.62,14.65,14.70,-512.21,-285.16,589.84,-48.81,-157.08,-91.63
7478,15.15,14.77,14.62,14.65,14.80,184.57,-1283.69,927.25,93.15,-85.08,-157.60
7509,15.58,14.79,14.61,14.65,14.91,270.02,-1701.66,30.76,82.79,-50.73,-159.96
7540,15.91,14.82,14.62,14.66,15.00,-62.99,-765.62,444.82,17.34,-12.67,-79.92
7571,16.10,14.82,14.62,14.69,15.06,112.79,-634.28,1089.84,58.37,1.60,-7.15
7602,16.16,14.82,14.63,14.71,15.08,-24.41,-779.30,585.45,-14.00,9.21,-0.03
7633,16.21,14.82,14.63,14.73,15.10,-50.29,-822.27,615.72,-1.33,2.40,-0.79
7664,16.22,14.83,14.64,14.75,15.11,-53.71,-824.71,613.28,-10.85,5.18,-0.57
7695,16.18,14.83,14.65,14.80,15.11,-19.04,-851.07,546.87,2.17,-0.69,-0.95
7726,16.14,14.83,14.65,14.85,15.12,-21.00,-842.29,596.68,18.45,-9.99,-0.15
7756,16.09,14.83,14.66,14.90,15.12,-3.91,-779.79,666.99,8.30,-3.17,-4.77
7787,15.97,14.84,14.67,14.93,15.10,-21.48,-786.62,612.79,-8.68,1.21,-1.70
7818,15.85,14.85,14.68,14.95,15.08,-13.67,-836.43,588.38,-6.91,0.47,-2.38
7849,15.76,14.86,14.69,14.97,15.07,-12.21,-821.29,618.16,-5.92,-0.46,-3.22
7880,15.70,14.86,14.69,14.99,15.06,-17.58,-852.05,599.12,0.48,-0.05,-3.73
7911,15.65,14.87,14.70,15.01,15.06,-12.70,-821.78,606.93,1.28,-1.23,1.59
7942,15.62,14.87,14.70,15.03,15.05,-21.97,-832.03,589.84,4.09,0.31,-1.12
7973,15.60,14.87,14.70,15.05,15.06,-22.46,-834.47,602.05,7.85,-3.47,-1.73
8004,15.57,14.87,14.71,15.07,15.06,-21.97,-818.36,624.02,4.27,-0.70,-0.96
8035,15.54,14.87,14.71,15.08,15.05,-21.97,-809.08,620.12,4.02,-0.41,-1.17
8066,15.51,14.87,14.71,15.08,15.04,-16.11,-821.29,605.96,1.34,0.24,-1.75
8097,15.49,14.87,14.71,15.09,15.04,-23.44,-825.20,587.89,-2.76,1.34,1.16
8128,15.43,14.87,14.71,15.10,15.03,-11.72,-838.38,599.61,2.52,-2.07,-2.11
8159,15.40,14.87,14.72,15.11,15.02,-24.90,-797.85,632.81,1.84,-0.63,-0.34
8189,15.37,14.87,14.71,15.09,15.01,-8.79,-822.75,619.14,-1.91,2.09,0.10
8219,15.39,14.87,14.71,15.05,15.00,-5.37,-808.59,638.18,-8.15,10.57,-0.11
8250,15.42,14.86,14.70,14.99,14.99,21.00,-789.55,643.55,-9.04,9.92,1.24
8280,15.41,14.86,14.68,14.92,14.97,-5.37,-823.24,628.42,-15.04,8.73,0.31
8311,15.22,14.85,14.68,14.92,14.92,-195.31,-960.45,346.19,-36.79,-2.89,-0.49
8341,14.84,14.84,14.68,14.91,14.82,-176.27,-968.26,588.38,-50.08,-5.72,-16.89
8372,14.66,14.82,14.68,14.85,14.75,26.37,-896.00,623.54,-47.19,-3.53,-28.58
8403,14.63,14.81,14.66,14.77,14.72,-155.27,-1092.77,970.21,-58.95,-53.92,-59.64
8433,14.62,14.80,14.65,14.71,14.69,90.33,-874.51,462.89,-86.90,-31.47,-63.02
8464,14.62,14.79,14.63,14.68,14.68,10.74,-1220.21,473.63,-70.93,-12.34,-67.77
8495,14.62,14.79,14.63,14.67,14.68,112.30,-860.84,423.34,-39.76,0.72,-71.22
8525,14.62,14.79,14.62,14.66,14.67,-122.07,-874.51,317.87,-42.69,34.94,-68.39
8556,14.62,14.79,14.62,14.66,14.67,-288.57,-948.24,327.64,-8.53,26.99,-47.58
8587,14.62,14.79,14.62,14.66,14.67,-340.82,-733.89,351.07,28.67,24.00,-10.01
8618,14.62,14.79,14.62,14.65,14.67,-262.21,-809.57,362.30,29.21,38.42,57.31
8649,14.61,14.79,14.62,14.65,14.67,-193.36,-689.94,357.42,23.42,37.82,72.07
8680,14.61,14.79,14.61,14.65,14.67,-155.27,-835.94,433.11,6.17,42.58,57.79
8711,14.61,14.79,14.61,14.65,14.67,-125.00,-979.49,479.98,11.83,40.34,49.83
8742,14.61,14.79,14.62,14.65,14.67,-31.25,-958.01,476.07,2.88,38.50,63.27
8773,14.61,14.79,14.62,14.66,14.67,10.25,-997.56,497.07,1.82,31.02,52.93
8804,14.61,14.78,14.61,14.65,14.67,69.82,-949.22,502.44,6.99,13.72,18.51
8835,14.61,14.78,14.61,14.65,14.66,169.92,-1045.41,554.69,-9.17,-0.67,10.00
8866,14.61,14.78,14.61,14.65,14.66,239.26,-1003.91,585.45,-8.47,8.08,44.78
8897,14.61,14.78,14.61,14.65,14.66,252.44,-970.21,578.61,8.41,-1.87,39.92
8928,14.60,14.78,14.62,14.65,14.66,266.11,-864.75,536.62,12.98,-6.60,34.18
8958,14.60,14.78,14.61,14.65,14.66,220.21,-921.87,533.20,17.24,-22.54,26.57
8990,14.60,14.78,14.61,14.65,14.66,206.05,-808.11,521.48,19.73,-29.27,20.14
9021,14.60,14.78,14.62,14.65,14.66,127.93,-856.93,477.05,8.05,-34.32,8.94
9052,14.60,14.78,14.61,14.65,14.66,106.45,-785.64,453.12,-9.79,-33.18,1.95
9082,14.60,14.78,14.61,14.65,14.66,81.54,-791.50,397.95,-25.12,-37.66,-3.84
9114,14.60,14.78,14.61,14.65,14.66,86.91,-716.31,352.05,-43.26,-43.89,-26.36
9144,14.62,14.78,14.61,14.66,14.67,353.52,206.54,-11.23,250.13,-63.48,-47.25
9175,14.67,14.78,14.62,14.67,14.69,-324.71,-776.37,508.79,77.18,0.18,16.95
9206,14.77,14.79,14.62,14.68,14.71,-34.67,-979.49,377.93,17.68,2.14,1.33
9237,14.84,14.79,14.62,14.70,14.74,-54.69,-823.24,621.58,2.56,-10.96,0.57
9268,14.89,14.79,14.63,14.70,14.75,-68.85,-838.87,573.73,3.85,2.50,-1.77
9299,14.97,14.79,14.63,14.72,14.78,-15.63,-854.00,569.34,9.95,-2.03,-0.93
9330,15.11,14.80,14.63,14.75,14.82,-30.27,-838.87,567.38,18.03,-9.58,-0.85
9361,15.28,14.80,14.63,14.78,14.87,-50.29,-835.45,609.86,23.46,-6.18,-1.61
9392,15.57,14.81,14.64,14.81,14.96,-32.71,-837.40,597.66,20.60,-1.34,-3.11
9423,15.89,14.82,14.64,14.83,15.04,-25.39,-801.76,633.30,14.31,0.82,-2.80
9454,16.10,14.82,14.65,14.83,15.10,-32.23,-810.06,635.25,5.33,-0.72,-2.85
9485,16.18,14.83,14.64,14.83,15.12,-35.16,-803.22,641.11,-2.26,1.98,-3.62
9516,16.20,14.83,14.64,14.81,15.12,-18.07,-816.89,631.84,-3.89,1.68,-1.47
9547,16.19,14.83,14.64,14.79,15.11,-36.13,-820.80,614.75,-4.94,5.74,-1.31
9578,16.20,14.83,14.64,14.78,15.11,-23.44,-824.22,603.03,-5.21,3.18,-1.72
9626,16.23,14.83,14.64,14.77,15.12,-31.74,-823.73,629.88,-0.82,1.37,-0.29
9657,16.24,14.83,14.64,14.77,15.12,-27.34,-823.73,605.96,-0.61,-1.62,0.95
9688,16.24,14.83,14.64,14.77,15.12,-27.83,-823.24,627.93,5.99,-4.38,1.62
9719,16.23,14.83,14.64,14.77,15.12,-20.51,-818.85,622.07,0.18,0.37,0.55
9750,16.09,14.82,14.64,14.77,15.08,-25.39,-847.66,620.12,-2.58,-6.53,2.08
9781,15.95,14.82,14.64,14.77,15.04,-30.27,-812.99,633.79,-1.94,-5.98,2.03
9812,15.87,14.82,14.64,14.77,15.02,-18.07,-814.45,626.46,-3.53,0.85,-1.40
9842,15.84,14.82,14.64,14.78,15.02,-20.02,-837.89,621.58,-1.41,0.04,-1.37
9873,15.84,14.82,14.64,14.78,15.02,-30.27,-820.80,614.75,0.72,3.83,-2.14
9903,15.82,14.82,14.64,14.79,15.02,-27.34,-819.34,616.21,-2.20,0.01,0.89
9933,15.81,14.82,14.64,14.79,15.02,-25.88,-816.89,615.72,-2.60,4.01,-1.08
9964,15.80,14.82,14.64,14.80,15.02,-10.74,-827.15,618.65,-4.77,3.72,-1.61
9994,15.79,14.82,14.64,14.80,15.01,-28.32,-826.66,624.02,-0.59,1.94,-1.98
10025,15.78,14.82,14.64,14.80,15.01,-27.34,-823.73,620.61,-2.04,-1.95,-1.44
10056,15.78,14.82,14.65,14.80,15.01,-30.27,-818.85,625.98,1.56,0.27,-0.26
10086,15.76,14.83,14.64,14.80,15.01,-26.37,-823.24,623.05,-1.96,1.87,-1.80
10117,15.73,14.83,14.64,14.80,15.00,-26.86,-825.68,605.47,-2.87,1.53,0.51
10147,15.66,14.82,14.64,14.79,14.98,-22.46,-820.80,625.00,-6.92,0.55,-0.91
10178,15.57,14.82,14.64,14.76,14.95,-28.81,-818.85,631.35,-6.72,2.95,0.44
10209,15.41,14.82,14.64,14.75,14.90,-35.64,-808.59,629.39,-19.87,0.81,2.63
10239,15.05,14.81,14.64,14.75,14.81,-51.27,-835.94,611.82,-34.20,-8.44,-3.37
10270,14.75,14.80,14.64,14.73,14.73,-87.40,-883.79,510.25,-58.94,-16.89,-20.45
10301,14.64,14.80,14.64,14.69,14.69,-170.41,-1024.90,741.70,-18.18,-0.47,-47.60
10332,14.63,14.79,14.63,14.67,14.68,-249.51,-1553.22,846.68,-31.76,-36.11,-98.79
10363,14.63,14.79,14.62,14.66,14.67,-156.74,-1256.35,699.71,-27.48,3.69,-122.85
10394,14.63,14.79,14.62,14.65,14.67,-400.39,-1432.62,540.53,-58.63,13.18,-78.71
10425,14.62,14.79,14.62,14.65,14.67,-546.39,-949.71,556.15,11.80,14.76,10.24
10456,14.62,14.79,14.62,14.65,14.67,-442.87,-787.11,472.17,-19.29,27.92,15.73
10487,14.62,14.79,14.62,14.65,14.67,-418.95,-844.24,469.73,-9.27,45.60,39.95
10518,14.62,14.78,14.61,14.65,14.67,-357.91,-749.51,441.41,-6.47,43.81,58.69
10549,14.62,14.78,14.61,14.65,14.67,-286.62,-737.79,433.59,-0.99,29.12,69.19
10579,14.62,14.78,14.62,14.66,14.67,-197.27,-697.27,399.41,-2.76,13.78,74.51
10610,14.61,14.78,14.61,14.66,14.67,-74.71,-791.50,405.76,-2.27,-4.59,75.85
10641,14.61,14.78,14.61,14.65,14.67,37.11,-837.40,416.50,3.57,-12.45,75.82
10672,14.61,14.78,14.61,14.66,14.66,147.46,-816.41,400.39,-1.85,-9.50,86.73
10703,14.61,14.78,14.61,14.65,14.66,211.91,-776.37,388.67,-23.69,1.52,85.33
10734,14.61,14.78,14.61,14.66,14.66,267.09,-916.50,448.73,-48.12,5.82,60.47
10765,14.61,14.78,14.61,14.65,14.66,248.54,-1019.53,471.68,-31.64,-3.24,33.79
10796,14.61,14.78,14.61,14.65,14.66,306.15,-1035.16,463.87,-6.06,-6.16,14.32
10827,14.61,14.78,14.61,14.65,14.66,354.98,-1036.62,458.98,4.75,8.09,31.18
10858,14.61,14.78,14.61,14.65,14.66,239.75,-1003.91,410.16,12.98,20.22,50.22
10889,14.61,14.78,14.61,14.65,14.66,81.05,-878.91,372.07,15.84,10.99,31.85
10920,14.60,14.78,14.61,14.65,14.66,-47.85,-750.98,431.15,-15.63,13.10,6.46
10951,14.60,14.78,14.61,14.65,14.66,-200.20,-886.23,478.03,-11.92,-3.34,-17.34
10982,14.61,14.78,14.61,14.65,14.66,-268.07,-855.96,474.61,-3.87,-12.10,-14.02
11013,14.60,14.78,14.61,14.65,14.66,-238.77,-852.54,480.96,-6.91,-17.85,0.85
11044,14.61,14.78,14.61,14.65,14.66,-176.76,-910.16,465.82,-0.32,-26.14,-0.21
11075,14.60,14.78,14.61,14.65,14.66,-175.29,-868.65,403.81,9.73,-23.45,2.24
11106,14.61,14.78,14.61,14.65,14.66,-175.29,-818.36,381.35,-3.85,-10.58,2.95
11137,14.66,14.78,14.61,14.65,14.67,157.71,-792.48,656.25,-73.46,-73.92,-79.68
11167,14.72,14.78,14.61,14.64,14.69,38.57,-987.30,421.39,33.85,-54.88,-100.34
11198,14.82,14.78,14.61,14.65,14.71,179.20,-1256.35,703.61,-9.71,-61.18,-54.55
11229,14.85,14.78,14.61,14.65,14.72,-108.40,-918.95,462.89,32.47,-3.57,-31.56
11260,14.90,14.78,14.61,14.65,14.73,8.79,-932.62,548.34,49.61,-21.66,-34.50
11291,15.05,14.79,14.61,14.65,14.78,-116.21,-899.41,464.36,62.98,-23.54,-32.52
11322,15.22,14.80,14.61,14.66,14.82,134.77,-902.34,710.45,44.64,-12.40,-20.69
11353,15.46,14.81,14.62,14.67,14.89,-53.71,-797.36,617.19,21.54,-4.10,-6.18
11384,15.69,14.82,14.62,14.68,14.95,-22.46,-809.08,618.16,15.97,-3.71,-6.18
11415,15.84,14.82,14.63,14.69,14.99,-6.84,-847.66,585.94,14.02,-5.26,-2.45
11446,16.05,14.82,14.63,14.72,15.06,-100.59,-812.50,576.17,12.03,-5.35,1.06
11476,16.29,14.83,14.64,14.73,15.12,-1.46,-796.39,674.80,6.98,0.24,-3.18
11507,16.36,14.83,14.64,14.74,15.14,-30.27,-830.57,615.23,-13.51,3.97,-4.21
11537,16.34,14.83,14.64,14.75,15.14,-41.50,-845.21,588.87,-13.45,2.83,-1.36
11568,16.30,14.83,14.64,14.75,15.13,-39.55,-831.54,590.33,-5.53,1.29,0.41
11598,16.29,14.83,14.64,14.74,15.12,-61.52,-827.64,603.52,-12.32,3.21,2.92
11628,16.28,14.83,14.63,14.73,15.12,-36.62,-829.10,603.03,-15.21,6.61,-1.02
11659,16.29,14.83,14.63,14.72,15.12,-47.85,-839.36,584.47,-12.24,7.60,-2.86
11690,16.32,14.84,14.63,14.72,15.13,-40.04,-824.71,558.59,-6.21,4.80,-6.50
11720,16.34,14.84,14.64,14.72,15.14,-62.99,-846.19,578.12,-4.08,4.33,-2.18
11751,16.33,14.85,14.64,14.74,15.14,-31.74,-880.37,562.01,-3.81,3.48,-2.73
11782,16.30,14.85,14.64,14.76,15.14,-43.46,-857.91,564.45,7.11,-1.08,-4.89
11812,16.28,14.85,14.65,14.77,15.14,-30.76,-833.50,611.33,6.88,1.15,-3.49
11843,16.27,14.86,14.65,14.78,15.14,-40.53,-828.12,601.56,2.37,2.94,-3.09
11874,16.23,14.86,14.65,14.80,15.14,-32.71,-852.05,572.75,7.82,-0.29,-2.79
11904,16.20,14.86,14.66,14.83,15.14,-10.74,-821.29,614.75,12.56,-3.18,-1.88
11935,16.18,14.86,14.66,14.85,15.14,-27.83,-803.71,604.98,1.22,-0.70,-0.98
11966,16.14,14.86,14.66,14.86,15.13,-39.06,-833.50,597.17,-0.88,-1.07,-4.18
11997,16.06,14.86,14.67,14.89,15.12,-16.60,-860.84,583.50,6.10,-3.24,-1.52
12028,16.01,14.86,14.67,14.91,15.11,-8.30,-803.71,631.35,9.02,-7.02,-1.18
12059,16.01,14.86,14.67,14.92,15.11,-24.41,-815.92,612.79,0.22,-1.27,-0.45
12090,16.00,14.86,14.67,14.92,15.11,-33.20,-820.80,600.59,3.73,0.08,-2.11
12121,15.98,14.86,14.68,14.93,15.11,-5.37,-810.06,628.91,3.21,0.44,-1.67
12152,15.97,14.86,14.67,14.93,15.11,-5.37,-810.55,624.51,-1.65,-0.14,-2.56
12183,15.96,14.86,14.67,14.92,15.10,-28.81,-818.85,618.16,-0.04,1.89,-0.28
12214,15.95,14.85,14.67,14.90,15.09,-23.93,-822.27,617.68,-0.34,-0.79,0.08
12245,15.96,14.85,14.67,14.87,15.09,-1.95,-799.32,633.79,-4.05,5.92,1.50
12276,15.99,14.85,14.66,14.83,15.08,-35.16,-833.50,595.70,-9.65,6.96,2.40
12307,15.97,14.85,14.65,14.81,15.07,-35.64,-852.05,591.80,-4.43,1.36,1.36
12338,15.92,14.84,14.65,14.79,15.05,-26.86,-829.59,590.33,0.96,-1.82,0.91
12369,15.85,14.83,14.65,14.76,15.02,-21.00,-835.45,599.12,3.82,-3.91,1.89
12400,15.74,14.83,14.64,14.74,14.99,-3.42,-816.89,635.74,1.23,-4.25,2.18
12431,15.59,14.82,14.63,14.71,14.94,-35.64,-809.08,624.02,-6.54,-2.54,0.56
12462,15.35,14.81,14.63,14.68,14.87,-8.79,-831.54,606.93,-19.54,-1.55,1.28
12493,15.05,14.80,14.62,14.66,14.79,-32.71,-842.77,600.10,-47.19,2.44,8.79
12523,14.82,14.80,14.62,14.66,14.72,-94.24,-925.78,511.23,-70.55,-0.56,2.56
12554,14.71,14.79,14.61,14.65,14.69,0.49,-903.32,599.12,-41.28,27.92,17.81
12585,14.66,14.79,14.62,14.65,14.68,6.84,-1219.24,491.21,17.82,3.08,27.19
12616,14.65,14.79,14.62,14.65,14.68,-51.27,-789.55,393.55,6.54,-6.91,8.48
12647,14.65,14.79,14.62,14.65,14.68,-123.54,-769.53,396.48,-9.65,-4.27,-1.69
12678,14.64,14.79,14.62,14.65,14.67,-190.92,-742.19,497.07,-7.66,-7.33,-7.27
12709,14.64,14.79,14.61,14.65,14.67,-115.72,-770.02,563.48,0.14,-5.73,-1.25
12740,14.63,14.79,14.61,14.66,14.67,14.65,-781.25,526.37,12.10,-9.85,-20.62
12771,14.64,14.79,14.62,14.66,14.67,572.75,-1018.55,594.73,85.85,-1.47,-15.40
12802,14.65,14.79,14.62,14.66,14.68,-241.21,-985.84,888.18,35.33,9.77,10.29
12833,14.66,14.79,14.62,14.67,14.68,57.13,-843.26,445.31,-11.04,1.49,-5.43
12864,14.69,14.79,14.62,14.68,14.69,50.29,-806.15,729.00,21.52,8.84,3.80
12895,14.74,14.79,14.63,14.69,14.71,-7.81,-808.59,593.75,33.14,-10.52,2.78
12926,14.84,14.80,14.63,14.71,14.74,-45.90,-849.12,578.12,40.08,-0.09,1.70
12957,15.02,14.80,14.63,14.73,14.80,-56.64,-849.12,600.59,20.34,-0.82,0.92
12988,15.23,14.81,14.64,14.75,14.86,-39.06,-826.66,598.63,11.00,1.96,-1.17
13019,15.47,14.82,14.64,14.76,14.92,-33.69,-820.31,608.40,14.67,3.60,-2.46
13050,15.72,14.82,14.64,14.77,14.99,-24.90,-828.61,600.10,9.08,-1.24,-0.05
13081,15.87,14.83,14.64,14.77,15.03,-50.78,-826.66,626.46,-1.34,2.50,-2.69
13112,15.91,14.83,14.64,14.77,15.04,-31.74,-822.27,633.79,-1.77,5.20,-1.08
13142,15.90,14.83,14.64,14.77,15.04,-30.76,-823.24,605.96,-4.82,-0.05,-2.82
13172,15.87,14.83,14.64,14.77,15.03,-22.95,-827.15,610.35,-0.23,0.99,-1.44
13203,15.86,14.83,14.64,14.78,15.03,-40.53,-824.71,600.10,-0.81,-0.21,-0.95
13233,15.88,14.83,14.64,14.78,15.03,-40.04,-820.31,620.61,3.48,2.46,-1.27
13263,15.92,14.83,14.65,14.80,15.05,-21.48,-812.01,627.93,8.67,-2.85,0.11
13294,15.93,14.83,14.65,14.81,15.05,-21.97,-817.87,627.44,3.06,-2.02,-1.17
13324,15.88,14.83,14.65,14.81,15.04,-36.13,-818.85,612.30,0.68,-4.42,-1.26
13358,15.78,14.83,14.65,14.81,15.02,-29.30,-826.66,625.98,1.38,-5.24,2.47
13390,15.71,14.83,14.64,14.81,15.00,-15.14,-797.85,644.53,2.15,-4.63,-2.08
13421,15.67,14.82,14.65,14.81,14.99,-21.48,-812.99,636.23,0.51,-2.60,-0.16
13454,15.66,14.82,14.64,14.79,14.98,-25.39,-808.59,623.05,2.19,-1.15,-0.55
13484,15.66,14.82,14.64,14.77,14.97,-21.00,-810.55,617.68,1.15,0.49,1.18
13515,15.65,14.82,14.63,14.72,14.96,-12.70,-810.55,637.70,-0.05,2.21,-0.42
13545,15.63,14.82,14.63,14.68,14.94,-38.09,-776.86,674.80,0.28,8.92,4.86
13577,15.58,14.82,14.62,14.66,14.92,-40.04,-801.76,619.63,-15.47,5.02,5.40
13607,15.52,14.81,14.62,14.66,14.90,-2.44,-801.27,656.25,-11.65,5.81,4.36
13638,15.50,14.81,14.62,14.65,14.89,-55.66,-826.66,598.14,-10.02,13.43,12.02
13669,15.48,14.81,14.62,14.65,14.89,-115.72,-824.71,531.74,-3.59,7.45,3.04
13700,15.46,14.81,14.62,14.66,14.88,-83.01,-812.01,610.35,10.23,-6.53,-13.97
13731,15.45,14.81,14.62,14.66,14.89,19.04,-905.76,698.73,20.44,-11.19,-13.95
13762,15.47,14.81,14.62,14.66,14.89,-91.31,-771.48,660.16,3.05,-3.44,-2.31
13793,15.47,14.81,14.62,14.66,14.89,-29.79,-836.91,595.70,-2.81,1.56,2.00
13824,15.47,14.81,14.62,14.66,14.89,-28.81,-794.92,644.04,-2.43,3.18,-0.30
13855,15.49,14.81,14.62,14.66,14.89,-18.55,-830.08,622.56,-2.21,3.47,-1.69
13886,15.50,14.81,14.62,14.66,14.90,-48.83,-833.50,586.43,-1.97,9.40,-0.81
13917,15.53,14.81,14.62,14.66,14.90,-45.90,-841.31,612.79,1.63,3.81,-3.21
13948,15.55,14.81,14.62,14.66,14.91,-79.59,-799.80,608.89,4.47,0.15,-7.08
13978,15.56,14.82,14.62,14.67,14.91,-47.85,-833.01,620.61,2.86,4.41,-9.63
14009,15.56,14.82,14.62,14.68,14.92,-47.85,-836.91,596.68,-1.71,3.76,-5.63
14040,15.53,14.82,14.63,14.71,14.92,-56.64,-849.61,578.61,9.27,-2.11,-7.15
14071,15.47,14.82,14.63,14.75,14.92,-41.02,-816.41,628.91,10.89,-6.99,-7.83
14102,15.41,14.82,14.64,14.78,14.91,-8.30,-806.64,642.09,8.62,-3.02,-4.91
14133,15.34,14.82,14.64,14.81,14.90,-15.14,-813.96,634.77,1.92,-4.01,-1.97
14164,15.29,14.82,14.65,14.82,14.89,-19.53,-811.52,615.23,-0.44,-1.37,-2.95
14195,15.25,14.82,14.65,14.83,14.89,-20.51,-819.82,625.49,-1.21,-2.92,-0.30
14226,15.22,14.82,14.65,14.84,14.88,-23.44,-805.18,629.88,-0.49,-0.55,-3.50
14257,15.20,14.82,14.65,14.85,14.88,-17.09,-822.27,629.39,-0.96,-0.47,-2.00
14288,15.18,14.82,14.65,14.86,14.88,-16.11,-812.01,634.77,-1.73,-1.46,-2.60
14318,15.17,14.82,14.65,14.87,14.88,-27.34,-804.20,642.58,0.02,-2.58,0.47
14349,15.17,14.82,14.65,14.87,14.88,-5.86,-808.59,634.28,0.99,-1.37,-0.74
14380,15.16,14.82,14.66,14.88,14.88,-25.39,-812.01,614.75,-0.66,-1.38,-0.78
14411,15.15,14.82,14.65,14.88,14.88,-21.00,-818.85,630.86,0.01,-2.11,-0.44
14442,15.15,14.82,14.65,14.88,14.88,-3.42,-805.66,641.11,0.79,3.49,-0.54
14473,15.14,14.82,14.66,14.89,14.88,-4.88,-800.78,620.61,0.85,-1.79,-1.04
14504,15.14,14.82,14.66,14.89,14.88,-13.67,-816.41,622.56,-1.69,-2.94,1.19
14535,15.14,14.82,14.66,14.89,14.88,-28.81,-808.11,630.86,-0.59,-0.59,0.44
14566,15.14,14.82,14.66,14.89,14.88,-13.18,-804.69,619.63,-0.24,-0.08,-0.65
14597,15.14,14.82,14.66,14.89,14.88,-14.65,-807.13,617.19,0.45,1.24,-1.41
14628,15.14,14.82,14.66,14.89,14.88,-12.70,-817.38,639.16,-0.87,2.53,-0.65
14658,15.13,14.82,14.66,14.89,14.88,-6.35,-795.41,622.07,-0.17,0.44,0.04
14689,15.14,14.82,14.66,14.89,14.88,-16.11,-802.73,635.25,-0.19,0.24,1.85
14720,15.14,14.82,14.66,14.89,14.88,-18.55,-816.89,624.51,-1.32,1.05,0.20
14751,15.14,14.82,14.66,14.90,14.88,-26.37,-818.85,635.25,0.34,0.44,-1.28
14782,15.14,14.82,14.66,14.89,14.88,-20.02,-817.87,622.56,-0.60,1.83,-0.21
14812,15.15,14.82,14.66,14.89,14.88,-20.51,-816.41,623.05,0.69,3.15,1.23
14843,15.16,14.82,14.66,14.87,14.88,-17.09,-811.04,626.95,1.02,0.83,1.68
14873,15.21,14.82,14.65,14.84,14.88,4.39,-806.15,653.32,2.71,4.34,1.51
14904,15.27,14.82,14.65,14.81,14.89,-24.90,-787.11,623.54,-2.71,3.87,-0.91
14934,15.34,14.82,14.64,14.77,14.89,-42.48,-816.41,614.26,-5.00,2.43,-0.44
14964,15.39,14.82,14.64,14.75,14.90,-28.32,-826.17,614.75,-4.80,4.61,1.21
14995,15.46,14.82,14.64,14.72,14.91,-28.32,-811.04,633.79,-4.08,5.08,1.78
15026,15.51,14.82,14.63,14.71,14.92,-32.71,-826.66,617.19,-3.64,3.20,0.75
15056,15.53,14.82,14.63,14.69,14.92,-47.36,-812.99,597.17,-3.35,-0.49,3.22
15087,15.56,14.82,14.63,14.68,14.92,-31.25,-802.25,644.04,-4.42,3.50,3.38
15117,15.58,14.82,14.63,14.67,14.92,-37.60,-792.97,623.54,-8.19,6.19,3.79
15148,15.58,14.82,14.62,14.66,14.92,5.86,-838.87,635.25,-1.86,1.70,-1.18
15179,15.57,14.82,14.62,14.66,14.92,-35.64,-852.54,609.37,-4.41,-1.73,0.95
15209,15.54,14.82,14.62,14.66,14.91,-95.70,-807.13,583.98,-6.69,-1.25,-1.40
15240,15.52,14.82,14.62,14.66,14.91,-51.76,-775.88,669.43,-9.85,10.57,-2.34
15271,15.55,14.82,14.62,14.66,14.91,18.07,-815.92,639.65,-0.43,3.81,-5.73
15302,15.54,14.82,14.62,14.66,14.91,-54.69,-857.91,575.20,-5.05,3.34,-4.27
15333,15.50,14.83,14.62,14.66,14.90,-70.31,-835.94,558.59,-6.00,2.46,-4.45
15363,15.51,14.83,14.63,14.66,14.91,-30.27,-828.12,609.86,-2.50,3.01,3.05
15394,15.49,14.83,14.63,14.66,14.90,-9.28,-843.75,588.38,-2.62,-1.47,3.32
15425,15.52,14.83,14.63,14.67,14.91,-40.04,-875.49,575.68,11.82,-9.54,-0.48
15456,15.54,14.83,14.63,14.66,14.91,-22.95,-771.97,671.87,1.29,-1.87,1.39
15487,15.53,14.83,14.63,14.67,14.91,-77.15,-791.02,604.98,-6.28,3.20,1.01
15518,15.60,14.83,14.63,14.67,14.93,2.93,-811.04,637.21,7.06,5.26,-5.58
15549,15.63,14.83,14.62,14.66,14.94,-5.86,-806.64,629.88,-5.73,5.31,-2.97
15580,15.65,14.83,14.62,14.66,14.94,-61.52,-930.66,456.54,-5.24,2.89,-4.06
15611,15.74,14.83,14.62,14.66,14.96,-52.25,-822.75,590.33,1.31,3.98,-4.03
15642,15.73,14.83,14.62,14.65,14.96,-18.55,-837.89,619.63,-16.69,6.66,1.85
15673,15.73,14.84,14.62,14.65,14.96,-72.27,-924.80,450.20,4.37,0.70,-0.23
15704,15.78,14.84,14.62,14.65,14.97,-26.37,-846.68,587.40,8.23,-6.72,-3.11
15735,15.78,14.84,14.62,14.65,14.97,-29.30,-805.66,663.09,-2.30,-0.02,-0.77
15766,15.71,14.83,14.62,14.67,14.96,-80.08,-876.95,530.27,9.31,-3.02,-2.69
15797,15.69,14.83,14.63,14.68,14.96,-39.55,-793.95,638.18,11.10,-8.07,-0.94
15828,15.67,14.83,14.63,14.69,14.96,11.72,-779.79,711.91,-0.75,0.60,-1.71
15859,15.66,14.83,14.63,14.69,14.95,-22.46,-860.35,572.75,-5.82,6.14,-1.78
15890,15.66,14.83,14.63,14.71,14.96,-57.13,-870.61,567.38,3.69,-1.61,0.15
15921,15.64,14.83,14.63,14.72,14.95,-13.18,-799.32,639.16,-0.58,-6.11,-1.37
15952,15.62,14.83,14.63,14.72,14.95,-30.27,-839.84,601.56,1.55,-2.68,2.27
15983,15.59,14.83,14.63,14.73,14.95,-29.30,-853.03,590.33,5.97,-3.89,-0.35
16013,15.55,14.83,14.63,14.75,14.94,-23.93,-811.04,609.86,3.02,-6.62,1.16
16044,15.54,14.83,14.63,14.75,14.94,-46.88,-803.22,628.42,-4.14,1.99,-0.27
16075,15.54,14.83,14.64,14.76,14.94,-25.39,-807.62,623.54,-1.34,4.28,-2.78
16106,15.51,14.83,14.64,14.76,14.93,-7.32,-827.15,604.98,-4.00,1.56,-1.42
16137,15.49,14.83,14.64,14.76,14.93,-30.27,-825.20,615.72,-1.33,-0.22,1.83
16168,15.48,14.83,14.64,14.76,14.93,-28.32,-841.31,611.33,-2.22,-1.91,-5.07
16199,15.47,14.83,14.64,14.76,14.92,-30.76,-836.43,593.75,-1.32,0.25,0.00
16230,15.46,14.83,14.64,14.77,14.92,-32.23,-832.03,588.87,0.37,0.79,0.07
16261,15.45,14.83,14.64,14.77,14.92,-34.18,-812.01,610.84,-1.74,-2.05,-0.72
16292,15.44,14.83,14.64,14.77,14.92,-24.90,-832.52,599.12,-0.22,-0.34,-1.72
16323,15.45,14.83,14.64,14.78,14.92,-26.37,-838.87,573.73,0.83,1.78,-0.26
16354,15.45,14.83,14.64,14.78,14.93,-21.48,-830.08,607.91,-0.23,-1.88,0.65
16385,15.45,14.83,14.64,14.79,14.93,-10.74,-808.59,636.23,4.76,-1.51,1.03
16416,15.45,14.83,14.64,14.79,14.93,-20.02,-825.20,610.35,3.31,-5.13,0.55
16447,15.46,14.83,14.64,14.79,14.93,-27.83,-817.87,604.49,-1.38,0.06,-0.80
16477,15.46,14.83,14.64,14.79,14.93,-28.32,-843.26,601.56,-0.10,0.73,-1.31
16508,15.46,14.83,14.64,14.80,14.93,-22.95,-829.10,592.77,0.26,1.61,-0.53
16538,15.47,14.83,14.64,14.80,14.93,-41.50,-811.52,600.59,-0.50,-1.78,1.90
16568,15.48,14.83,14.64,14.79,14.94,-35.16,-831.05,619.63,1.78,-1.65,-1.84
16599,15.49,14.83,14.64,14.79,14.94,-39.06,-824.22,617.19,1.63,-1.31,2.50
16629,15.50,14.83,14.64,14.79,14.94,-34.18,-824.22,616.21,2.92,1.47,0.64
16659,15.50,14.83,14.64,14.79,14.94,-17.58,-819.34,611.82,-0.21,-0.59,-0.79
16691,15.51,14.82,14.64,14.79,14.94,-35.16,-822.75,608.89,-1.76,4.29,0.79
16721,15.52,14.83,14.64,14.78,14.94,-41.50,-824.71,606.45,-2.36,3.73,2.38
16752,15.54,14.83,14.64,14.77,14.95,-19.53,-809.08,626.46,0.10,2.22,-2.02
16783,15.56,14.83,14.64,14.76,14.95,-17.58,-824.22,625.00,-2.29,2.43,-0.61
16813,15.58,14.83,14.64,14.76,14.95,-41.02,-820.80,600.59,-2.95,1.48,-2.69
16844,15.60,14.83,14.64,14.75,14.95,-11.23,-809.08,634.77,-1.41,3.63,-2.53
16874,15.63,14.83,14.63,14.74,14.96,-27.83,-833.50,598.14,-0.81,5.38,-0.53
16905,15.65,14.83,14.63,14.72,14.96,-26.86,-804.20,636.72,-6.11,0.24,2.18
16936,15.67,14.83,14.63,14.72,14.96,-46.39,-844.24,590.33,-0.33,1.15,0.07
16967,15.70,14.83,14.63,14.71,14.97,-33.69,-834.96,589.36,0.02,-1.47,-1.39
16998,15.71,14.83,14.63,14.71,14.97,-28.32,-823.24,610.84,-2.72,0.86,-0.29
17029,15.70,14.83,14.63,14.71,14.97,-35.64,-822.27,598.63,0.78,3.47,-0.76
17060,15.68,14.83,14.64,14.71,14.96,-24.90,-851.56,587.89,1.56,0.48,0.58
17091,15.66,14.83,14.63,14.72,14.96,-46.39,-826.17,602.54,6.24,-1.42,-0.53
17122,15.63,14.82,14.63,14.71,14.95,-36.62,-831.54,598.63,-2.96,-1.47,-1.63
17153,15.62,14.82,14.63,14.71,14.95,-43.46,-791.99,620.61,-3.16,0.92,-2.04
17184,15.61,14.82,14.63,14.72,14.95,-46.88,-876.95,553.22,-0.07,-2.18,1.69
17215,15.59,14.82,14.63,14.72,14.94,-7.32,-800.29,619.63,2.32,-1.59,-1.44
17246,15.54,14.82,14.64,14.72,14.93,-16.11,-849.61,621.09,-1.13,4.67,-2.31
17277,15.49,14.82,14.63,14.72,14.92,-32.71,-837.89,592.77,-6.30,-0.30,-2.66
17309,15.46,14.82,14.63,14.73,14.91,-11.72,-802.73,640.62,2.21,1.33,-2.08
17340,15.41,14.82,14.63,14.73,14.90,-32.71,-806.64,608.40,-1.85,0.31,-0.44
17371,15.40,14.82,14.64,14.74,14.90,-6.35,-830.08,615.72,5.17,1.78,-0.11
17402,15.39,14.82,14.64,14.74,14.90,-13.67,-799.32,620.12,4.27,0.90,2.71
17433,15.39,14.82,14.64,14.74,14.90,-60.06,-841.80,557.62,-5.33,2.81,1.91
17464,15.41,14.82,14.64,14.73,14.90,-27.83,-813.48,677.73,6.52,0.34,-1.45
17495,15.42,14.82,14.64,14.74,14.90,-38.09,-828.61,582.52,-2.49,-1.15,-3.35
17526,15.43,14.82,14.64,14.74,14.91,-37.11,-811.04,595.21,0.34,-3.14,0.83
17557,15.45,14.82,14.64,14.74,14.91,-29.30,-832.03,624.51,0.63,-0.50,-1.31
17588,15.45,14.82,14.64,14.74,14.91,-36.13,-827.64,608.89,-0.37,-0.12,-0.46
17619,15.45,14.82,14.64,14.75,14.92,-32.71,-814.94,611.82,1.29,-2.63,-0.76
17650,15.42,14.82,14.64,14.76,14.91,-1.46,-820.31,630.86,2.26,-2.45,-1.74
17681,15.40,14.82,14.64,14.77,14.91,-14.16,-816.41,623.05,3.00,-2.03,-0.77
17712,15.39,14.82,14.64,14.77,14.91,-17.09,-812.50,619.14,-0.55,-0.53,-0.85
17742,15.39,14.82,14.64,14.78,14.91,-35.16,-826.66,631.84,1.72,-1.10,-1.46
17773,15.36,14.82,14.65,14.79,14.91,-30.76,-821.29,620.61,3.69,-6.17,-2.18
17804,15.35,14.82,14.65,14.79,14.90,-10.74,-809.08,618.65,2.73,-1.89,0.66
17835,15.35,14.82,14.65,14.80,14.91,-33.69,-834.96,606.93,2.40,-0.43,-2.02
17866,15.34,14.82,14.65,14.81,14.91,-26.37,-833.01,627.44,2.83,-0.73,-2.04
17897,15.34,14.82,14.65,14.82,14.91,-14.65,-807.13,630.37,1.91,-1.64,-0.63
17928,15.35,14.82,14.65,14.82,14.91,-31.25,-811.52,622.07,2.13,-0.56,1.32
17959,15.34,14.82,14.65,14.82,14.91,-8.79,-813.96,640.14,1.27,-2.92,-1.57
17990,15.33,14.82,14.65,14.83,14.91,-3.42,-816.41,638.18,3.31,-4.21,0.40
18021,15.32,14.82,14.66,14.83,14.91,-21.48,-809.57,637.70,-2.71,-2.12,0.37
18052,15.32,14.82,14.66,14.82,14.91,-21.48,-808.11,642.58,-0.66,2.24,-0.25
18083,15.33,14.82,14.65,14.81,14.90,-25.88,-808.11,633.30,-0.95,-1.21,-1.28
18114,15.32,14.82,14.65,14.82,14.90,-23.44,-813.48,617.68,0.73,0.82,0.89
18144,15.32,14.82,14.65,14.82,14.90,-7.32,-812.01,634.77,-0.30,-0.04,0.24
18175,15.31,14.82,14.65,14.82,14.90,-30.76,-815.43,625.00,-0.63,-0.80,-1.06
18205,15.29,14.82,14.66,14.83,14.90,-25.88,-825.68,601.07,0.44,-2.58,-0.51
18235,15.27,14.82,14.66,14.83,14.90,-20.51,-806.15,628.91,0.95,-1.05,-0.52
18266,15.28,14.82,14.66,14.83,14.90,-17.09,-814.94,633.79,0.53,0.01,1.38
18296,15.29,14.82,14.66,14.82,14.90,-19.04,-807.13,637.70,0.70,-2.36,-0.31
18327,15.32,14.82,14.65,14.81,14.90,-22.95,-801.76,626.95,-0.15,0.31,1.34
18358,15.37,14.82,14.65,14.76,14.90,-13.67,-801.76,635.25,-3.43,2.73,-0.71
18388,15.46,14.82,14.64,14.72,14.91,-11.72,-814.94,646.48,-6.21,4.25,-1.80
18419,15.54,14.82,14.64,14.70,14.93,-33.20,-806.64,636.72,-8.83,6.88,-0.94
18450,15.57,14.82,14.63,14.68,14.93,-63.48,-835.94,583.01,-13.93,6.87,1.82
18480,15.55,14.82,14.63,14.67,14.92,0.98,-824.22,638.18,-7.53,3.65,-1.03
18511,15.55,14.82,14.63,14.67,14.92,-2.44,-819.82,613.28,-5.01,3.70,1.32
18542,15.54,14.82,14.63,14.66,14.91,-43.46,-846.68,597.66,-6.16,0.15,2.02
18572,15.52,14.82,14.63,14.67,14.91,-43.95,-857.91,583.01,-0.04,-5.58,-2.50
18603,15.50,14.82,14.63,14.67,14.90,-52.25,-828.12,557.62,-0.42,-0.85,-0.59
18634,15.46,14.82,14.63,14.66,14.89,-10.74,-798.83,672.36,-7.42,2.77,0.24
18665,15.48,14.82,14.63,14.67,14.90,-16.60,-855.96,579.10,6.34,0.17,-3.24
18696,15.54,14.82,14.63,14.67,14.92,30.76,-794.92,671.39,12.26,-5.75,0.56
18727,15.48,14.82,14.63,14.67,14.90,-72.27,-806.64,585.45,-8.56,0.04,2.94
18758,15.51,14.82,14.63,14.68,14.91,-27.83,-851.56,560.55,13.37,-0.85,-2.35
18789,15.52,14.82,14.63,14.68,14.91,7.32,-777.83,701.66,1.94,0.84,0.34
18820,15.49,14.82,14.63,14.70,14.91,-63.48,-817.87,579.10,-0.95,0.43,-0.56
18851,15.59,14.82,14.64,14.72,14.94,-1.46,-755.86,722.66,10.70,1.14,-7.02
18882,15.57,14.83,14.64,14.71,14.94,-10.74,-827.64,617.68,-14.20,7.05,-2.68
18913,15.48,14.83,14.64,14.72,14.92,-70.80,-854.49,512.70,-18.02,4.22,-3.01
18943,15.52,14.83,14.65,14.75,14.94,-61.04,-788.57,664.06,-0.94,-1.50,-3.59
18974,15.45,14.83,14.65,14.75,14.92,-23.44,-837.40,598.63,-10.72,2.23,-0.61
19005,15.36,14.84,14.66,14.75,14.90,-14.65,-861.82,553.22,-6.75,-2.76,-5.99
19036,15.41,14.84,14.67,14.78,14.93,-57.62,-833.98,608.40,4.78,-3.49,-4.93
19067,15.35,14.84,14.68,14.80,14.92,18.07,-810.55,638.18,3.25,-2.44,-0.53
19098,15.22,14.84,14.69,14.82,14.89,-25.39,-859.37,567.38,-3.88,-14.21,-3.97
19129,15.21,14.84,14.70,14.83,14.89,9.28,-752.93,679.20,10.37,0.58,-3.22
19160,15.20,14.84,14.70,14.84,14.89,-4.88,-868.65,591.80,-2.71,-0.71,-2.26
19191,15.14,14.84,14.70,14.85,14.88,-26.86,-819.82,593.26,-5.86,-4.34,-3.47
19222,15.13,14.84,14.70,14.86,14.88,20.51,-807.62,634.77,7.86,3.58,-1.54
19253,15.15,14.84,14.70,14.87,14.89,-25.39,-855.47,614.26,1.47,-1.65,0.11
19284,15.13,14.84,14.70,14.88,14.89,-5.86,-789.55,646.00,-1.82,-0.50,-2.17
19315,15.13,14.84,14.70,14.89,14.89,-21.00,-855.96,584.47,-0.42,2.36,1.25
19346,15.11,14.84,14.70,14.91,14.89,-6.35,-837.89,601.56,1.60,-6.69,-2.34
19377,15.10,14.84,14.70,14.91,14.89,-16.60,-831.05,607.91,0.13,-3.69,-0.73
19408,15.10,14.84,14.71,14.92,14.89,-3.42,-822.75,618.16,2.61,-2.85,-2.65
19439,15.09,14.84,14.71,14.92,14.89,-2.93,-837.89,599.12,2.85,1.62,0.27
19470,15.09,14.84,14.71,14.92,14.89,-3.91,-821.78,617.19,2.04,-0.85,-1.89
19501,15.10,14.84,14.71,14.92,14.89,-2.44,-795.90,637.21,2.53,3.08,1.18
19532,15.11,14.84,14.71,14.92,14.89,-18.07,-859.86,578.61,-1.19,-2.37,1.49
19562,15.11,14.84,14.72,14.91,14.89,6.35,-798.34,620.61,0.05,3.62,-0.03
19593,15.11,14.84,14.72,14.90,14.89,-10.74,-840.82,596.68,-2.03,0.51,2.95
19624,15.11,14.83,14.73,14.89,14.89,-21.97,-849.61,574.71,-1.75,-1.42,-0.44
19655,15.12,14.83,14.74,14.87,14.89,15.63,-781.25,636.72,1.98,-0.91,0.16
19686,15.13,14.83,14.74,14.86,14.89,17.09,-807.13,620.12,-0.66,2.46,3.85
19717,15.14,14.83,14.75,14.84,14.89,-3.42,-868.16,580.08,-1.05,-1.18,-0.60
19748,15.14,14.83,14.75,14.83,14.89,9.28,-827.15,623.05,1.38,-5.38,1.41
19779,15.14,14.83,14.75,14.82,14.89,-22.46,-857.91,584.96,6.63,-0.98,1.75
19810,15.15,14.83,14.75,14.82,14.89,-10.74,-806.15,632.32,3.91,-1.75,3.89
19840,15.16,14.83,14.75,14.81,14.89,-16.60,-823.73,605.47,-0.05,2.72,1.73
19871,15.17,14.82,14.74,14.81,14.89,-28.81,-839.84,606.93,0.21,-2.98,0.40
19901,15.17,14.82,14.74,14.80,14.88,-13.18,-832.03,602.05,1.18,1.93,-0.58
19932,15.17,14.82,14.74,14.79,14.88,2.93,-809.57,626.95,-1.60,1.98,-1.56
19962,15.17,14.82,14.73,14.77,14.87,-20.02,-853.03,596.68,-2.19,5.21,1.88
19992,15.17,14.82,14.73,14.76,14.87,1.46,-833.01,610.35,0.59,-0.13,-1.96
20023,15.18,14.82,14.72,14.75,14.87,-22.95,-827.64,625.98,0.98,3.04,1.71
20054,15.19,14.82,14.72,14.74,14.87,-19.04,-819.34,615.72,1.05,3.86,0.54
20085,15.21,14.82,14.71,14.73,14.87,-20.51,-842.29,597.17,-0.04,2.99,1.41
20115,15.22,14.82,14.71,14.73,14.87,-27.83,-829.59,617.68,1.56,-1.02,-0.97
20146,15.22,14.82,14.70,14.72,14.87,-0.49,-825.20,621.09,-2.47,1.60,0.48
20176,15.22,14.82,14.70,14.72,14.86,-23.93,-840.33,601.07,-0.15,0.83,0.00
20207,15.23,14.82,14.70,14.71,14.86,-29.30,-812.01,615.72,-0.15,5.28,-1.89
20238,15.25,14.82,14.69,14.71,14.87,-37.11,-826.66,604.49,-2.06,2.85,-1.65
20269,15.26,14.82,14.69,14.71,14.87,-41.02,-834.47,602.05,-5.37,4.10,0.66
20300,15.30,14.82,14.69,14.70,14.88,-22.46,-841.31,610.84,4.66,1.32,-0.53
20331,15.32,14.82,14.68,14.70,14.88,-32.23,-816.89,616.70,-2.55,3.60,0.92
20362,15.31,14.82,14.68,14.70,14.88,-32.71,-838.87,584.96,-3.76,3.05,-0.43
20392,15.29,14.82,14.68,14.70,14.87,-30.76,-821.29,602.05,-2.65,-0.59,-0.93
20423,15.29,14.82,14.68,14.71,14.87,-26.37,-821.78,609.37,-1.80,4.21,0.79
20454,15.27,14.82,14.68,14.71,14.87,-25.88,-843.26,593.26,2.71,1.07,0.24
20485,15.25,14.82,14.69,14.72,14.87,0.00,-835.94,666.50,8.99,-5.81,4.27
20516,15.26,14.82,14.69,14.73,14.87,-23.44,-813.96,628.91,8.42,-4.94,-0.32
20547,15.28,14.82,14.69,14.73,14.88,-42.97,-817.87,623.54,-1.23,2.54,-2.31
20578,15.28,14.82,14.69,14.74,14.88,-40.53,-845.70,599.12,1.39,-0.82,0.55
20609,15.26,14.82,14.69,14.74,14.88,-19.04,-824.71,612.30,-2.06,1.86,-0.60
20640,15.24,14.82,14.69,14.74,14.87,-38.09,-840.82,598.14,-1.27,1.86,-0.75
20671,15.24,14.82,14.69,14.74,14.87,-32.71,-819.34,629.88,-0.77,3.93,-3.03
20702,15.24,14.82,14.69,14.75,14.87,-21.00,-812.50,624.51,1.17,0.37,-2.18
20733,15.23,14.82,14.69,14.76,14.88,-41.02,-832.03,611.33,1.84,-2.88,1.48
20764,15.23,14.82,14.70,14.77,14.88,-22.95,-821.29,627.44,0.36,-1.37,1.20
20795,15.21,14.82,14.70,14.77,14.88,-25.39,-835.94,604.49,-1.89,0.47,-1.21
20826,15.20,14.82,14.70,14.77,14.87,-22.95,-811.04,611.82,-0.97,4.51,-2.96
20857,15.19,14.82,14.70,14.78,14.87,-30.27,-826.17,609.86,-0.03,-0.46,-1.20
20888,15.20,14.82,14.70,14.78,14.88,-28.81,-825.68,623.05,0.18,-2.49,-0.28
20918,15.19,14.82,14.71,14.79,14.88,-24.90,-812.99,621.58,-0.89,0.40,0.11
20950,15.19,14.82,14.71,14.79,14.88,-18.07,-827.64,628.91,1.64,-0.11,-0.05
20980,15.18,14.82,14.71,14.79,14.88,-20.02,-822.27,621.58,0.53,-0.34,0.17
21011,15.18,14.82,14.70,14.78,14.87,-27.34,-815.92,619.63,-0.11,1.50,-1.56
21042,15.19,14.82,14.70,14.78,14.87,-34.67,-821.78,606.45,-0.45,0.79,2.05
21073,15.19,14.82,14.70,14.78,14.87,-31.25,-812.99,612.30,-0.96,-0.18,0.07
21104,15.17,14.82,14.70,14.78,14.87,-18.55,-812.99,615.23,0.43,-0.87,-2.30
21135,15.18,14.82,14.70,14.78,14.87,-34.67,-804.20,620.12,1.23,-1.02,0.02
21167,15.18,14.82,14.70,14.78,14.87,-21.48,-810.06,625.49,-0.18,1.40,-1.64
21199,15.18,14.82,14.70,14.78,14.87,-9.77,-815.92,617.19,-1.28,-3.95,0.50
21229,15.17,14.82,14.71,14.79,14.87,-21.00,-826.17,637.70,1.81,-2.39,0.38
21260,15.15,14.82,14.71,14.81,14.87,-18.07,-820.80,614.75,1.60,-3.51,-1.86
21291,15.12,14.82,14.72,14.83,14.87,-23.93,-822.27,617.68,0.58,-7.22,-0.76
21322,15.10,14.82,14.73,14.84,14.87,-27.34,-813.48,627.44,2.18,-8.24,-0.32
21353,15.06,14.82,14.74,14.84,14.86,-15.63,-820.80,620.61,1.36,-4.92,-1.31
21384,15.02,14.82,14.74,14.82,14.85,10.74,-790.04,638.18,-1.65,-1.29,0.85
21415,15.03,14.82,14.73,14.80,14.85,-21.48,-810.06,629.39,-2.95,1.11,3.89
21446,15.07,14.82,14.73,14.81,14.86,-69.82,-857.42,521.97,-0.31,0.82,2.08
21477,15.11,14.82,14.73,14.80,14.86,-21.48,-796.39,659.18,3.44,0.31,3.69
21507,15.14,14.82,14.72,14.77,14.86,-8.30,-791.02,647.95,-3.15,3.27,2.18
21538,15.19,14.82,14.71,14.73,14.86,-0.49,-807.13,657.71,-7.97,9.56,2.31
21568,15.26,14.82,14.70,14.70,14.87,-38.57,-833.01,602.05,-21.74,14.53,-1.71
21599,15.26,14.82,14.69,14.68,14.86,-41.99,-847.66,563.48,-20.43,7.39,-2.18
21629,15.26,14.82,14.69,14.67,14.86,-37.11,-825.68,604.49,-14.24,5.51,2.41
21659,15.25,14.82,14.68,14.66,14.85,-32.23,-863.77,594.73,-13.14,3.35,2.60
21690,15.21,14.82,14.68,14.66,14.84,-40.04,-859.37,547.36,-11.17,-3.87,-1.46
21721,15.25,14.82,14.68,14.66,14.85,-53.71,-865.23,532.71,9.49,-2.79,1.08
21751,15.25,14.82,14.67,14.66,14.85,-31.74,-795.41,664.55,0.46,4.47,-1.29
21782,15.22,14.82,14.67,14.66,14.84,-29.79,-886.23,552.73,-0.62,-2.05,-4.69
21813,15.25,14.82,14.67,14.66,14.85,-18.07,-798.34,625.49,1.17,-1.66,0.94
21843,15.21,14.82,14.67,14.67,14.84,-33.20,-776.37,649.90,-9.71,2.15,-0.24
21874,15.26,14.82,14.67,14.67,14.85,-29.30,-855.96,598.14,21.33,-0.27,-1.24
21905,15.33,14.83,14.66,14.67,14.87,-44.43,-795.41,661.13,11.78,-4.54,-5.02
21935,15.28,14.82,14.66,14.67,14.86,-44.43,-842.29,595.21,-5.22,-1.78,1.79
21966,15.29,14.83,14.66,14.68,14.86,-39.55,-874.51,509.28,6.54,-1.49,-1.64
21997,15.31,14.83,14.66,14.69,14.87,-35.64,-803.22,613.28,1.72,-3.50,-3.65
22028,15.30,14.83,14.65,14.70,14.87,-62.99,-827.64,608.89,4.32,-0.64,-0.47
22059,15.36,14.84,14.65,14.72,14.89,-42.97,-835.94,555.18,7.59,-0.36,-2.76
22090,15.35,14.84,14.65,14.75,14.90,-18.55,-815.92,632.81,1.32,-2.86,-3.06
22121,15.29,14.84,14.66,14.78,14.89,-52.25,-827.15,585.94,0.71,-3.57,-0.79
22152,15.32,14.84,14.66,14.80,14.90,-56.64,-810.06,615.72,-2.14,1.10,-1.35
22183,15.27,14.84,14.68,14.82,14.90,-17.58,-864.26,578.12,-3.32,-4.79,-2.80
22214,15.22,14.84,14.69,14.84,14.90,-3.42,-824.22,598.63,-1.52,-9.34,-2.82
22245,15.20,14.84,14.70,14.84,14.90,-27.83,-830.57,600.10,-1.25,-5.92,-4.68
22276,15.15,14.84,14.72,14.84,14.89,-31.25,-840.33,597.66,-6.04,-4.50,-4.74
22307,15.08,14.84,14.73,14.84,14.87,14.16,-822.75,603.03,-2.87,-2.63,-4.37
22338,15.08,14.84,14.74,14.84,14.88,-9.77,-830.08,618.65,4.21,0.03,-1.51
22369,15.07,14.84,14.75,14.83,14.87,-8.30,-856.45,593.26,4.27,-2.94,-4.34
22399,15.05,14.84,14.76,14.83,14.87,20.02,-755.86,598.63,5.15,-1.52,-4.53
22430,15.06,14.84,14.76,14.83,14.87,-46.39,-863.77,631.84,-5.43,-4.77,3.76
22461,15.04,14.84,14.77,14.83,14.87,-14.16,-826.66,597.17,10.98,2.59,-7.37
22492,15.03,14.84,14.77,14.83,14.87,22.95,-775.39,629.39,-4.21,0.33,0.29
22523,15.02,14.84,14.77,14.83,14.87,-7.81,-860.84,608.89,-3.11,0.10,-2.63
22554,15.02,14.84,14.77,14.83,14.87,33.20,-735.84,661.62,-0.91,0.73,-1.70
22585,15.01,14.84,14.77,14.84,14.87,-5.37,-886.72,591.31,-12.83,-3.92,4.26
22616,15.02,14.84,14.77,14.84,14.87,-3.91,-822.27,621.58,7.56,-0.52,-0.77
22647,15.01,14.84,14.77,14.84,14.87,32.71,-789.06,625.98,-4.19,-0.55,5.59
22678,15.01,14.84,14.77,14.84,14.86,-7.81,-864.75,580.08,-0.12,-0.14,3.55
22709,15.03,14.83,14.76,14.84,14.87,-13.67,-798.34,626.95,-2.80,4.30,5.69
22740,15.04,14.83,14.76,14.83,14.87,-17.58,-843.75,577.64,4.82,1.08,1.18
22771,15.04,14.83,14.76,14.83,14.87,27.34,-799.80,635.74,4.74,-1.39,2.69
22802,15.06,14.83,14.75,14.83,14.87,-32.23,-833.98,621.58,1.82,-0.43,0.78
22833,15.07,14.83,14.74,14.82,14.87,-12.21,-808.59,615.72,3.95,-0.18,-0.15
22864,15.09,14.83,14.74,14.82,14.87,-13.18,-799.32,634.28,-0.49,6.11,4.21
22895,15.11,14.83,14.73,14.81,14.87,-22.46,-813.96,598.63,-1.16,2.03,2.13
22926,15.14,14.83,14.72,14.81,14.87,-31.25,-848.63,611.33,4.66,-0.83,0.34
22957,15.16,14.83,14.71,14.80,14.88,-18.07,-818.85,627.93,3.69,3.14,-1.31
22988,15.17,14.83,14.70,14.80,14.88,-21.48,-837.40,609.86,0.20,4.22,-0.87
23019,15.18,14.83,14.69,14.81,14.88,-20.02,-824.71,628.91,-0.76,0.75,-2.11
23050,15.20,14.83,14.68,14.81,14.88,-9.77,-816.41,642.09,3.17,5.31,-2.06
23081,15.23,14.83,14.67,14.80,14.88,-37.11,-842.29,583.50,-1.51,5.20,1.89
23111,15.24,14.83,14.67,14.79,14.88,-8.79,-806.15,626.95,-0.46,4.13,3.12
23142,15.27,14.83,14.66,14.78,14.88,-17.09,-814.45,627.44,-0.18,4.96,0.50
23173,15.27,14.83,14.66,14.78,14.88,-17.09,-810.06,632.32,0.55,-1.47,-1.62
23203,15.27,14.83,14.66,14.77,14.88,-14.65,-814.94,620.12,-3.11,1.95,-0.32
23234,15.28,14.83,14.65,14.76,14.88,-13.67,-836.91,587.89,2.53,-0.56,0.37
23264,15.31,14.83,14.65,14.75,14.88,-5.86,-799.80,640.14,2.00,1.83,-0.34
23295,15.31,14.82,14.65,14.75,14.88,-31.25,-856.93,581.54,-2.01,-0.90,-1.67
23325,15.31,14.82,14.65,14.75,14.88,-16.60,-795.41,649.90,-0.93,3.13,-0.56
23355,15.34,14.82,14.65,14.75,14.89,-0.98,-811.52,652.34,2.99,2.48,-0.63
23386,15.36,14.82,14.65,14.75,14.90,-28.32,-806.64,618.65,-2.91,1.32,-1.92
23417,15.38,14.82,14.65,14.74,14.90,-4.88,-805.18,644.53,-0.10,3.73,-0.31
23448,15.38,14.82,14.64,14.74,14.90,1.46,-820.31,624.02,0.90,0.54,-0.37
23478,15.38,14.82,14.64,14.74,14.90,8.30,-788.57,651.86,5.74,-2.46,-0.37
23509,15.39,14.82,14.64,14.74,14.90,-28.81,-805.66,644.53,4.08,-4.61,0.84
23540,15.42,14.82,14.65,14.74,14.91,-24.41,-818.85,637.70,-0.33,0.22,-0.49
23570,15.45,14.83,14.64,14.74,14.92,-41.50,-823.24,561.04,-6.19,5.33,-3.07
23601,15.48,14.83,14.64,14.74,14.92,-39.55,-820.80,613.28,0.07,1.64,-2.40
23632,15.49,14.83,14.65,14.74,14.93,-31.25,-841.31,601.56,0.27,-0.73,0.08
23663,15.49,14.83,14.65,14.74,14.93,-29.30,-817.38,611.33,-0.10,0.14,-2.86
23694,15.48,14.83,14.65,14.74,14.93,-33.20,-816.41,621.58,-1.20,-0.82,1.49
23725,15.46,14.83,14.65,14.75,14.92,-26.37,-828.61,624.02,-1.20,-1.74,0.17
23756,15.44,14.83,14.65,14.75,14.92,-7.81,-821.29,614.75,0.14,-0.82,-1.92
23786,15.42,14.83,14.65,14.76,14.91,-42.48,-827.15,612.30,4.32,-1.84,-2.17
23817,15.38,14.83,14.65,14.77,14.91,0.00,-799.80,641.11,2.56,-0.38,-1.83
23848,15.35,14.83,14.65,14.78,14.90,-18.07,-825.20,622.56,-0.22,-2.86,-1.11
23879,15.34,14.83,14.65,14.78,14.90,-5.86,-815.43,630.86,0.01,0.79,-2.08
23910,15.35,14.83,14.65,14.78,14.90,-32.23,-824.71,607.91,1.56,5.82,-1.01
23941,15.38,14.83,14.65,14.78,14.91,-20.02,-824.22,623.05,1.35,0.35,1.26
23972,15.40,14.83,14.65,14.77,14.91,-25.88,-815.43,626.46,-1.10,0.43,-4.16
24003,15.42,14.83,14.65,14.78,14.92,-29.79,-837.40,615.23,-0.44,1.08,-0.55
24034,15.41,14.83,14.65,14.78,14.92,-31.74,-823.24,627.44,1.56,-1.72,-1.89
24065,15.40,14.83,14.65,14.78,14.92,-29.79,-819.82,622.56,0.32,-0.40,-0.34
24096,15.40,14.83,14.65,14.78,14.92,-33.69,-812.01,613.28,-2.63,-0.64,-0.59
24127,15.41,14.83,14.65,14.79,14.92,-27.34,-827.15,609.86,-1.04,2.15,-1.48
24158,15.40,14.83,14.65,14.79,14.92,-22.46,-819.34,623.05,-1.76,0.61,-2.43
24188,15.41,14.84,14.65,14.78,14.92,-36.13,-812.99,624.02,-2.95,3.33,-4.31
24219,15.41,14.84,14.65,14.78,14.92,-33.20,-815.92,620.61,-6.06,1.92,-1.90
24250,15.41,14.84,14.65,14.76,14.91,-27.34,-826.66,610.35,-7.73,4.96,-1.76
24281,15.45,14.83,14.65,14.75,14.92,-31.74,-819.82,602.05,-4.98,5.24,-0.44
24312,15.47,14.83,14.65,14.74,14.92,-41.99,-849.12,604.98,-3.89,1.59,-0.59
24343,15.48,14.83,14.64,14.74,14.92,-36.62,-834.96,585.94,-0.16,-1.22,0.51
24374,15.49,14.83,14.64,14.74,14.92,-33.20,-838.38,606.93,2.43,-3.15,2.46
24405,15.49,14.83,14.64,14.74,14.93,-36.62,-810.55,622.56,-2.69,1.32,1.63
24436,15.51,14.83,14.64,14.74,14.93,-32.71,-825.20,611.82,-0.70,3.70,-3.37
24467,15.53,14.83,14.64,14.74,14.94,-28.32,-820.31,610.84,-1.93,0.60,1.17
24498,15.53,14.83,14.64,14.74,14.94,-31.25,-832.52,600.59,-2.96,3.52,-2.11
24529,15.52,14.83,14.64,14.74,14.94,-21.48,-821.29,612.30,-2.66,0.82,-2.11
24560,15.50,14.83,14.64,14.75,14.93,-49.80,-836.91,586.43,-6.89,1.98,-1.59
24591,15.46,14.84,14.65,14.76,14.93,-30.76,-837.89,611.82,-4.55,-1.12,-2.01
24622,15.38,14.84,14.65,14.78,14.91,-51.76,-870.12,559.57,-10.43,2.24,-4.69
24653,15.25,14.84,14.66,14.81,14.89,-16.60,-846.19,618.65,1.44,-4.76,-4.54
24684,15.14,14.84,14.66,14.82,14.87,-9.77,-826.66,615.72,-1.20,-7.00,-0.44
24714,15.01,14.84,14.66,14.82,14.83,-69.34,-833.98,568.36,-9.19,-4.26,-1.12
24746,14.99,14.84,14.66,14.81,14.82,7.81,-802.73,639.16,-0.02,4.36,1.75
24776,14.98,14.83,14.65,14.79,14.81,-21.97,-858.89,564.94,-2.36,-1.11,0.17
24807,15.02,14.84,14.65,14.78,14.82,1.46,-801.27,643.07,-2.22,5.24,1.60
24838,15.10,14.83,14.65,14.76,14.83,-60.55,-841.80,639.16,-6.55,8.84,-0.60
24869,15.08,14.84,14.64,14.74,14.82,-26.37,-800.78,607.91,-27.69,9.56,0.69
24899,15.16,14.84,14.65,14.74,14.85,-37.60,-877.44,536.62,0.51,6.00,-1.32
24930,15.22,14.84,14.64,14.73,14.86,-44.92,-858.40,592.29,-17.63,3.18,-3.73
24960,15.17,14.85,14.64,14.73,14.85,-46.39,-848.14,580.57,-21.55,6.05,-2.33
24990,15.25,14.86,14.64,14.73,14.87,-37.11,-881.35,495.61,-0.40,9.91,-2.44
25022,15.29,14.86,14.64,14.73,14.88,-27.34,-870.12,562.01,-4.98,-1.58,-1.22
25053,15.27,14.87,14.65,14.74,14.88,-16.60,-823.24,570.31,-4.44,2.20,-2.21
25084,15.34,14.88,14.65,14.76,14.91,-62.01,-860.35,540.04,10.33,1.22,-0.98
25115,15.30,14.88,14.65,14.78,14.90,-14.65,-874.02,551.76,12.98,-7.69,-1.37
25145,15.22,14.88,14.66,14.80,14.89,-12.70,-872.07,508.79,18.25,-13.82,-2.31
25176,15.26,14.88,14.66,14.82,14.91,-34.67,-836.91,608.89,14.18,0.90,0.94
25207,15.22,14.87,14.67,14.85,14.90,-29.30,-846.19,595.21,8.74,-7.29,-1.42
25237,15.14,14.87,14.67,14.88,14.89,-18.07,-868.65,553.22,7.91,-14.00,-0.39
25268,15.12,14.87,14.67,14.89,14.89,-34.18,-818.85,633.30,3.79,-8.88,-5.32
25299,15.10,14.87,14.67,14.90,14.89,0.98,-833.01,583.98,0.18,-0.31,-5.69
25330,15.07,14.87,14.68,14.90,14.88,33.69,-819.82,614.75,-0.71,-3.86,-1.31
25361,15.10,14.88,14.68,14.90,14.89,-18.55,-848.63,579.59,3.55,-0.76,-1.40
25392,15.10,14.88,14.68,14.90,14.89,-20.51,-832.03,605.47,-4.15,-4.69,-3.97
25423,15.09,14.88,14.68,14.90,14.89,19.53,-843.75,615.72,-1.54,-1.14,0.15
25454,15.11,14.88,14.67,14.90,14.89,-20.02,-850.10,608.89,2.98,0.44,2.92
25485,15.11,14.88,14.68,14.91,14.89,-50.29,-861.33,570.31,-3.36,-4.19,-2.00
25516,15.10,14.88,14.68,14.91,14.89,-5.86,-814.45,613.28,0.33,-1.82,-1.15
25546,15.11,14.88,14.68,14.91,14.89,-15.63,-855.47,579.10,1.82,1.74,1.02
25577,15.11,14.88,14.68,14.90,14.89,-33.20,-855.47,592.77,-0.02,-5.16,-3.76
25608,15.11,14.88,14.67,14.90,14.89,14.16,-806.15,643.55,2.19,3.12,0.61
25639,15.12,14.87,14.67,14.90,14.89,-39.06,-869.14,548.34,1.60,4.06,1.88
25670,15.12,14.87,14.67,14.89,14.89,-12.21,-840.33,591.31,-2.56,-0.46,0.21
25701,15.13,14.87,14.67,14.89,14.89,-13.67,-819.82,623.54,5.32,3.27,3.28
25732,15.15,14.87,14.67,14.88,14.89,-4.39,-830.57,626.95,2.74,1.54,1.05
25763,15.16,14.87,14.67,14.88,14.89,4.88,-827.15,631.35,0.24,-1.13,4.14
25794,15.18,14.86,14.67,14.87,14.89,-27.34,-840.33,604.00,2.46,-0.53,1.35
25825,15.21,14.86,14.67,14.86,14.90,-39.06,-846.19,580.08,-0.31,6.05,2.89
25856,15.22,14.86,14.66,14.86,14.90,-20.02,-826.66,590.33,0.67,-1.83,-0.98
25887,15.24,14.86,14.66,14.85,14.90,-35.16,-825.20,636.72,0.61,2.84,0.44
25918,15.26,14.86,14.66,14.84,14.91,-43.95,-839.84,589.84,-3.89,2.37,-1.15
25949,15.28,14.86,14.66,14.84,14.91,-18.55,-821.29,623.05,-2.81,3.50,2.12
25980,15.29,14.86,14.66,14.84,14.91,-22.95,-855.47,587.40,-3.57,4.75,-1.93
26011,15.30,14.86,14.66,14.84,14.91,-39.55,-840.82,580.08,-2.60,1.34,-2.87
26042,15.30,14.86,14.66,14.83,14.91,-28.32,-830.57,598.14,-1.08,2.10,-2.23
26072,15.30,14.86,14.66,14.83,14.91,-22.46,-840.33,577.64,-3.34,-0.63,-1.21
26104,15.30,14.86,14.66,14.83,14.91,-26.37,-828.61,591.31,2.02,-1.52,-0.92
26134,15.30,14.86,14.66,14.83,14.91,-11.23,-834.47,588.38,4.91,-1.84,1.07
26165,15.32,14.86,14.66,14.83,14.92,-27.34,-828.61,594.24,1.03,1.66,-0.23
26196,15.35,14.86,14.66,14.82,14.92,-49.32,-833.98,593.75,-0.72,-0.15,-1.79
26227,15.34,14.86,14.66,14.80,14.92,-18.07,-832.52,601.07,-0.96,1.98,-0.37
26258,15.37,14.86,14.65,14.78,14.92,-26.86,-829.59,596.19,-6.47,4.40,0.26
26289,15.38,14.85,14.65,14.77,14.91,-26.86,-856.45,553.71,-4.31,2.55,-0.38
26320,15.38,14.85,14.65,14.76,14.91,-29.30,-854.98,566.41,-10.24,3.02,-2.44
26351,15.42,14.85,14.65,14.75,14.92,-18.55,-829.59,581.05,1.70,4.14,1.48
26382,15.44,14.85,14.65,14.74,14.92,-29.30,-843.26,618.16,-5.92,2.86,1.19
26413,15.40,14.85,14.65,14.74,14.91,-39.06,-848.63,565.43,-2.24,0.81,-1.53
26444,15.41,14.85,14.65,14.74,14.91,-32.23,-825.20,609.37,-1.06,2.66,1.18
26475,15.41,14.85,14.65,14.73,14.91,-23.44,-870.61,578.12,-2.24,0.77,-0.16
26506,15.36,14.85,14.65,14.73,14.90,-57.13,-860.35,536.13,-5.42,0.85,-3.18
26536,15.34,14.85,14.65,14.74,14.89,-16.11,-862.79,580.08,7.31,-1.02,-1.08
26566,15.37,14.85,14.65,14.74,14.90,-49.80,-838.87,587.40,2.15,0.76,0.60
26597,15.42,14.85,14.65,14.73,14.91,-42.97,-837.89,598.63,-1.69,4.87,0.21
26627,15.46,14.85,14.64,14.74,14.92,-68.36,-838.38,571.78,-2.60,3.03,-3.76
26658,15.49,14.85,14.65,14.74,14.93,-36.13,-840.33,599.12,1.92,3.07,1.31
26688,15.51,14.85,14.65,14.74,14.94,-30.27,-847.17,576.66,6.35,-0.91,1.15
26719,15.51,14.85,14.65,14.74,14.94,-33.69,-835.45,597.66,2.90,-1.11,0.92
26753,15.47,14.85,14.65,14.74,14.93,-31.74,-830.08,615.23,-3.38,-0.90,0.20
26784,15.44,14.85,14.65,14.73,14.92,-10.74,-839.84,616.21,-6.33,0.49,0.65
26814,15.43,14.85,14.65,14.73,14.91,-38.09,-826.17,570.80,-3.19,5.05,-1.56
26845,15.42,14.85,14.64,14.73,14.91,-25.39,-842.77,585.94,4.83,-2.60,-0.85
26875,15.43,14.85,14.65,14.74,14.92,-46.39,-830.08,578.61,2.01,-1.59,1.72
26906,15.41,14.85,14.65,14.75,14.92,-41.02,-846.68,579.59,5.05,-4.21,0.13
26937,15.39,14.85,14.65,14.77,14.91,-38.09,-859.37,573.73,6.00,-3.71,-1.76
26968,15.37,14.85,14.65,14.78,14.91,-26.86,-813.48,594.73,7.98,-3.09,-0.27
26999,15.36,14.85,14.65,14.78,14.91,-28.81,-830.57,607.42,-1.91,2.23,0.60
27030,15.34,14.85,14.65,14.77,14.90,-22.46,-827.15,619.14,-0.20,-2.55,-2.10
27061,15.33,14.85,14.65,14.78,14.90,-18.55,-833.98,600.10,-2.01,-1.08,-2.50
27091,15.30,14.85,14.65,14.79,14.90,-28.81,-834.47,602.54,0.98,0.55,-0.48
27122,15.28,14.85,14.65,14.79,14.89,-37.60,-829.10,603.03,3.92,-1.59,-3.47
27153,15.26,14.85,14.65,14.80,14.89,-38.57,-826.17,607.91,-0.26,-1.98,0.89
27184,15.24,14.85,14.66,14.80,14.89,-27.83,-810.06,615.23,0.61,-5.70,-2.56
27215,15.22,14.85,14.65,14.81,14.88,-25.39,-826.66,609.86,-2.05,-4.02,0.18
27246,15.20,14.85,14.66,14.81,14.88,-39.55,-833.01,590.33,-0.49,-1.58,0.46
27277,15.18,14.85,14.66,14.81,14.87,-26.86,-822.27,606.45,0.37,-1.27,0.72
27308,15.17,14.85,14.66,14.81,14.87,-26.37,-809.57,620.61,-0.82,0.34,-2.46
27339,15.17,14.85,14.66,14.80,14.87,-26.37,-831.54,594.73,-1.79,-0.91,0.00
27370,15.17,14.85,14.66,14.81,14.87,-21.00,-827.64,611.33,1.35,-1.76,-0.63
27401,15.16,14.85,14.66,14.81,14.87,-17.58,-821.29,625.98,-0.63,-0.95,0.31
27432,15.15,14.85,14.66,14.81,14.87,-25.88,-814.45,625.49,2.75,-0.60,0.56
27463,15.15,14.85,14.66,14.82,14.87,-34.67,-833.01,599.61,1.16,-2.40,1.81
27494,15.14,14.85,14.66,14.82,14.87,-22.46,-812.50,622.07,2.34,-3.08,1.63
27525,15.12,14.85,14.66,14.83,14.86,-31.74,-822.27,610.84,-0.67,-2.97,-0.98
27556,15.11,14.85,14.66,14.84,14.86,-25.88,-814.94,611.33,3.62,-2.35,0.61
27587,15.12,14.85,14.66,14.84,14.87,-28.81,-814.45,605.47,1.98,-3.02,0.08
27617,15.13,14.84,14.66,14.83,14.87,-26.86,-822.75,602.54,-1.37,-1.21,-1.35
27649,15.14,14.84,14.66,14.83,14.87,-22.95,-830.08,601.07,1.50,0.44,0.23
27679,15.15,14.84,14.66,14.83,14.87,-21.48,-832.03,616.70,0.18,0.54,1.08
27710,15.16,14.84,14.66,14.82,14.87,-22.46,-825.20,615.23,-0.05,-0.08,-0.42
27741,15.17,14.84,14.66,14.81,14.87,-11.72,-816.41,624.02,-4.45,0.88,-0.87
27772,15.19,14.84,14.65,14.81,14.88,-43.95,-831.05,595.70,-2.08,-0.21,-0.69
27803,15.18,14.84,14.65,14.82,14.87,-14.65,-819.34,629.88,0.44,-1.66,-0.47
27834,15.17,14.84,14.66,14.82,14.87,-36.13,-828.12,601.56,0.24,-1.88,-0.84
27865,15.18,14.84,14.65,14.81,14.87,-23.93,-816.41,625.00,2.73,-2.90,0.73
27896,15.23,14.84,14.65,14.79,14.88,-21.97,-817.38,630.86,-5.91,6.67,1.34
27927,15.26,14.84,14.65,14.76,14.88,-41.50,-825.68,598.63,-10.23,4.79,0.31
27958,15.29,14.84,14.64,14.74,14.88,-9.28,-822.75,605.47,-2.79,0.92,-1.26
27989,15.34,14.84,14.64,14.71,14.88,-29.30,-827.64,625.49,-17.92,5.62,1.08
28020,15.31,14.84,14.64,14.70,14.87,-40.53,-855.96,568.85,-19.27,-0.38,-1.05
28051,15.29,14.84,14.64,14.70,14.87,-54.69,-877.93,552.73,-11.39,2.73,-0.53
28082,15.27,14.84,14.63,14.70,14.86,-46.39,-875.98,546.39,1.24,1.08,0.63
28113,15.30,14.84,14.64,14.70,14.87,-39.55,-831.54,591.31,-2.01,4.69,-2.15
28144,15.29,14.84,14.64,14.70,14.87,-47.85,-820.80,592.77,-7.02,8.37,-0.99
28175,15.31,14.84,14.64,14.70,14.87,-34.18,-853.52,585.94,7.62,3.80,-2.40
28205,15.34,14.85,14.64,14.70,14.88,-0.49,-813.96,600.59,2.62,-0.63,-2.23
28235,15.35,14.84,14.64,14.71,14.88,-80.57,-882.32,517.58,3.11,-3.05,-1.99
28266,15.41,14.85,14.64,14.72,14.90,-31.25,-835.94,604.49,6.18,0.39,-0.60
28296,15.42,14.85,14.64,14.71,14.90,-25.88,-847.17,597.66,-7.50,2.65,2.41
28327,15.43,14.85,14.64,14.72,14.91,-21.00,-931.15,469.73,7.88,-3.22,-0.43
28357,15.53,14.85,14.64,14.73,14.94,-17.09,-820.80,638.67,9.56,-2.34,-2.08
28387,15.50,14.85,14.64,14.72,14.93,-27.34,-816.89,618.16,-12.27,5.60,-0.06
28418,15.48,14.86,14.64,14.73,14.93,-21.97,-880.37,527.34,0.50,3.51,-4.32
28449,15.51,14.86,14.65,14.75,14.94,-43.46,-845.70,617.19,4.73,-5.56,-2.89
28480,15.45,14.86,14.65,14.75,14.93,-39.55,-843.26,584.47,-7.29,2.26,-2.04
28510,15.43,14.86,14.65,14.76,14.92,16.60,-838.38,587.89,4.53,0.21,-3.31
28541,15.43,14.86,14.65,14.78,14.93,-28.81,-850.10,577.64,5.68,-8.19,-1.59
28572,15.38,14.86,14.66,14.80,14.92,-34.18,-832.03,618.65,1.73,-5.04,-1.73
28602,15.36,14.86,14.66,14.81,14.92,-24.90,-845.21,586.43,6.64,-1.47,-0.40
28633,15.34,14.86,14.66,14.83,14.92,-20.51,-908.69,556.64,10.59,-12.47,-1.72
28664,15.31,14.86,14.66,14.83,14.92,15.63,-786.62,616.70,-2.51,-1.17,-2.88
28695,15.31,14.86,14.66,14.84,14.92,-28.32,-848.63,584.47,1.81,2.15,-0.02
28726,15.29,14.86,14.66,14.85,14.92,-39.06,-837.40,608.40,-0.12,-5.21,0.22
28757,15.27,14.86,14.66,14.85,14.91,-4.39,-809.57,610.35,1.82,-0.87,-0.69
28788,15.26,14.86,14.66,14.84,14.91,-7.81,-829.59,598.63,-0.62,-2.61,0.85
28821,15.27,14.86,14.66,14.84,14.91,-35.16,-840.33,590.82,1.37,1.58,-0.22
28852,15.27,14.86,14.66,14.84,14.91,-11.23,-817.87,609.86,0.65,1.72,-1.74
28883,15.28,14.86,14.66,14.84,14.91,-32.71,-843.26,613.28,-3.58,1.05,1.73
28914,15.27,14.86,14.66,14.85,14.91,-16.60,-826.66,604.98,1.36,-1.97,-2.57
28945,15.25,14.86,14.66,14.85,14.91,-31.25,-830.57,595.21,2.40,-1.45,0.87
28976,15.24,14.85,14.66,14.85,14.90,-13.18,-806.15,616.70,0.82,-3.47,-0.58
29007,15.23,14.85,14.67,14.85,14.90,-21.00,-830.57,592.77,0.73,3.36,0.67
29038,15.22,14.85,14.66,14.85,14.90,10.74,-809.08,622.56,2.35,0.24,-0.89
29069,15.23,14.85,14.66,14.85,14.90,-9.28,-815.43,617.19,1.99,-0.78,1.99
29100,15.24,14.85,14.66,14.84,14.90,-36.13,-841.31,587.89,-0.47,4.58,-0.16
29131,15.25,14.85,14.66,14.83,14.90,-22.95,-820.31,628.42,0.63,1.26,-2.80
29161,15.26,14.85,14.66,14.81,14.90,-19.04,-829.59,601.56,-3.41,6.88,0.27
29192,15.28,14.85,14.66,14.80,14.90,-33.69,-818.36,615.23,-4.14,7.31,-1.70
29223,15.29,14.85,14.65,14.78,14.90,-17.09,-832.52,604.49,-5.82,1.93,-0.27
29254,15.32,14.85,14.65,14.77,14.90,-22.46,-809.57,607.42,-3.79,0.66,-0.55
29285,15.34,14.85,14.65,14.76,14.90,-32.71,-823.73,604.49,-4.00,3.98,0.56
29316,15.36,14.85,14.65,14.75,14.90,-29.30,-823.24,602.05,-0.93,2.07,-2.02
29347,15.38,14.85,14.65,14.74,14.90,-32.71,-843.26,591.80,1.08,1.89,1.53
29378,15.38,14.85,14.65,14.74,14.90,-45.90,-832.52,580.57,-0.31,0.02,1.54
29409,15.36,14.85,14.64,14.73,14.90,-19.53,-820.80,615.72,-0.72,-1.15,-0.10
29440,15.37,14.84,14.64,14.73,14.90,-35.16,-853.52,559.57,3.43,1.56,1.00
29471,15.40,14.84,14.64,14.73,14.91,-33.69,-834.96,599.61,4.08,-3.31,0.61
29502,15.44,14.84,14.64,14.73,14.91,-24.41,-811.04,639.65,-2.25,1.34,0.63
29533,15.45,14.84,14.64,14.73,14.91,-45.41,-839.84,582.52,-4.49,4.25,0.53
29564,15.44,14.84,14.64,14.71,14.91,-24.90,-821.29,609.86,-7.76,2.33,0.50
29595,15.44,14.85,14.64,14.70,14.91,-42.48,-832.52,606.93,-10.46,2.89,-0.40
29626,15.46,14.84,14.64,14.69,14.91,-18.07,-848.14,611.33,-10.65,6.44,-0.63
29657,15.45,14.84,14.64,14.70,14.91,-48.83,-871.58,539.06,4.69,-1.37,-2.21
29688,15.48,14.84,14.64,14.70,14.92,17.09,-789.55,641.60,9.35,-0.31,2.01
29719,15.56,14.85,14.64,14.70,14.94,-37.60,-831.54,583.98,-3.88,5.88,-1.21
29750,15.60,14.85,14.64,14.71,14.95,-39.55,-841.31,587.89,-3.03,1.35,-1.63
29780,15.62,14.85,14.64,14.71,14.95,-26.86,-835.94,606.93,-1.28,2.21,-1.15
29811,15.63,14.85,14.64,14.70,14.96,-31.25,-834.96,600.59,1.35,0.55,0.15
29842,15.65,14.85,14.64,14.70,14.96,-21.00,-830.08,604.00,1.93,-1.51,-0.11
29873,15.66,14.85,14.64,14.70,14.96,-32.71,-838.87,582.03,-0.33,1.08,1.29
29903,15.65,14.85,14.64,14.71,14.96,-39.55,-833.98,604.00,-0.79,1.36,-0.11
29934,15.65,14.85,14.64,14.71,14.96,-28.81,-835.94,601.07,-0.84,1.33,0.02
29964,15.65,14.85,14.64,14.72,14.96,-43.95,-846.19,582.03,1.51,-1.34,-0.63
29995,15.61,14.85,14.64,14.74,14.96,-40.04,-832.52,598.14,5.85,-5.52,-2.55
30025,15.58,14.85,14.65,14.75,14.96,-9.77,-820.31,631.35,0.31,-1.82,-1.41
30055,15.54,14.85,14.65,14.76,14.95,-50.29,-845.70,583.01,-3.50,0.79,2.85
30086,15.48,14.85,14.65,14.77,14.94,-35.16,-834.47,604.00,1.56,-4.44,-2.11
30117,15.44,14.85,14.65,14.78,14.93,-35.64,-824.71,604.00,2.01,1.35,-1.79
30148,15.40,14.85,14.65,14.78,14.92,-23.44,-822.75,614.26,-0.92,-1.30,-1.43
30178,15.37,14.85,14.65,14.79,14.92,-38.57,-823.73,606.93,0.46,0.60,-2.28
30209,15.35,14.85,14.66,14.80,14.91,-37.60,-832.03,589.36,1.67,-1.14,-1.10
30240,15.33,14.85,14.66,14.81,14.91,-21.48,-835.45,601.56,1.57,-0.29,-2.39
30270,15.32,14.85,14.66,14.81,14.91,-31.74,-823.73,608.40,1.08,-2.08,-0.98
30301,15.29,14.85,14.66,14.81,14.90,-11.72,-834.96,589.84,-1.56,-1.39,-1.53
30332,15.27,14.85,14.66,14.82,14.90,-31.25,-822.27,601.56,-0.44,0.90,-1.08
30363,15.25,14.85,14.66,14.83,14.90,-31.25,-822.75,602.54,1.29,1.85,-0.63
30394,15.24,14.85,14.66,14.83,14.90,-33.20,-813.48,623.54,-0.64,-1.17,-0.50
30425,15.21,14.85,14.66,14.84,14.89,-29.79,-831.54,599.12,0.09,0.07,0.48
30456,15.20,14.85,14.66,14.85,14.89,-25.88,-833.01,600.59,4.22,-2.76,0.69
30487,15.19,14.85,14.67,14.86,14.89,-27.34,-831.05,612.30,1.63,-4.79,-0.73
30517,15.18,14.85,14.67,14.86,14.89,-32.23,-831.54,603.52,1.24,-3.03,-2.90
30548,15.16,14.85,14.67,14.87,14.89,-8.79,-821.29,618.65,1.90,-3.62,-0.93
30579,15.15,14.85,14.67,14.87,14.88,-18.07,-829.10,625.49,0.81,-3.03,-0.68
30610,15.16,14.85,14.67,14.87,14.89,-38.09,-847.66,561.52,1.38,1.04,0.10
30641,15.16,14.85,14.67,14.88,14.89,-16.60,-821.29,605.96,4.21,-3.75,-1.54
30672,15.18,14.85,14.67,14.87,14.89,-0.98,-806.15,618.16,3.39,2.21,-0.95
30703,15.22,14.85,14.66,14.85,14.90,-24.41,-813.48,639.65,-1.58,1.59,0.11
30734,15.17,14.85,14.67,14.88,14.89,19.04,-807.13,690.43,15.86,-15.18,-2.62
30765,15.10,14.85,14.67,14.89,14.88,-48.34,-819.34,602.54,1.82,-12.37,0.75
30796,15.07,14.85,14.67,14.90,14.87,-21.97,-812.50,620.61,4.83,-2.16,-0.47
30827,15.03,14.84,14.67,14.88,14.85,-29.79,-826.66,604.00,-1.72,-1.76,4.27
30858,15.03,14.84,14.66,14.83,14.84,58.11,-769.53,675.29,1.66,2.19,3.85
30889,15.12,14.84,14.65,14.78,14.85,-48.83,-837.40,576.66,-2.44,1.21,1.75
30920,15.15,14.83,14.64,14.75,14.84,-41.50,-817.38,592.77,-10.94,4.33,1.76
30951,15.21,14.83,14.64,14.74,14.86,-39.06,-840.33,614.26,-0.56,4.11,1.10
30982,15.23,14.83,14.64,14.74,14.86,-41.02,-816.89,624.51,-8.98,4.28,-0.27
31013,15.22,14.83,14.64,14.75,14.86,-8.79,-868.16,571.29,-0.57,-4.96,-2.71
31044,15.28,14.83,14.64,14.75,14.88,-32.71,-816.41,629.88,4.18,-0.44,-0.02
31075,15.29,14.83,14.64,14.76,14.88,-29.79,-808.11,632.32,0.78,1.23,-2.43
31106,15.40,14.83,14.65,14.79,14.92,-10.25,-816.89,616.70,17.75,0.31,-0.44
31136,15.42,14.84,14.65,14.79,14.92,12.21,-829.10,637.70,-2.53,-6.97,0.58
31167,15.34,14.83,14.65,14.78,14.90,-43.46,-808.59,618.16,-7.13,-2.20,-1.56
31198,15.36,14.84,14.65,14.78,14.91,-56.15,-799.80,626.46,-0.44,8.29,-5.26
31229,15.34,14.84,14.65,14.77,14.90,-1.46,-848.63,609.37,-6.74,7.07,-1.91
31260,15.33,14.84,14.65,14.78,14.90,-10.25,-825.20,596.68,-6.01,1.51,-3.12
31291,15.40,14.85,14.65,14.78,14.92,-47.36,-798.34,651.37,5.15,-0.33,-4.34
31322,15.40,14.85,14.65,14.77,14.92,-23.44,-853.52,571.29,-6.15,1.90,-1.68
31353,15.39,14.85,14.65,14.77,14.91,13.18,-827.64,618.65,0.22,-0.04,-1.58
31384,15.41,14.85,14.65,14.78,14.92,-41.99,-824.71,587.40,5.15,-2.88,-1.95
31415,15.43,14.85,14.65,14.79,14.93,-40.53,-822.27,606.45,-2.68,-2.88,0.11
31446,15.42,14.85,14.65,14.80,14.93,-18.07,-813.96,625.49,-0.65,2.47,-1.85
31477,15.40,14.85,14.66,14.81,14.93,-47.85,-849.61,574.22,-2.08,1.81,-2.18
31508,15.35,14.85,14.66,14.83,14.92,-24.90,-817.87,611.82,0.98,-4.82,-0.79
31538,15.33,14.85,14.66,14.84,14.92,-10.74,-812.50,634.77,0.04,-0.21,0.08
31569,15.31,14.86,14.66,14.83,14.92,-5.37,-831.54,600.59,-7.60,0.39,1.80
31599,15.29,14.86,14.66,14.83,14.91,-13.67,-824.71,601.56,-3.02,1.91,-0.76
31629,15.28,14.86,14.66,14.82,14.91,-17.09,-848.14,577.64,-0.49,1.04,-5.45
31660,15.29,14.86,14.66,14.81,14.90,-0.49,-804.69,632.81,-6.24,5.31,-1.76
31690,15.28,14.86,14.66,14.80,14.90,-0.49,-839.84,602.54,-1.78,2.45,-2.21
31721,15.30,14.86,14.66,14.80,14.91,-23.44,-858.89,571.29,2.44,-2.86,-1.25
31752,15.29,14.86,14.66,14.80,14.90,-20.51,-835.94,587.40,1.02,-3.02,1.90
31782,15.28,14.86,14.66,14.80,14.90,-21.97,-850.59,555.66,1.97,-0.89,0.99
31813,15.29,14.86,14.66,14.80,14.90,-36.13,-847.66,577.64,-0.20,-4.22,2.85
31844,15.28,14.86,14.66,14.80,14.90,-18.55,-812.99,619.63,-1.92,0.79,1.40
31874,15.29,14.85,14.66,14.79,14.90,-13.67,-853.52,585.94,1.92,2.69,0.10
31905,15.30,14.85,14.65,14.79,14.90,-12.21,-836.91,606.45,1.60,2.76,2.11
31936,15.31,14.85,14.65,14.79,14.90,-38.57,-837.40,605.96,0.21,-1.61,2.02
31966,15.31,14.85,14.66,14.80,14.91,2.44,-823.24,619.63,5.06,0.83,-0.53
31997,15.33,14.85,14.65,14.80,14.91,-2.93,-805.18,622.56,0.73,2.46,1.98
32028,15.35,14.85,14.65,14.80,14.91,-10.25,-827.15,617.68,1.51,0.88,-0.72
32059,15.37,14.85,14.65,14.80,14.92,-30.76,-834.47,596.68,2.71,-1.76,2.64
32090,15.38,14.85,14.65,14.79,14.92,-48.83,-841.80,613.77,1.35,2.27,-0.42
32121,15.39,14.85,14.65,14.79,14.92,-2.44,-826.66,632.81,-0.12,2.91,1.21
32152,15.42,14.85,14.65,14.78,14.93,-16.60,-831.54,606.45,-0.90,1.17,1.24
32183,15.42,14.85,14.65,14.78,14.93,-13.67,-833.50,597.66,-0.03,-2.87,1.07
32214,15.42,14.85,14.65,14.78,14.93,-34.67,-823.73,604.49,-2.50,-1.66,1.10
32245,15.42,14.85,14.65,14.78,14.93,-28.81,-821.29,608.40,1.47,1.60,-0.59
32276,15.44,14.85,14.65,14.78,14.93,-25.39,-846.19,591.80,4.17,-1.19,0.63
32307,15.44,14.85,14.65,14.79,14.93,-12.70,-823.73,632.81,-1.95,-0.47,-1.50
32338,15.42,14.85,14.65,14.79,14.93,-35.64,-846.68,588.38,-2.95,1.24,-2.60
32369,15.41,14.85,14.65,14.79,14.93,-57.13,-841.31,583.98,-3.63,3.24,-1.04
32399,15.40,14.85,14.66,14.79,14.93,-19.53,-830.57,613.77,2.51,0.79,-1.37
32431,15.40,14.85,14.66,14.79,14.93,-7.32,-826.66,606.45,-2.69,2.37,0.69
32461,15.39,14.86,14.66,14.79,14.93,-14.65,-857.91,575.20,0.82,0.37,-1.28
32492,15.41,14.85,14.65,14.79,14.93,-28.81,-816.41,606.45,-1.32,1.00,2.05
32523,15.43,14.85,14.65,14.79,14.93,-34.18,-837.40,581.05,6.37,2.50,2.10
32554,15.45,14.85,14.65,14.79,14.94,-36.13,-843.26,585.94,3.01,-2.75,0.28
32585,15.46,14.85,14.65,14.78,14.94,-43.46,-826.17,607.91,0.21,-0.67,1.76
32616,15.50,14.85,14.65,14.77,14.94,-24.41,-820.31,611.82,0.05,4.68,-0.49
32647,15.52,14.85,14.65,14.77,14.95,-34.18,-849.61,570.80,-2.96,4.16,-2.46
32680,15.53,14.85,14.65,14.76,14.95,-30.27,-822.27,594.73,-1.19,0.25,-1.16
32711,15.53,14.85,14.65,14.74,14.94,-29.30,-812.01,615.23,-5.03,0.47,-3.33
32742,15.53,14.85,14.65,14.74,14.94,-38.09,-819.34,611.33,-4.34,0.82,-1.38
32773,15.52,14.85,14.65,14.74,14.94,-32.23,-835.45,608.40,0.59,0.31,-0.19
32804,15.51,14.85,14.65,14.74,14.93,-36.62,-817.87,622.07,-6.05,0.99,-2.05
32835,15.49,14.85,14.65,14.73,14.93,-43.95,-858.89,576.66,-3.45,2.05,-1.74
32866,15.48,14.85,14.65,14.73,14.93,-48.83,-819.82,601.56,-1.26,-1.27,-1.04
32896,15.48,14.85,14.65,14.73,14.93,-28.32,-831.05,616.21,-2.59,-2.70,-0.72
32928,15.48,14.85,14.65,14.73,14.93,-49.80,-836.43,580.08,-0.67,2.56,1.26
32958,15.48,14.85,14.65,14.73,14.93,-28.32,-824.71,604.49,-0.49,0.20,-0.98
32989,15.46,14.85,14.64,14.73,14.92,-33.20,-830.08,582.52,-0.57,0.73,2.45
33020,15.45,14.85,14.64,14.73,14.92,-41.99,-867.19,569.82,-1.34,-3.92,-0.09
33051,15.45,14.85,14.65,14.74,14.92,-34.67,-820.80,607.91,7.87,-1.92,4.30
33082,15.47,14.84,14.65,14.74,14.92,-9.77,-822.75,604.98,3.03,2.11,0.41
33113,15.47,14.84,14.64,14.74,14.92,-30.76,-809.57,627.44,-2.02,1.82,0.34
33144,15.46,14.84,14.64,14.73,14.92,-22.95,-834.47,621.58,-3.76,1.10,-1.41
33175,15.45,14.84,14.64,14.73,14.92,-29.79,-828.12,587.40,-6.06,4.48,-0.92
33206,15.45,14.84,14.65,14.73,14.92,-18.07,-838.38,602.05,1.02,-0.68,0.78
33236,15.45,14.84,14.64,14.72,14.92,-22.95,-838.38,585.45,-1.65,2.79,1.10
33267,15.46,14.84,14.64,14.72,14.92,-40.04,-844.73,598.63,-1.40,2.31,-0.05
33297,15.46,14.84,14.64,14.72,14.92,-50.29,-837.40,597.17,0.59,2.66,-3.42
33328,15.45,14.84,14.64,14.72,14.92,-44.92,-837.40,602.54,0.19,1.27,-3.53
33358,15.45,14.84,14.64,14.72,14.91,-32.23,-829.10,592.77,-0.85,0.85,-0.14
33388,15.43,14.85,14.64,14.73,14.91,-32.71,-845.70,593.26,1.06,-2.55,-0.34
33419,15.41,14.85,14.64,14.73,14.91,-31.25,-839.84,603.03,-1.21,-1.63,-0.14
33449,15.38,14.85,14.65,14.74,14.90,-45.90,-841.80,579.59,-0.96,-2.06,-2.47
33480,15.34,14.85,14.65,14.75,14.90,-35.16,-845.21,608.89,2.64,-3.15,0.31
33510,15.31,14.85,14.65,14.75,14.89,-37.11,-824.71,612.79,5.43,-1.18,-0.18
33541,15.29,14.84,14.65,14.76,14.89,-26.37,-840.33,604.49,5.27,-1.27,1.79
33572,15.29,14.84,14.65,14.77,14.89,-47.36,-819.82,597.66,8.18,-7.76,-2.34
33602,15.26,14.84,14.65,14.78,14.88,-29.79,-832.03,606.45,4.69,-7.79,0.40
33633,15.23,14.84,14.65,14.79,14.88,-21.97,-810.55,611.82,5.78,-5.24,0.92
33664,15.20,14.84,14.65,14.80,14.87,-19.53,-824.22,620.61,4.24,-6.15,1.55
33695,15.18,14.84,14.65,14.80,14.87,-29.30,-815.43,630.86,1.43,-2.12,-1.03
33726,15.15,14.84,14.66,14.81,14.86,-36.13,-828.61,612.79,0.94,-2.17,-1.69
33757,15.13,14.84,14.65,14.81,14.86,-20.02,-815.92,629.39,1.48,0.59,-0.10
33788,15.13,14.84,14.66,14.80,14.86,-17.58,-817.87,618.65,0.91,2.80,-0.63
33819,15.14,14.83,14.66,14.80,14.86,-15.63,-812.99,612.79,-0.82,2.55,-1.86
33850,15.14,14.84,14.66,14.80,14.86,-18.07,-807.13,611.82,-0.63,2.18,-0.31
33880,15.15,14.84,14.66,14.80,14.86,-22.95,-804.69,623.05,0.46,0.82,-1.60
33911,15.15,14.84,14.66,14.80,14.86,-18.55,-813.48,600.10,-2.06,3.31,1.67
33942,15.17,14.84,14.66,14.80,14.87,-19.53,-816.89,615.72,-1.55,0.99,0.05
33973,15.17,14.84,14.66,14.81,14.87,-24.41,-811.52,613.77,0.74,1.19,0.94
34004,15.18,14.84,14.66,14.81,14.87,-18.07,-818.85,624.51,-1.48,-0.37,0.11
34035,15.19,14.84,14.66,14.81,14.87,-14.16,-818.85,629.39,0.60,-0.42,-0.24
34066,15.20,14.84,14.66,14.81,14.88,-26.86,-811.04,624.02,-0.79,2.96,-2.30
34097,15.21,14.84,14.66,14.81,14.88,-29.30,-814.45,621.58,0.92,1.22,-0.79
34128,15.23,14.84,14.66,14.81,14.88,-12.21,-812.99,614.75,-0.87,-0.76,-0.73
34159,15.24,14.84,14.66,14.81,14.89,-27.83,-824.71,616.21,-0.94,2.29,-0.81
34190,15.24,14.84,14.66,14.82,14.89,-13.18,-821.78,621.09,1.87,-0.21,-1.27
34221,15.24,14.84,14.66,14.82,14.89,-17.58,-819.34,617.19,0.59,0.31,0.67
34252,15.25,14.84,14.66,14.82,14.89,-25.39,-818.85,624.02,-1.55,4.42,1.02
34283,15.25,14.84,14.66,14.82,14.89,-32.23,-817.38,609.37,1.50,-1.45,-0.45
34314,15.25,14.84,14.66,14.82,14.89,-17.58,-809.08,620.61,0.19,-0.60,-1.27
34345,15.26,14.84,14.66,14.82,14.90,-15.14,-813.96,629.88,-1.60,-0.49,0.94
34376,15.28,14.84,14.66,14.81,14.90,-28.81,-822.75,620.61,0.95,0.15,0.49
34407,15.30,14.84,14.66,14.81,14.90,-18.55,-818.85,620.12,0.53,-0.71,2.13
34438,15.32,14.84,14.66,14.80,14.91,-34.67,-820.80,617.68,-0.66,1.74,-1.70
34468,15.34,14.84,14.66,14.80,14.91,-14.65,-820.80,632.32,-2.82,1.50,-3.06
34499,15.37,14.84,14.66,14.79,14.91,-8.30,-806.15,644.53,-6.96,3.81,-2.12
34530,15.38,14.84,14.65,14.78,14.91,-21.48,-818.85,619.63,-5.95,5.31,-0.24
34561,15.39,14.84,14.65,14.78,14.92,-65.43,-854.98,571.78,-3.96,0.68,2.31
34592,15.34,14.84,14.65,14.78,14.90,-44.92,-821.78,614.26,1.95,-5.10,-0.60
34623,15.31,14.84,14.65,14.77,14.89,-17.09,-820.80,625.00,-4.38,0.78,-1.02
34654,15.30,14.84,14.65,14.75,14.88,-30.76,-831.54,596.68,-6.07,0.53,1.72
34685,15.28,14.84,14.65,14.74,14.88,-33.20,-818.36,613.28,-3.13,-2.13,1.96
34716,15.29,14.84,14.65,14.74,14.88,-59.08,-848.14,592.77,-2.82,0.62,-0.11
34747,15.32,14.84,14.64,14.73,14.88,-23.93,-826.17,615.72,-2.55,1.40,2.02
34778,15.31,14.83,14.64,14.73,14.88,-32.71,-812.99,615.72,-3.98,0.74,1.27
34809,15.32,14.83,14.64,14.73,14.88,-33.69,-837.89,616.21,-3.03,-2.71,-0.02
34840,15.33,14.83,14.64,14.73,14.89,-29.79,-844.24,594.73,-1.86,0.41,0.71
34871,15.31,14.83,14.64,14.73,14.88,-21.00,-824.22,603.52,-6.03,0.66,-0.26
34901,15.33,14.84,14.64,14.74,14.89,-35.64,-860.35,572.75,3.82,-1.57,-2.73
34932,15.42,14.84,14.64,14.75,14.91,-4.88,-826.17,628.91,8.15,-1.80,-1.60
34962,15.39,14.84,14.64,14.74,14.90,-14.16,-803.22,624.51,-9.89,1.96,-2.02
34992,15.40,14.84,14.65,14.77,14.91,-40.04,-863.28,545.90,5.92,2.01,-3.02
35023,15.45,14.84,14.65,14.78,14.93,-17.58,-764.65,707.03,3.05,-1.96,-3.24
35053,15.34,14.84,14.65,14.78,14.90,-30.76,-845.70,590.82,-12.13,-4.73,-1.82
35084,15.31,14.84,14.66,14.80,14.90,12.21,-812.99,605.47,16.55,-4.98,-3.59
35115,15.33,14.84,14.65,14.80,14.91,2.93,-809.08,654.79,-3.20,-8.55,-0.29
35145,15.32,14.84,14.65,14.81,14.90,-66.41,-837.89,580.57,-4.69,-3.21,0.47
35176,15.34,14.84,14.65,14.82,14.91,-36.13,-832.03,614.26,4.83,2.53,0.14
35206,15.34,14.84,14.66,14.82,14.91,-3.42,-815.43,631.84,0.03,0.78,0.95
35237,15.32,14.84,14.66,14.82,14.91,-30.76,-828.61,603.03,-3.48,0.56,-0.78
35268,15.33,14.84,14.66,14.82,14.91,-17.58,-818.36,629.88,3.49,0.21,-2.24
35298,15.32,14.84,14.66,14.82,14.91,-7.81,-824.71,618.65,-6.18,1.52,-3.10
35329,15.30,14.85,14.66,14.82,14.91,-10.25,-846.19,594.73,-1.69,5.72,-4.01
35360,15.32,14.85,14.66,14.83,14.92,-38.57,-841.31,602.05,6.27,-1.18,-5.18
35391,15.31,14.85,14.66,14.83,14.91,-17.58,-829.59,622.07,3.16,-4.56,-1.26
35422,15.29,14.85,14.66,14.83,14.91,-21.97,-821.78,590.82,0.01,0.84,-0.73
35453,15.30,14.85,14.66,14.84,14.91,-24.41,-812.99,628.42,1.43,0.89,-2.85
35484,15.28,14.85,14.66,14.84,14.91,-4.88,-841.31,600.59,2.08,-5.06,-1.53
35515,15.27,14.85,14.66,14.84,14.91,13.18,-792.48,654.30,0.72,-2.14,2.57
35546,15.27,14.85,14.66,14.85,14.91,-55.18,-864.26,568.36,1.35,-3.03,1.68
35577,15.27,14.85,14.66,14.85,14.91,3.91,-770.02,650.39,1.63,-3.63,-2.89
35608,15.27,14.85,14.66,14.86,14.91,-20.02,-846.68,602.05,0.89,-1.09,-1.37
35639,15.28,14.85,14.66,14.85,14.91,-23.93,-816.41,624.51,-3.59,2.62,1.08
35670,15.27,14.85,14.66,14.85,14.91,-37.11,-836.91,604.00,-1.66,1.44,-4.20
35700,15.28,14.85,14.66,14.85,14.91,1.46,-811.04,616.70,-1.36,1.92,0.88
35732,15.29,14.85,14.66,14.86,14.91,-25.88,-837.89,565.92,-2.60,-2.97,0.38
35762,15.29,14.85,14.66,14.85,14.92,-15.14,-819.34,630.37,-1.72,3.45,-0.80
35793,15.29,14.85,14.67,14.86,14.92,-41.02,-841.31,585.45,-3.55,2.03,2.65
35824,15.29,14.85,14.67,14.86,14.92,-25.39,-810.55,620.12,2.17,0.43,-2.31
35855,15.28,14.85,14.67,14.86,14.92,5.37,-811.52,644.04,-2.43,1.29,-0.62
35886,15.27,14.85,14.67,14.87,14.92,-31.74,-848.63,574.22,1.37,0.09,0.88
35917,15.27,14.85,14.67,14.88,14.92,-25.39,-827.15,627.93,2.85,-3.92,-1.36
35948,15.25,14.85,14.67,14.89,14.92,-4.39,-816.89,610.84,4.05,-4.82,0.18
35979,15.24,14.85,14.67,14.90,14.91,-27.34,-833.01,593.26,1.88,-4.13,3.28
36010,15.23,14.85,14.67,14.91,14.91,-22.95,-829.10,615.72,7.15,-8.66,1.32
36041,15.21,14.84,14.67,14.91,14.91,12.70,-789.55,653.32,7.80,-2.79,1.92
36072,15.23,14.84,14.67,14.91,14.91,-13.67,-806.15,629.88,6.39,-3.20,3.33
36103,15.24,14.84,14.67,14.91,14.92,-19.53,-804.69,629.88,3.44,-1.12,-0.49
36134,15.25,14.84,14.67,14.89,14.91,-8.79,-800.78,652.83,-5.40,2.40,0.20
36165,15.27,14.84,14.67,14.88,14.91,-30.76,-826.17,602.05,-3.06,8.14,0.34
36196,15.30,14.84,14.67,14.86,14.92,-54.20,-824.22,602.05,-3.56,3.45,-0.07
36227,15.33,14.84,14.66,14.85,14.92,-11.72,-822.27,627.93,-3.82,6.24,0.14
36258,15.36,14.84,14.66,14.83,14.92,-16.11,-815.43,627.44,-2.08,4.18,1.34
36289,15.38,14.84,14.66,14.81,14.92,-21.97,-824.71,615.23,-6.38,4.64,-1.01
36319,15.41,14.84,14.65,14.80,14.92,-14.65,-805.18,628.42,-1.47,2.00,3.02
36350,15.43,14.84,14.65,14.79,14.93,-18.07,-811.04,631.84,-5.51,2.52,0.18
36381,15.44,14.84,14.65,14.77,14.92,-28.32,-816.89,605.96,-6.05,4.60,-1.91
36412,15.45,14.84,14.65,14.77,14.92,-23.44,-830.57,604.98,-3.84,5.45,-1.28
36443,15.46,14.84,14.65,14.76,14.93,-41.02,-835.94,574.22,-2.94,2.87,-0.95
36474,15.46,14.84,14.65,14.76,14.93,-32.71,-822.75,607.91,-2.69,-0.29,0.11
36505,15.45,14.84,14.65,14.75,14.92,-42.48,-833.98,579.10,-5.69,3.80,-2.41
36538,15.46,14.84,14.65,14.75,14.92,-16.60,-839.36,598.63,0.58,-0.13,-1.26
36568,15.45,14.84,14.65,14.75,14.92,-22.95,-824.71,607.42,-1.10,2.42,1.30
36599,15.43,14.84,14.65,14.74,14.91,-44.92,-832.03,605.96,-10.00,5.06,0.32
36629,15.41,14.84,14.65,14.74,14.91,-34.18,-827.15,597.17,-3.08,1.92,0.40
36659,15.40,14.84,14.65,14.75,14.91,-39.06,-858.40,566.89,2.31,-3.13,1.63
36690,15.42,14.84,14.65,14.75,14.91,-71.29,-813.48,627.93,0.71,1.64,-0.08
36720,15.44,14.84,14.65,14.75,14.92,-51.76,-825.68,606.93,0.98,1.95,-3.14
36751,15.45,14.84,14.65,14.75,14.92,-41.02,-823.24,583.01,-0.42,-2.66,-0.38
36782,15.46,14.84,14.65,14.76,14.93,-48.34,-820.31,605.47,2.10,-1.22,-1.76
36812,15.46,14.85,14.65,14.77,14.93,-32.23,-820.80,610.35,1.45,-0.48,-2.28
36843,15.44,14.85,14.65,14.77,14.93,-37.60,-840.33,610.84,-2.03,2.79,-1.25
36874,15.38,14.85,14.66,14.78,14.92,-15.14,-825.20,617.19,1.98,-2.47,-1.18
36904,15.33,14.85,14.66,14.79,14.91,-19.04,-827.64,619.14,2.29,-1.79,-1.95
36935,15.27,14.85,14.66,14.80,14.90,-25.39,-812.50,620.61,1.89,-3.09,-2.44
36966,15.23,14.85,14.66,14.81,14.89,-21.48,-842.77,616.21,0.27,-0.40,-3.07
36996,15.20,14.85,14.66,14.82,14.88,-41.99,-832.03,589.36,2.02,-2.19,-1.82
37027,15.16,14.85,14.67,14.84,14.88,-27.34,-824.71,604.49,2.66,-5.23,-2.64
37058,15.13,14.85,14.67,14.85,14.87,-34.18,-822.27,609.86,1.89,-1.44,-3.10
37089,15.08,14.85,14.67,14.85,14.86,-4.39,-825.20,617.68,0.33,-3.63,-1.84
37120,15.06,14.85,14.67,14.86,14.86,-5.86,-830.08,603.03,0.77,-4.20,-1.37
37151,15.04,14.85,14.67,14.87,14.86,-5.37,-809.57,622.07,2.92,-1.20,-1.56
37182,15.04,14.85,14.67,14.86,14.86,-15.63,-805.18,627.44,-0.88,-1.57,0.24
37213,15.04,14.85,14.67,14.87,14.86,-18.07,-823.24,613.28,-0.32,-1.34,1.40
37244,15.04,14.85,14.67,14.87,14.86,-19.53,-815.43,620.61,0.56,-1.59,-0.87
37275,15.03,14.85,14.67,14.87,14.86,-0.49,-810.06,638.18,5.81,-3.35,-1.42
37305,15.02,14.85,14.67,14.87,14.85,-14.65,-820.31,623.54,-1.18,-0.95,0.33
37337,15.02,14.85,14.67,14.87,14.85,-24.90,-813.96,613.28,2.18,-1.98,1.20
37367,15.02,14.85,14.67,14.88,14.86,-28.81,-807.13,625.00,-0.27,-0.24,1.10
37398,15.02,14.85,14.67,14.88,14.86,-43.95,-831.05,598.63,-1.08,-0.45,-1.44
37429,15.02,14.85,14.67,14.89,14.86,-22.95,-833.50,616.21,3.94,-5.08,-0.15
37460,15.01,14.85,14.67,14.89,14.86,-7.32,-810.55,625.98,-0.98,2.15,-0.51
37491,15.00,14.85,14.68,14.89,14.85,-28.32,-816.89,618.65,0.69,0.85,-3.31
37522,14.99,14.85,14.67,14.89,14.85,-7.32,-817.38,615.72,-0.70,-0.71,-2.17
37553,14.97,14.85,14.68,14.89,14.85,-19.04,-805.66,623.05,-1.56,-2.28,-1.02
37584,14.97,14.84,14.68,14.89,14.85,-15.63,-823.73,621.09,-1.82,2.35,-1.72
37615,14.96,14.84,14.68,14.89,14.84,-22.46,-814.45,614.26,-0.50,0.45,-1.36
37646,14.96,14.85,14.68,14.89,14.84,-32.71,-815.43,612.79,-0.99,0.85,-1.01
37677,14.96,14.85,14.68,14.90,14.84,-4.39,-827.15,617.19,1.34,0.45,-0.14
37708,14.96,14.85,14.68,14.90,14.85,-18.55,-816.89,617.19,0.98,-1.12,-0.08
37739,14.96,14.85,14.68,14.89,14.84,-14.16,-818.36,614.75,1.56,1.17,0.66
37770,14.96,14.85,14.67,14.89,14.84,-20.02,-828.12,611.82,-0.78,1.16,-0.73
37801,14.97,14.85,14.67,14.89,14.85,-17.58,-832.52,625.49,0.18,0.60,-0.49
37832,14.98,14.85,14.67,14.89,14.85,-8.30,-812.01,625.49,0.54,-1.52,0.09
37863,14.99,14.85,14.67,14.88,14.85,-16.11,-823.24,616.70,0.69,-0.34,2.17
37894,15.01,14.85,14.67,14.88,14.85,-22.46,-815.43,613.28,2.72,1.91,-2.22
37924,15.02,14.85,14.67,14.88,14.85,-10.74,-811.52,636.72,0.36,2.74,-0.21
37955,15.04,14.85,14.67,14.87,14.86,-16.11,-810.06,627.44,1.06,4.65,1.57
37986,15.06,14.85,14.67,14.87,14.86,-20.51,-827.15,604.98,0.03,-1.22,-0.30
38017,15.06,14.85,14.67,14.87,14.86,-16.11,-811.52,612.30,-0.34,-1.02,0.92
38048,15.07,14.85,14.67,14.86,14.86,-32.23,-821.29,628.91,-0.10,1.55,-1.68
38079,15.08,14.85,14.67,14.86,14.86,-21.00,-818.36,625.00,-0.27,1.53,-1.02
38110,15.08,14.85,14.67,14.86,14.86,-28.32,-832.52,608.89,-0.18,-0.24,1.37
38141,15.08,14.84,14.67,14.85,14.86,-14.65,-807.13,635.25,-1.29,0.17,-2.66
38172,15.09,14.84,14.67,14.85,14.86,-48.83,-841.80,605.96,0.02,-0.26,-0.14
38203,15.07,14.85,14.67,14.87,14.86,-21.00,-823.24,619.63,3.21,-1.64,0.49
38234,15.04,14.84,14.67,14.87,14.85,-25.88,-808.11,632.81,-1.57,-1.45,-0.23
38264,15.04,14.84,14.67,14.84,14.85,19.53,-777.34,672.85,-5.79,6.23,0.95
38295,15.05,14.84,14.66,14.82,14.84,-4.39,-822.27,634.77,-11.73,-0.42,-0.36
38325,15.02,14.84,14.66,14.82,14.83,-62.01,-836.43,588.38,-15.47,-3.05,-1.21
38356,14.96,14.84,14.66,14.82,14.82,19.04,-818.36,599.61,-5.24,-5.71,-0.29
38386,14.97,14.83,14.66,14.80,14.82,21.00,-798.34,647.46,3.68,2.20,2.60
38416,15.04,14.83,14.65,14.78,14.83,-53.22,-848.63,566.89,-6.98,4.16,-0.48
38447,15.04,14.83,14.65,14.78,14.83,-14.65,-849.12,603.52,-11.16,1.57,0.62
38478,15.02,14.83,14.65,14.80,14.83,-4.88,-833.01,648.93,9.02,-6.06,-6.41
38509,15.00,14.84,14.66,14.81,14.83,-30.27,-837.89,596.19,-3.04,0.21,-1.48
38539,14.98,14.84,14.66,14.80,14.82,-6.84,-845.70,591.31,3.56,0.73,-3.11
38570,15.04,14.84,14.66,14.80,14.83,-22.46,-837.40,581.05,6.78,2.86,2.16
38601,15.10,14.84,14.65,14.79,14.85,-32.71,-801.76,646.00,0.52,1.42,0.22
38631,15.15,14.84,14.65,14.79,14.86,-47.85,-812.50,631.84,-4.77,5.59,-1.60
38662,15.21,14.84,14.65,14.79,14.87,-5.37,-820.31,615.23,-0.79,3.34,-0.53
38693,15.23,14.84,14.65,14.79,14.88,-30.76,-855.96,564.45,3.16,-0.30,-1.41
38724,15.24,14.84,14.66,14.80,14.88,-19.04,-835.45,617.68,-0.15,-0.89,-1.18
38755,15.26,14.84,14.66,14.80,14.89,-31.25,-816.41,628.42,-0.80,0.91,-3.14
38786,15.24,14.84,14.66,14.81,14.89,-45.90,-835.45,591.31,-6.03,1.11,-1.50
38817,15.28,14.85,14.66,14.81,14.90,-4.88,-802.25,637.21,5.64,3.43,-2.73
38847,15.30,14.85,14.66,14.81,14.90,-41.02,-835.94,607.42,-7.08,2.09,-1.80
38878,15.26,14.85,14.66,14.81,14.89,-23.44,-839.36,606.45,-6.24,1.38,-4.77
38909,15.25,14.85,14.66,14.82,14.90,-54.20,-835.45,592.77,-0.97,-1.53,-1.85
38940,15.25,14.85,14.67,14.83,14.90,-29.79,-821.29,622.07,1.08,-1.95,-2.78
38971,15.22,14.85,14.67,14.83,14.89,-8.79,-820.80,599.12,-5.38,1.07,-0.20
39002,15.25,14.85,14.67,14.84,14.90,-29.30,-832.52,600.59,5.24,-2.14,0.03
39033,15.25,14.86,14.67,14.85,14.91,-26.37,-833.98,617.19,1.53,-1.15,-3.58
39064,15.23,14.86,14.67,14.86,14.90,-8.30,-814.94,598.63,-2.13,0.04,-0.60
39095,15.25,14.86,14.67,14.86,14.91,-14.16,-808.59,621.09,-2.55,4.73,-1.79
39126,15.26,14.86,14.67,14.86,14.91,-21.97,-840.33,573.24,-0.85,0.14,-1.62
39157,15.26,14.86,14.67,14.86,14.91,-3.91,-821.29,612.79,-3.63,-4.38,-1.95
39188,15.25,14.87,14.67,14.86,14.91,-42.48,-825.68,600.59,-1.31,0.17,-1.53
39219,15.25,14.87,14.67,14.86,14.91,-5.37,-809.57,626.95,-0.53,5.11,-2.45
39250,15.25,14.86,14.67,14.86,14.91,5.37,-818.36,613.28,-0.42,-1.65,-0.41
39281,15.25,14.86,14.67,14.85,14.91,-18.07,-834.47,602.54,1.10,-3.92,-0.01
39312,15.25,14.86,14.67,14.85,14.91,-16.60,-822.27,607.91,-0.83,0.13,-0.10
39343,15.26,14.86,14.67,14.85,14.91,-14.65,-814.45,618.65,5.14,2.04,2.08
39374,15.25,14.86,14.67,14.85,14.91,-24.90,-836.43,595.21,-1.93,-2.25,1.17
39405,15.24,14.86,14.67,14.85,14.91,-18.55,-807.13,640.14,-0.98,2.31,-0.92
39436,15.26,14.86,14.67,14.85,14.91,-26.86,-838.38,606.93,-3.78,2.69,1.24
39466,15.26,14.86,14.67,14.84,14.91,-12.70,-835.45,594.24,-1.42,0.82,1.14
39497,15.26,14.86,14.67,14.84,14.91,-21.00,-843.75,595.70,0.88,-0.99,1.38
39528,15.28,14.86,14.67,14.84,14.91,-52.25,-847.66,585.45,-0.97,0.65,1.20
39559,15.28,14.86,14.67,14.84,14.91,-3.91,-842.29,603.03,3.45,-3.21,0.63
39590,15.27,14.86,14.67,14.84,14.91,-15.63,-833.01,604.98,3.74,-2.76,-2.23
39621,15.27,14.86,14.67,14.85,14.91,-29.79,-811.04,613.28,1.78,0.40,-1.27
39652,15.25,14.86,14.67,14.85,14.91,-25.88,-831.54,610.35,0.50,-0.89,-3.02
39683,15.24,14.86,14.67,14.85,14.90,-15.63,-803.71,625.98,3.60,0.31,-0.39
39714,15.25,14.85,14.67,14.84,14.90,-26.37,-832.52,610.35,-2.54,1.59,0.87
39745,15.24,14.86,14.67,14.84,14.90,-41.02,-841.31,603.52,-1.11,2.04,-2.89
39776,15.24,14.86,14.66,14.83,14.90,-19.04,-836.91,607.42,3.27,3.27,0.11
39807,15.25,14.85,14.66,14.82,14.90,-14.65,-799.32,627.93,-2.47,1.89,2.26
39838,15.25,14.85,14.66,14.81,14.89,-34.18,-833.50,600.10,0.18,4.26,-2.67
39869,15.24,14.85,14.66,14.80,14.89,-20.02,-835.45,601.07,-3.11,-0.08,-0.47
39900,15.25,14.85,14.66,14.79,14.89,-41.02,-830.57,593.75,3.95,4.29,-0.86
39930,15.24,14.85,14.66,14.79,14.88,-13.18,-815.92,627.44,2.78,-1.54,-3.24
39961,15.25,14.85,14.66,14.78,14.88,-35.64,-812.01,586.43,-4.42,1.85,0.31
39991,15.24,14.85,14.66,14.78,14.88,-6.84,-818.36,614.75,-1.92,2.15,-0.55
40021,15.23,14.85,14.66,14.79,14.88,-18.07,-823.73,638.67,0.20,1.97,0.66
40052,15.19,14.85,14.66,14.79,14.87,-12.21,-827.15,601.56,-4.02,0.53,-1.05
40082,15.17,14.85,14.66,14.80,14.87,-55.18,-845.70,579.10,-2.11,-2.43,-1.14
40112,15.16,14.85,14.66,14.80,14.87,-7.81,-795.41,614.26,0.80,0.39,-0.69
40146,15.16,14.85,14.66,14.81,14.87,-42.97,-829.10,584.96,0.50,4.60,1.60
40177,15.15,14.85,14.67,14.83,14.88,-37.11,-834.47,606.45,4.04,-0.83,-0.26
40208,15.15,14.85,14.67,14.85,14.88,-24.41,-839.36,589.84,1.96,-1.91,-0.77
40238,15.16,14.86,14.67,14.86,14.89,-37.11,-833.50,591.80,2.76,-1.37,-0.54
40269,15.14,14.86,14.68,14.87,14.89,-41.99,-811.52,615.23,0.49,-0.57,-1.11
40300,15.12,14.86,14.68,14.88,14.88,-5.37,-810.55,620.61,0.18,-0.24,-3.14
40330,15.09,14.86,14.68,14.88,14.88,-25.88,-824.22,609.37,-3.18,0.21,-2.51
40363,15.04,14.86,14.68,14.87,14.86,-15.63,-802.73,609.37,-5.66,1.40,0.18
40394,15.01,14.86,14.68,14.88,14.86,-22.95,-822.75,607.91,-2.11,1.56,-1.01
40425,15.01,14.86,14.68,14.89,14.86,-28.32,-824.22,601.56,3.84,-0.76,-0.32
40456,15.01,14.86,14.68,14.90,14.86,-22.95,-825.68,607.42,2.18,-1.86,0.34
40487,14.98,14.86,14.68,14.92,14.86,-28.81,-827.64,605.47,3.93,-8.05,-4.32
40518,14.93,14.86,14.69,14.92,14.85,-15.63,-826.17,635.74,3.15,-3.37,-3.21
40549,14.90,14.85,14.69,14.91,14.84,7.81,-813.96,646.00,3.46,-1.09,-0.97
40580,14.90,14.85,14.68,14.91,14.84,-18.55,-820.80,618.16,-3.59,4.57,2.62
40611,14.91,14.85,14.68,14.91,14.84,-18.07,-838.38,615.23,1.08,0.35,0.26
40642,14.91,14.85,14.68,14.90,14.84,-13.18,-827.15,621.09,1.05,1.58,0.21
40673,14.94,14.86,14.68,14.89,14.84,0.98,-801.27,621.58,2.05,2.00,-0.06
40703,14.96,14.85,14.68,14.88,14.84,-32.23,-837.40,605.96,-1.02,0.22,1.77
40735,14.97,14.85,14.68,14.88,14.84,-24.41,-806.64,625.98,0.98,1.21,-2.69
40765,14.97,14.85,14.68,14.87,14.84,-7.81,-819.82,623.05,-0.45,-0.49,0.51
40796,14.99,14.85,14.68,14.87,14.85,-16.60,-818.36,611.82,-0.40,-0.56,2.27
40827,15.01,14.85,14.68,14.87,14.85,-20.02,-822.27,610.35,0.14,-2.91,0.05
40859,15.02,14.85,14.67,14.86,14.85,-31.25,-812.01,609.37,1.58,1.14,0.55
40889,15.03,14.85,14.67,14.85,14.85,-12.21,-821.78,622.07,0.50,-0.28,1.33
40920,15.05,14.85,14.67,14.84,14.85,-39.06,-826.66,610.35,-2.67,3.90,-0.58
40951,15.06,14.85,14.67,14.84,14.86,-30.76,-827.15,609.86,0.01,4.11,0.05
40982,15.07,14.85,14.67,14.83,14.85,-13.18,-810.55,625.00,-0.73,0.18,0.17
41013,15.07,14.85,14.67,14.83,14.85,-22.46,-813.48,620.61,-2.22,-0.98,0.63
41044,15.08,14.85,14.67,14.82,14.86,-29.30,-829.59,613.28,-0.02,2.04,-2.01
41075,15.08,14.85,14.67,14.82,14.86,-30.76,-833.50,610.35,-0.07,-2.31,-1.50
41106,15.08,14.85,14.67,14.82,14.86,-14.16,-814.94,616.21,1.02,-0.25,2.64
41137,15.09,14.85,14.67,14.82,14.86,-21.00,-809.08,616.70,-0.27,-0.30,-1.01
41168,15.10,14.85,14.67,14.82,14.86,-28.32,-828.61,614.26,-1.61,-1.54,-0.71
41199,15.10,14.85,14.67,14.82,14.86,-11.72,-822.27,613.28,0.82,-0.85,-2.44
41230,15.10,14.85,14.66,14.82,14.86,-19.53,-815.92,620.12,-1.79,-0.32,-2.27
41261,15.11,14.85,14.66,14.82,14.86,-24.41,-814.94,607.42,-0.61,1.12,-3.02
41292,15.11,14.85,14.67,14.82,14.86,-28.32,-824.71,613.77,0.03,3.34,0.16
41323,15.12,14.85,14.67,14.82,14.86,-17.58,-820.31,619.63,-0.59,3.72,-3.56
41354,15.12,14.85,14.66,14.82,14.86,-35.64,-821.29,619.14,-0.38,0.98,1.26
41385,15.12,14.85,14.67,14.82,14.86,-24.90,-806.15,625.98,-1.34,-0.94,-0.23
41416,15.12,14.85,14.67,14.83,14.86,-17.09,-821.29,611.33,0.16,-0.60,-1.02
41446,15.11,14.85,14.67,14.83,14.87,-19.53,-812.99,632.32,-1.72,1.28,-0.98
41477,15.11,14.85,14.67,14.83,14.87,-22.95,-822.27,609.86,-1.93,-1.39,-2.15
41508,15.11,14.85,14.67,14.83,14.86,-22.95,-830.57,621.58,0.04,0.41,0.73
41539,15.10,14.85,14.67,14.84,14.86,-18.07,-820.31,617.19,-0.82,-4.71,0.11
41570,15.09,14.85,14.67,14.85,14.86,-23.93,-823.73,628.91,0.47,-1.32,-0.63
41601,15.08,14.85,14.67,14.85,14.86,-14.16,-817.87,621.09,1.30,0.07,0.44
41632,15.07,14.85,14.67,14.86,14.86,-14.16,-810.55,608.40,1.46,-0.49,-1.47
41662,15.07,14.85,14.67,14.86,14.86,-17.58,-822.75,620.12,1.06,-0.76,1.56
41692,15.07,14.85,14.67,14.87,14.87,-31.74,-817.38,623.54,2.24,-0.69,0.50
41723,15.07,14.85,14.67,14.87,14.87,-19.04,-822.27,623.05,1.86,-1.46,-0.96
41753,15.07,14.85,14.67,14.88,14.87,-27.83,-804.20,622.56,2.08,0.21,-0.35
41784,15.08,14.85,14.67,14.87,14.87,-19.53,-819.34,618.16,0.27,-0.12,0.03
41815,15.09,14.85,14.67,14.87,14.87,-19.04,-804.20,622.56,-0.63,-1.18,0.02
41845,15.09,14.85,14.67,14.87,14.87,-26.37,-833.01,609.37,1.92,1.82,-1.81
41876,15.10,14.85,14.67,14.85,14.87,-22.46,-819.82,624.51,-3.80,0.79,0.24
41906,15.12,14.85,14.67,14.84,14.87,-20.02,-810.06,636.72,-3.52,3.66,-0.24
41937,15.13,14.85,14.67,14.84,14.87,-27.83,-833.50,582.03,0.24,0.55,-0.78
41968,15.11,14.85,14.67,14.85,14.87,-4.88,-831.05,619.63,1.96,-3.17,0.13
41998,15.11,14.85,14.67,14.84,14.86,-23.93,-833.01,612.30,4.11,-2.79,1.31
42029,15.14,14.84,14.66,14.81,14.86,-1.46,-804.20,667.97,5.08,-1.18,0.49
42060,15.21,14.84,14.65,14.78,14.87,-25.88,-803.71,654.79,-3.27,6.02,2.13
42091,15.23,14.84,14.65,14.75,14.87,-47.36,-822.27,596.19,-7.27,2.11,2.02
42122,15.24,14.84,14.65,14.73,14.86,-18.07,-835.45,630.86,1.74,-1.27,0.85
42153,15.28,14.84,14.64,14.70,14.87,8.79,-782.23,675.29,-6.43,4.57,1.92
42184,15.32,14.84,14.64,14.69,14.87,-51.27,-831.54,593.75,-8.44,4.29,-1.79
42215,15.32,14.84,14.64,14.68,14.87,12.21,-782.23,652.34,-14.11,1.05,1.53
42246,15.32,14.84,14.64,14.68,14.87,-59.08,-846.68,583.01,-20.97,7.51,0.07
42277,15.32,14.84,14.64,14.68,14.87,-47.85,-862.79,558.11,1.37,-0.36,-3.63
42308,15.35,14.84,14.64,14.69,14.88,-9.77,-840.33,610.84,12.15,-4.40,0.25
42339,15.32,14.84,14.64,14.69,14.87,-26.37,-801.27,622.56,-8.24,0.92,1.31
42369,15.36,14.84,14.64,14.71,14.89,-30.76,-890.62,531.25,16.38,-1.16,-3.22
42400,15.42,14.84,14.64,14.71,14.90,0.98,-790.04,692.38,8.21,-2.63,-2.59
42431,15.39,14.84,14.64,14.72,14.90,-36.13,-834.47,593.26,-7.34,3.69,-3.13
42462,15.46,14.84,14.64,14.73,14.92,-45.41,-819.34,619.14,6.36,-2.05,-1.04
42493,15.47,14.84,14.64,14.72,14.92,-28.81,-818.85,624.02,-2.21,0.71,1.12
42524,15.44,14.84,14.65,14.72,14.91,-14.65,-879.39,547.85,-9.59,4.76,-3.19
42555,15.46,14.85,14.65,14.72,14.92,-44.43,-816.89,610.35,-1.99,1.92,-6.28
42586,15.45,14.85,14.65,14.72,14.91,-34.18,-831.05,605.96,-4.53,4.47,-3.00
42617,15.44,14.85,14.65,14.73,14.92,12.21,-856.93,544.92,5.99,-1.92,-4.46
42648,15.48,14.85,14.65,14.74,14.93,-35.64,-816.41,643.55,-1.89,-4.71,-2.63
42679,15.46,14.85,14.65,14.75,14.93,-27.34,-811.52,621.58,-1.31,-2.21,-0.32
42710,15.45,14.85,14.65,14.77,14.93,-16.11,-845.70,585.94,6.41,1.04,-0.37
42741,15.44,14.85,14.66,14.80,14.94,-36.13,-821.78,611.82,4.11,-8.46,2.12
42772,15.39,14.85,14.66,14.81,14.93,-20.02,-797.85,646.97,1.83,-4.93,-0.08
42803,15.38,14.85,14.66,14.83,14.93,-38.57,-844.24,564.45,4.53,-0.44,-0.62
42834,15.38,14.85,14.66,14.84,14.93,-15.14,-810.06,652.83,2.18,-3.82,-0.47
42865,15.34,14.85,14.66,14.85,14.93,-11.23,-826.17,633.79,-0.65,-4.12,-0.56
42896,15.33,14.85,14.66,14.85,14.92,-11.23,-807.13,627.44,-0.36,3.22,0.95
42927,15.34,14.85,14.66,14.85,14.93,-28.81,-833.01,594.73,0.01,1.11,-3.73
42958,15.34,14.85,14.66,14.86,14.93,-9.28,-816.41,630.37,-2.39,-0.48,-2.05
42988,15.35,14.86,14.66,14.85,14.93,-43.95,-814.45,565.92,-0.77,5.55,-2.27
43019,15.35,14.85,14.67,14.85,14.93,-24.41,-847.66,579.10,-1.01,2.18,-3.66
43050,15.35,14.86,14.66,14.85,14.93,0.00,-821.29,628.91,-0.25,-3.08,0.67
43081,15.34,14.86,14.67,14.85,14.93,-3.91,-816.41,629.39,-3.08,3.12,-1.90
43112,15.34,14.86,14.67,14.84,14.93,20.02,-831.05,614.26,1.35,1.50,-1.91
43143,15.36,14.86,14.66,14.83,14.93,-7.32,-816.89,637.70,-1.30,1.55,-1.59
43174,15.38,14.86,14.66,14.82,14.93,-27.83,-835.45,597.17,2.20,2.69,0.65
43205,15.40,14.85,14.66,14.81,14.93,-17.09,-796.39,637.21,-5.95,7.03,-1.10
43236,15.41,14.86,14.66,14.80,14.93,-15.14,-836.91,614.26,-0.93,-1.49,-1.98
43266,15.43,14.85,14.66,14.79,14.93,-41.02,-820.31,637.21,-3.97,3.86,1.48
43297,15.45,14.85,14.66,14.78,14.93,-33.69,-828.61,613.77,-0.84,-0.02,-2.58
43327,15.47,14.85,14.65,14.77,14.94,-38.09,-828.61,586.43,-1.38,0.55,0.71
43358,15.49,14.85,14.65,14.75,14.93,-12.70,-809.57,619.14,-1.89,-1.08,-1.98
43388,15.53,14.85,14.65,14.74,14.94,-77.64,-850.59,546.39,-0.06,3.42,2.05
43418,15.56,14.84,14.64,14.74,14.94,-12.70,-826.17,623.54,3.82,0.75,4.38
43449,15.60,14.84,14.64,14.74,14.95,-29.79,-826.66,621.58,1.67,-2.69,6.44
43480,15.61,14.84,14.64,14.73,14.95,-4.39,-817.87,641.60,-3.31,2.97,4.22
43510,15.62,14.83,14.64,14.73,14.96,-55.66,-848.63,559.08,-1.29,-1.34,3.34
43541,15.63,14.84,14.64,14.72,14.95,44.43,-807.62,681.64,0.95,-0.68,-2.50
43572,15.65,14.84,14.64,14.71,14.96,-59.57,-812.99,620.12,-0.10,3.03,1.71
43602,15.64,14.83,14.64,14.71,14.95,-27.83,-838.87,582.52,-2.29,-3.70,-1.62
43633,15.67,14.83,14.64,14.71,14.96,-73.24,-812.50,584.96,-2.39,4.00,-1.11
43664,15.66,14.83,14.64,14.69,14.96,21.97,-783.69,687.99,-7.55,3.18,0.05
43694,15.66,14.84,14.64,14.69,14.96,-62.01,-842.77,555.18,-9.15,6.85,-0.71
43725,15.66,14.84,14.64,14.69,14.96,-47.36,-809.57,615.72,16.32,-5.39,-4.27
43756,15.70,14.84,14.64,14.68,14.96,-50.78,-835.45,617.68,1.18,-3.05,0.76
43787,15.70,14.84,14.63,14.67,14.96,-38.57,-820.80,625.49,-8.23,4.17,0.83
43818,15.70,14.84,14.64,14.69,14.97,-81.54,-890.62,538.57,6.22,-0.64,-2.37
43849,15.67,14.84,14.64,14.68,14.96,105.47,-732.91,833.98,10.36,-3.63,2.47
43880,15.70,14.84,14.64,14.68,14.96,-5.37,-815.43,622.07,-9.21,0.69,3.46
43911,15.69,14.84,14.64,14.69,14.96,-58.11,-833.50,582.52,3.44,-0.41,-5.17
43942,15.63,14.84,14.64,14.71,14.95,-5.86,-875.49,561.52,10.38,-8.16,-2.82
43973,15.64,14.84,14.64,14.69,14.95,-42.48,-838.38,607.42,-2.39,-0.11,-1.29
44004,15.62,14.84,14.64,14.67,14.94,-37.11,-832.52,594.73,-9.26,0.48,-0.85
44035,15.59,14.84,14.64,14.68,14.94,-67.87,-842.29,567.38,-3.63,2.48,-2.93
44066,15.57,14.84,14.64,14.68,14.93,51.76,-795.90,684.08,11.67,-5.08,1.34
44097,15.61,14.84,14.64,14.68,14.94,-9.28,-786.62,628.42,0.94,5.30,-0.37
44127,15.63,14.84,14.64,14.68,14.95,-48.83,-861.82,589.36,-3.63,3.08,-3.25
44159,15.61,14.84,14.64,14.70,14.95,-41.99,-876.95,556.64,5.02,-0.27,-3.47
44189,15.59,14.84,14.64,14.70,14.94,-12.70,-791.99,667.48,8.85,0.18,-0.66
44223,15.58,14.84,14.64,14.70,14.94,-36.13,-832.03,608.89,-1.37,-0.14,0.31
44254,15.56,14.84,14.64,14.71,14.94,-36.13,-820.31,618.65,-0.50,-1.46,-1.18
44285,15.54,14.84,14.64,14.72,14.93,-43.95,-829.59,614.75,1.50,-3.07,-2.05
44315,15.51,14.84,14.64,14.73,14.93,-34.18,-841.80,599.61,3.03,-0.23,-1.47
44346,15.48,14.84,14.64,14.73,14.92,-19.53,-809.08,622.07,2.61,-2.95,3.74
44377,15.45,14.84,14.65,14.74,14.92,-26.86,-831.54,614.75,-2.11,-2.63,1.13
44408,15.41,14.84,14.65,14.75,14.91,-14.16,-811.52,625.00,2.08,-2.73,-1.73
44439,15.39,14.84,14.65,14.75,14.91,-22.95,-833.01,588.87,-1.11,2.79,-1.96
44470,15.38,14.84,14.65,14.75,14.90,-27.34,-812.99,600.59,2.09,0.48,-1.66
44501,15.38,14.84,14.65,14.75,14.90,-21.97,-820.80,605.47,0.65,1.11,-1.61
44532,15.39,14.84,14.65,14.76,14.91,-39.06,-827.64,609.86,0.29,0.80,-1.17
44563,15.38,14.84,14.65,14.76,14.91,-30.76,-820.31,609.86,0.13,-1.39,-2.38
44594,15.38,14.84,14.65,14.76,14.91,-21.97,-828.61,607.91,-0.61,0.73,1.65
44625,15.38,14.84,14.65,14.76,14.91,-36.13,-824.71,609.37,0.69,1.99,1.13
44656,15.36,14.84,14.65,14.77,14.90,-38.57,-847.66,587.40,-1.17,-2.85,2.47
44687,15.35,14.84,14.65,14.77,14.90,-18.07,-815.43,621.58,4.21,-1.47,-0.67
44718,15.34,14.84,14.65,14.77,14.90,-35.64,-826.17,602.54,-2.21,-1.52,-0.84
44749,15.32,14.84,14.65,14.78,14.90,-34.18,-837.89,592.77,-0.27,-2.47,0.29
44780,15.29,14.84,14.65,14.78,14.89,-32.23,-812.50,611.82,1.63,-1.72,0.21
44811,15.26,14.84,14.65,14.79,14.88,-23.93,-823.24,618.65,-0.44,-2.25,-0.64
44842,15.22,14.84,14.65,14.80,14.88,-48.83,-836.43,604.49,0.02,1.01,-1.84
44872,15.18,14.84,14.66,14.81,14.87,-19.04,-816.41,618.65,3.01,-4.26,-1.82
44904,15.14,14.84,14.66,14.81,14.86,-1.46,-811.04,632.81,1.37,-3.67,-1.90
44934,15.12,14.84,14.66,14.82,14.86,-28.81,-808.11,607.91,-1.25,-1.86,-0.73
44965,15.11,14.84,14.66,14.82,14.86,-9.77,-798.34,622.07,2.18,-0.08,0.91
44995,15.11,14.84,14.66,14.82,14.86,-29.79,-819.34,604.49,1.01,1.19,-1.37
45026,15.12,14.84,14.66,14.82,14.86,-28.81,-814.45,613.77,-1.11,0.03,0.59
45056,15.14,14.84,14.66,14.83,14.87,-21.48,-814.45,606.93,0.76,-1.52,-0.40
45086,15.15,14.84,14.66,14.83,14.87,-29.30,-813.96,628.91,2.02,-0.82,0.13
45117,15.15,14.84,14.66,14.84,14.87,-27.83,-832.03,626.95,0.34,-0.59,0.96
45148,15.16,14.84,14.66,14.85,14.88,-27.83,-818.85,618.65,1.64,-0.97,-3.80
45178,15.17,14.84,14.67,14.86,14.88,-24.90,-812.01,619.63,1.28,-0.22,-2.60
45209,15.21,14.84,14.67,14.87,14.90,-17.09,-813.48,618.65,-1.21,-1.66,-2.82
45240,15.27,14.85,14.67,14.88,14.92,-21.97,-821.29,623.05,-0.58,5.51,-2.82
45270,15.34,14.85,14.67,14.89,14.94,-14.65,-803.71,629.88,-1.02,3.76,-3.38
45301,15.43,14.85,14.67,14.89,14.96,-30.76,-811.04,624.51,1.80,2.23,-3.37
45332,15.57,14.86,14.68,14.90,15.00,-23.44,-840.33,607.91,2.26,1.18,1.16
45362,15.69,14.86,14.68,14.90,15.03,-34.67,-821.29,614.26,-0.31,2.39,-0.75
45393,15.79,14.86,14.68,14.90,15.06,-15.63,-803.71,622.56,-0.13,4.96,-1.10
45424,15.85,14.86,14.68,14.90,15.07,-11.23,-795.41,641.60,-1.84,4.18,-2.21
45455,15.90,14.86,14.68,14.89,15.08,-29.30,-815.92,619.63,-0.96,-1.57,-1.32
45486,15.91,14.86,14.68,14.88,15.08,-39.06,-806.64,627.44,-2.40,0.56,-0.60
45517,15.94,14.86,14.67,14.87,15.09,-21.00,-818.36,616.70,-3.09,1.89,-0.62
45548,15.98,14.86,14.67,14.86,15.10,-29.79,-814.94,639.65,-1.55,1.45,0.95
45579,16.02,14.86,14.67,14.86,15.10,-34.67,-817.38,623.05,-0.95,2.57,0.14
45610,16.04,14.86,14.67,14.85,15.10,-30.76,-809.57,614.75,-0.55,2.49,0.92
45641,16.05,14.86,14.67,14.85,15.11,-26.37,-826.17,619.63,1.10,-2.65,-1.13
45672,16.07,14.86,14.67,14.86,15.11,-40.53,-831.05,602.54,3.57,-3.53,1.63
45703,16.08,14.86,14.67,14.86,15.11,-36.62,-810.06,618.16,5.70,-6.45,-0.37
45734,16.09,14.85,14.67,14.86,15.12,-15.63,-814.45,642.09,6.70,-5.79,-0.94
45765,16.11,14.86,14.67,14.85,15.12,-20.51,-803.71,631.35,3.05,-1.53,0.79
45796,16.13,14.85,14.67,14.84,15.12,-24.90,-798.83,657.71,0.02,-3.82,-0.23
45826,16.15,14.85,14.66,14.84,15.12,-30.27,-808.11,632.32,-1.35,-1.85,1.48
45858,16.18,14.85,14.66,14.83,15.13,-28.81,-813.48,626.46,2.77,-0.37,-1.02
45888,16.22,14.85,14.66,14.83,15.14,-33.20,-800.29,632.32,1.39,-3.96,1.89
45919,16.23,14.85,14.66,14.83,15.14,-10.25,-791.99,632.81,3.98,-5.31,-1.32
45950,16.22,14.85,14.66,14.84,15.14,-15.63,-824.22,635.25,2.96,-5.62,-0.13
45981,16.21,14.85,14.66,14.84,15.14,-35.64,-813.48,611.33,3.45,-4.98,1.91
46012,16.20,14.84,14.66,14.85,15.14,-5.37,-773.44,677.73,7.76,-4.81,2.47
46043,16.17,14.84,14.66,14.86,15.13,-12.21,-792.97,625.49,3.53,-5.85,2.29
46074,16.12,14.84,14.66,14.87,15.12,-19.04,-787.60,656.25,3.43,-5.01,2.91
46105,16.09,14.84,14.66,14.87,15.11,-14.16,-786.13,654.30,1.86,-1.86,0.65
46136,16.06,14.84,14.66,14.87,15.11,-18.07,-797.85,647.95,-0.12,1.68,0.83
46167,15.98,14.83,14.66,14.85,15.08,-16.11,-788.09,655.27,-4.99,1.06,-0.26
46198,15.84,14.83,14.66,14.83,15.04,-8.30,-793.95,646.00,-9.53,1.67,0.74
46229,15.66,14.83,14.65,14.79,14.98,-10.25,-787.11,661.13,-14.05,-0.02,0.43
46260,15.41,14.82,14.65,14.73,14.90,-1.95,-784.67,680.66,-28.42,5.11,-0.12
46291,15.10,14.81,14.64,14.68,14.81,-24.41,-816.41,601.56,-50.70,7.27,7.23
46322,14.90,14.80,14.63,14.67,14.75,-89.36,-1144.53,471.68,-89.20,5.91,67.82
46353,14.82,14.79,14.63,14.67,14.73,203.61,-1589.84,89.36,2.34,-11.85,142.63
46384,14.77,14.79,14.63,14.66,14.71,-423.83,-1086.43,369.63,17.21,-48.48,173.84
46415,14.75,14.79,14.63,14.66,14.71,-208.50,-1364.26,4.39,25.16,-112.93,195.73
46445,14.71,14.79,14.63,14.66,14.70,-258.79,-1218.26,258.79,36.05,-189.54,232.21
46476,14.64,14.80,14.63,14.66,14.68,-167.97,-1067.38,205.57,63.33,-250.14,250.13
46507,14.63,14.80,14.63,14.66,14.68,-32.23,-583.50,234.86,-39.90,-250.14,231.68
46538,14.62,14.80,14.63,14.66,14.68,-47.36,-1212.89,450.68,-61.97,-250.14,189.66
46569,14.62,14.80,14.63,14.66,14.68,130.86,-828.61,602.54,-54.37,-250.14,176.57
46600,14.62,14.80,14.63,14.66,14.67,-63.48,-1035.16,659.18,-21.88,-250.14,116.98
46630,14.62,14.80,14.62,14.66,14.67,-38.09,-972.17,425.78,6.66,-217.94,78.24
46660,14.61,14.80,14.63,14.66,14.67,-186.04,-969.24,230.47,12.27,-189.69,70.27
46691,14.62,14.80,14.63,14.66,14.67,-168.46,-825.68,105.96,-21.56,-180.47,88.66
46721,14.61,14.79,14.63,14.66,14.67,-127.93,-727.05,64.45,-41.63,-164.68,109.10
46752,14.61,14.79,14.63,14.66,14.67,-152.34,-617.19,94.73,-55.42,-149.21,95.80
46782,14.61,14.79,14.62,14.66,14.67,-223.63,-752.93,155.76,-48.76,-144.50,66.21
46813,14.61,14.79,14.62,14.66,14.67,-73.24,-910.64,167.48,-73.55,-109.12,127.05
46844,14.61,14.79,14.62,14.66,14.67,-128.91,-1153.32,242.68,-63.73,-79.71,202.21
46874,14.60,14.79,14.63,14.66,14.67,-39.06,-1030.27,268.55,-49.65,-73.54,203.79
46905,14.60,14.79,14.63,14.66,14.67,14.65,-1240.72,323.24,-52.46,-68.01,160.49
46936,14.59,14.79,14.62,14.66,14.67,212.89,-1342.29,526.86,-68.93,-55.04,133.26
46966,14.59,14.79,14.63,14.66,14.67,479.49,-1582.52,681.15,-93.56,-11.25,171.14
46997,14.59,14.79,14.63,14.66,14.67,563.48,-1353.52,664.06,-46.89,9.24,171.73
47028,14.59,14.79,14.63,14.66,14.67,686.52,-1125.98,604.00,-70.85,17.47,102.13
47059,14.59,14.79,14.62,14.65,14.67,1059.57,-422.85,1101.07,-20.27,-15.44,-9.02
47090,14.61,14.80,14.62,14.66,14.67,1021.97,-698.73,974.61,72.01,-68.43,-19.90
47121,14.65,14.80,14.62,14.66,14.68,1025.88,-699.22,850.10,34.06,-114.36,-75.15
47152,14.76,14.80,14.63,14.66,14.71,4.39,-964.84,432.13,21.11,-90.14,-75.69
47183,14.99,14.81,14.62,14.66,14.77,-382.32,-672.85,744.14,12.59,-43.49,-106.01
47214,15.38,14.84,14.62,14.66,14.88,434.57,-1456.05,796.87,157.12,-9.57,-131.90
47245,15.84,14.86,14.63,14.67,15.00,-399.90,-1051.27,-46.39,82.51,-58.53,-5.37
47276,16.03,14.86,14.63,14.68,15.05,7.81,-893.07,606.45,76.16,-30.93,-10.53
47307,16.13,14.86,14.64,14.70,15.08,-10.74,-936.04,446.78,46.74,-13.15,-3.46
47338,16.26,14.86,14.64,14.71,15.12,-14.16,-817.87,659.18,31.06,-9.14,0.93
47369,16.34,14.86,14.64,14.72,15.14,-47.85,-839.36,593.26,13.53,-1.89,-2.11
47399,16.37,14.86,14.64,14.73,15.15,-28.32,-863.28,563.96,11.71,2.66,-1.17
47430,16.35,14.86,14.65,14.76,15.16,-29.79,-839.36,556.64,17.93,-3.85,-0.50
47461,16.29,14.86,14.65,14.79,15.15,-30.76,-802.25,624.51,16.27,-6.05,-1.21
47492,16.21,14.85,14.66,14.82,15.14,-27.83,-817.87,622.07,4.95,0.40,0.88
47523,16.15,14.85,14.66,14.84,15.13,-13.18,-829.59,599.61,2.73,-0.54,-0.93
47554,16.12,14.85,14.67,14.86,15.13,-21.48,-817.87,617.68,5.47,1.89,-0.60
47585,16.08,14.86,14.67,14.88,15.12,-17.09,-801.76,629.39,1.93,0.46,-2.20
47616,16.04,14.86,14.67,14.89,15.11,-17.58,-808.11,629.39,-1.33,1.38,-1.71
47647,16.01,14.86,14.68,14.90,15.11,-29.30,-827.15,610.84,-2.36,0.27,-3.53
47678,15.97,14.87,14.68,14.91,15.11,-39.55,-836.43,597.17,1.53,2.07,-2.05
47709,15.91,14.87,14.68,14.93,15.10,-17.09,-823.24,615.23,3.68,-2.00,-0.78
47740,15.85,14.87,14.69,14.96,15.09,-11.23,-817.87,620.12,3.95,-2.00,0.35
47771,15.78,14.87,14.70,14.99,15.08,-27.34,-809.57,603.52,4.39,-1.53,-0.76
47802,15.66,14.88,14.70,15.03,15.07,-39.55,-837.89,598.14,6.95,-5.73,-0.24
47833,15.51,14.88,14.71,15.08,15.05,-17.58,-808.11,647.95,13.22,-2.30,-3.03
47864,15.33,14.87,14.73,15.16,15.02,-31.25,-812.01,634.77,17.72,-11.56,-2.40
47895,15.07,14.87,14.75,15.22,14.98,-35.16,-858.89,592.77,5.52,-14.98,-10.84
47926,14.81,14.86,14.77,15.25,14.92,2.44,-839.84,698.24,-8.27,-13.40,-19.10
47957,14.65,14.85,14.78,15.22,14.87,-21.00,-835.94,643.55,-13.43,-25.66,-24.42
47988,14.61,14.85,14.78,15.10,14.83,-164.55,-1402.34,1114.26,-91.15,1.96,-22.35
48019,14.60,14.84,14.76,14.95,14.79,-347.17,-1416.02,758.79,-73.27,-36.40,-97.66
48050,14.59,14.84,14.72,14.84,14.75,-180.66,-1797.85,646.48,-10.95,-60.90,-164.71
48082,14.59,14.83,14.68,14.78,14.72,24.41,-1772.95,367.68,108.68,-86.98,-207.73
48113,14.58,14.82,14.65,14.71,14.69,82.03,-1730.47,385.74,215.58,-96.69,-196.27
48144,14.58,14.80,14.63,14.68,14.67,-300.78,-1488.77,378.42,250.13,-125.06,-191.08
48175,14.59,14.79,14.63,14.67,14.67,-343.26,-410.16,-137.21,204.73,-186.56,-86.27
48206,14.59,14.79,14.63,14.67,14.67,-219.24,-1022.46,132.81,6.44,-100.33,132.65
48236,14.59,14.79,14.63,14.67,14.67,-365.23,-997.07,160.16,77.69,-139.69,221.27
48266,14.59,14.79,14.63,14.67,14.67,-112.30,-705.57,99.12,86.88,-143.96,227.32
48297,14.59,14.79,14.63,14.66,14.67,26.37,-811.52,140.62,46.15,-97.18,239.82
48327,14.58,14.79,14.63,14.66,14.66,107.42,-1028.32,157.23,33.90,-63.29,246.35
48358,14.58,14.78,14.63,14.66,14.66,137.21,-1239.75,121.09,39.40,-42.50,250.13
48388,14.58,14.79,14.63,14.66,14.66,229.49,-1348.63,90.33,51.88,-40.27,250.13
48419,14.58,14.79,14.63,14.66,14.66,250.00,-1374.51,16.11,23.57,-24.22,250.13
48450,14.58,14.79,14.63,14.66,14.66,183.11,-1442.87,9.28,-4.29,-25.87,250.13
48480,14.58,14.79,14.63,14.66,14.66,159.67,-1430.66,61.04,-39.16,-31.02,234.00
48511,14.58,14.79,14.63,14.66,14.66,259.77,-1392.09,316.89,-79.96,-25.86,208.80
48542,14.58,14.79,14.63,14.66,14.66,474.12,-1439.94,744.14,-109.02,14.04,176.23
48572,14.58,14.79,14.63,14.66,14.66,556.15,-1690.92,879.88,-26.64,59.93,160.21
48603,14.58,14.79,14.63,14.66,14.66,796.39,-1226.56,568.36,6.89,98.71,136.93
48634,14.58,14.79,14.63,14.66,14.66,897.95,-989.26,457.03,-48.40,133.53,98.37
48665,14.58,14.79,14.63,14.66,14.66,783.20,-922.85,688.96,-70.10,116.05,54.14
48696,14.58,14.79,14.63,14.66,14.66,765.62,-846.68,674.32,-25.49,26.62,22.03
48727,14.60,14.79,14.62,14.65,14.67,1026.86,-458.50,485.84,50.97,-131.33,-63.82
48758,14.70,14.79,14.63,14.65,14.69,333.50,-548.34,556.15,-22.78,-166.56,-112.04
48789,14.90,14.79,14.62,14.66,14.74,113.77,-1130.37,487.79,-68.43,-193.36,-120.06
48820,15.21,14.80,14.62,14.66,14.82,292.48,-1470.70,1331.05,37.69,-77.49,-180.00
48851,15.54,14.84,14.63,14.67,14.92,-271.97,-785.64,472.17,175.33,-56.00,-109.12
48882,15.85,14.84,14.65,14.73,15.02,208.01,-587.40,972.66,67.36,19.44,-17.56
48913,16.10,14.84,14.66,14.77,15.09,6.84,-731.45,638.67,13.24,-8.28,-0.59
48944,16.24,14.85,14.66,14.80,15.14,-25.88,-775.88,675.29,12.82,1.81,-1.71
48975,16.27,14.85,14.66,14.81,15.15,-13.67,-781.74,644.53,-2.07,8.47,-2.19
49005,16.21,14.84,14.66,14.82,15.13,-7.81,-803.71,655.27,-4.69,-0.77,0.91
49037,16.12,14.84,14.66,14.82,15.11,-25.88,-809.08,650.88,-3.79,-1.42,0.78
49067,16.02,14.84,14.66,14.84,15.09,-29.79,-809.08,614.26,-1.04,1.95,-0.87
49098,15.93,14.84,14.67,14.86,15.08,-17.09,-804.69,646.00,-0.41,3.39,0.29
49129,15.88,14.85,14.67,14.88,15.07,-20.51,-802.73,622.56,0.60,0.77,-2.18
49160,15.86,14.85,14.68,14.90,15.07,-19.04,-809.57,643.07,0.44,2.09,-0.90
49191,15.79,14.85,14.68,14.94,15.07,-37.60,-814.45,619.63,1.43,-1.19,-1.21
49222,15.68,14.86,14.69,14.97,15.05,-14.65,-775.88,646.00,7.56,-3.61,-1.80
49253,15.61,14.86,14.70,15.00,15.04,-4.88,-778.32,653.81,-0.92,-2.11,-2.88
49284,15.51,14.86,14.70,15.04,15.03,-11.72,-799.32,629.88,0.37,-2.69,-2.15
49315,15.39,14.86,14.71,15.07,15.01,-8.30,-797.85,638.67,-1.75,-4.10,-1.45
49346,15.29,14.86,14.72,15.11,14.99,-13.18,-805.66,645.51,-2.47,-4.15,-0.22
49377,15.19,14.86,14.73,15.14,14.98,-5.37,-805.18,624.02,-2.28,0.11,-4.42
49408,15.11,14.86,14.73,15.19,14.97,-5.37,-805.18,652.83,2.95,-4.70,-3.63
49439,15.02,14.86,14.74,15.24,14.97,-8.30,-828.61,612.79,-0.77,-5.34,-3.69
49470,14.93,14.86,14.76,15.29,14.96,-8.79,-802.25,649.41,-3.33,-7.51,-6.52
