currTime,s1,s2,s3,s4,s,AccX,AccY,AccZ,GyroX,GyroY,GyroZ,GRF
24,785.72,765.31,753.52,752.33,764.22,-39.06,-861.82,545.41,-2.80,-2.80,-0.87,-214.77
55,785.91,765.18,753.52,752.23,764.21,-21.00,-856.93,544.92,-0.46,-1.12,-1.97,-212.85
86,785.88,765.11,753.42,752.19,764.15,-30.76,-869.14,543.95,-0.57,-1.06,0.17,-214.06
118,785.99,764.99,753.50,752.16,764.16,-29.79,-854.98,545.41,-0.17,-1.98,-0.54,-211.24
149,786.09,764.95,753.48,752.25,764.19,-21.00,-860.35,557.62,-0.89,1.66,-0.34,-213.02
180,786.10,764.97,753.47,752.19,764.18,-21.48,-868.65,542.48,0.50,0.93,-0.90,-212.54
212,786.12,764.86,753.42,752.16,764.14,-37.60,-863.77,536.13,-0.64,1.21,-0.67,-212.64
244,786.12,764.92,753.44,752.22,764.18,-44.92,-867.68,548.34,-0.46,-1.18,1.15,-213.41
275,786.20,764.81,753.43,752.12,764.14,-39.55,-866.70,537.11,-0.89,-0.69,-2.26,-211.76
307,786.14,764.82,753.40,752.14,764.12,-18.07,-867.68,535.64,-0.66,0.18,1.23,-212.57
339,786.08,764.80,753.45,752.19,764.13,-34.18,-857.42,543.95,-1.99,-0.71,-1.12,-211.63
370,786.09,764.78,753.45,752.17,764.12,-25.88,-871.09,543.95,-0.79,1.71,1.15,-211.17
402,786.03,764.75,753.45,752.23,764.11,-10.74,-858.40,552.25,-0.75,3.58,2.36,-211.66
434,786.10,764.76,753.41,752.28,764.14,-26.37,-864.26,546.87,0.02,0.48,-0.21,-213.71
466,786.00,764.74,753.45,752.30,764.12,-30.27,-858.40,551.27,-0.26,-0.74,-1.82,-212.65
497,785.92,764.82,753.40,752.35,764.12,-26.86,-860.84,537.60,-1.19,-0.47,0.42,-214.86
529,785.82,764.87,753.45,752.48,764.16,-21.48,-869.63,553.22,-1.85,0.69,-1.42,-215.57
561,785.62,764.94,753.54,752.54,764.16,-21.97,-863.28,551.27,-0.24,0.47,-2.11,-214.02
592,785.39,764.98,753.51,752.66,764.14,-30.27,-868.65,537.11,-1.16,-1.20,0.16,-216.28
624,785.19,765.10,753.52,752.71,764.13,-38.57,-865.72,542.48,-0.63,-2.14,-1.90,-217.02
656,784.95,765.28,753.49,752.88,764.15,-20.51,-871.09,550.29,-0.48,0.38,-0.50,-220.94
688,784.74,765.40,753.54,752.97,764.16,-28.32,-862.79,545.90,-2.37,0.03,0.36,-221.09
719,784.46,765.47,753.52,753.01,764.12,-19.04,-871.09,555.18,-1.11,2.64,0.39,-222.00
751,784.40,765.49,753.53,753.09,764.13,-25.88,-864.26,542.97,-1.21,-1.36,0.31,-222.60
783,784.30,765.68,753.57,753.03,764.15,-42.48,-879.39,547.85,-0.79,0.84,1.14,-222.09
814,784.30,765.78,753.52,753.25,764.21,-20.02,-865.23,553.22,-1.53,0.46,0.96,-227.24
848,784.14,765.72,753.56,753.34,764.19,-23.44,-870.12,522.95,0.53,-0.79,0.89,-226.57
880,784.10,765.88,753.61,753.38,764.24,-34.67,-871.09,546.87,-1.90,-0.53,0.37,-227.11
911,784.00,765.88,753.58,753.37,764.21,-30.76,-866.21,542.48,0.56,-0.95,0.11,-227.26
943,783.93,765.89,753.59,753.44,764.21,-34.18,-876.46,541.50,-2.21,0.72,-1.27,-227.84
975,783.90,766.01,753.60,753.54,764.26,-30.76,-860.35,547.85,-0.27,1.22,-0.23,-230.00
1006,783.84,766.06,753.68,753.56,764.28,-22.46,-867.19,541.02,-2.24,1.73,1.79,-228.61
1038,783.98,766.14,753.57,753.45,764.28,-27.34,-868.65,550.29,1.41,4.11,-1.73,-230.77
1070,783.99,766.14,753.47,753.50,764.28,-23.93,-868.16,540.04,0.49,1.94,2.00,-234.10
1102,784.03,766.15,753.64,753.50,764.33,-32.23,-869.63,548.83,-0.98,3.39,-1.08,-230.07
1133,784.03,766.17,753.61,753.53,764.33,-23.44,-867.68,554.69,-0.31,0.30,-2.18,-231.27
1165,784.01,766.13,753.65,753.52,764.33,-21.97,-870.12,552.25,-0.98,-1.24,-1.20,-229.85
1197,783.97,766.19,753.65,753.46,764.32,-32.71,-863.77,543.46,0.36,-0.69,0.76,-229.23
1228,784.00,766.23,753.64,753.46,764.33,-11.23,-859.37,556.64,-1.95,1.47,0.43,-230.06
1260,784.01,766.23,753.62,753.51,764.34,-19.04,-874.51,542.97,-0.49,0.98,-1.61,-231.30
1292,783.92,766.30,753.66,753.54,764.35,-38.09,-869.14,546.39,-0.14,2.10,0.05,-231.12
1323,783.93,766.31,753.57,753.56,764.34,-19.04,-854.00,543.46,-0.28,-0.57,-1.73,-233.67
1354,783.90,766.31,753.56,753.58,764.34,-31.74,-870.61,550.78,0.21,2.00,2.34,-234.12
1385,783.90,766.35,753.63,753.62,764.38,-19.04,-870.12,543.95,-0.27,-3.35,-1.27,-233.16
1417,783.90,766.37,753.61,753.63,764.38,-29.79,-863.28,550.78,-1.08,-2.86,0.07,-234.13
1448,783.88,766.44,753.63,753.69,764.41,-13.18,-859.86,540.53,-0.52,-0.79,-1.27,-234.80
1479,783.89,766.45,753.65,753.62,764.40,-21.97,-870.12,550.29,-2.42,-0.92,-1.04,-233.48
1511,783.83,766.37,753.62,753.69,764.38,-26.37,-872.56,536.13,-0.89,-1.79,-0.16,-234.32
1542,783.84,766.56,753.60,753.75,764.44,-28.32,-866.21,546.87,0.30,0.60,-1.25,-237.20
1574,783.81,766.54,753.66,753.70,764.43,-39.55,-862.30,542.97,-2.21,-1.79,0.26,-234.84
1605,783.71,766.54,753.68,753.75,764.42,-25.39,-867.68,548.83,-1.59,0.39,-1.12,-234.80
1636,783.66,766.46,753.69,753.73,764.38,-21.48,-861.33,538.57,1.24,-0.80,0.30,-233.34
1668,783.53,766.63,753.67,753.76,764.40,-27.34,-867.68,548.83,0.34,-0.21,-0.79,-235.23
1699,783.51,766.57,753.64,753.79,764.38,-21.48,-868.65,547.85,-1.30,0.27,0.55,-235.95
1733,783.42,766.61,753.66,753.80,764.37,-26.37,-874.51,541.02,-0.53,2.12,0.08,-235.39
1764,783.35,766.65,753.65,753.84,764.37,-34.67,-870.61,547.36,-1.66,-0.08,0.36,-236.47
1796,783.34,766.73,753.63,753.82,764.38,-16.11,-876.95,545.41,1.51,-2.51,-2.42,-237.27
1828,783.40,766.67,753.63,753.89,764.40,-16.60,-858.40,543.95,-0.37,-0.51,0.01,-238.07
1860,783.32,766.72,753.68,753.95,764.42,-14.65,-864.75,538.57,-2.93,0.28,1.39,-237.58
1891,783.22,766.69,753.69,753.91,764.38,-28.32,-875.98,557.62,-0.65,-0.68,0.02,-236.41
1923,783.20,766.71,753.64,753.88,764.36,-27.34,-863.28,539.06,1.15,1.60,0.24,-237.34
1954,783.13,766.71,753.62,753.85,764.33,-35.64,-865.23,549.80,0.16,2.77,-0.88,-237.07
1986,783.10,766.80,753.69,753.97,764.39,-22.46,-864.26,544.92,-0.59,0.32,-0.49,-237.64
2018,783.02,766.82,753.64,753.92,764.35,-24.90,-867.19,548.34,0.41,1.24,0.84,-238.04
2050,782.91,766.95,753.69,753.98,764.38,-32.23,-863.28,550.29,1.19,-0.80,-0.13,-238.35
2081,782.80,766.93,753.75,753.99,764.37,-27.83,-869.14,551.27,-1.51,-0.75,0.02,-236.59
2113,782.72,767.01,753.74,754.04,764.37,-25.88,-863.28,546.87,1.01,0.92,-1.71,-237.83
2145,782.61,767.09,753.79,754.08,764.39,-13.18,-860.35,562.99,-0.68,1.51,1.09,-237.32
2176,782.46,767.17,753.78,754.16,764.39,-41.02,-862.79,554.69,1.20,0.05,-1.61,-239.00
2208,782.47,767.14,753.79,754.12,764.38,-2.93,-874.51,539.55,-0.21,-1.62,-1.50,-238.01
2240,782.30,767.24,753.83,754.21,764.39,-23.93,-870.12,547.85,1.22,-0.69,-0.62,-238.50
2272,782.21,767.21,753.79,754.11,764.33,-25.88,-873.05,550.29,-0.46,2.10,-1.49,-237.64
2303,782.18,767.24,753.78,754.25,764.36,-20.02,-859.86,558.59,0.22,1.51,-0.87,-239.92
2335,782.01,767.35,753.82,754.28,764.37,-12.70,-858.89,551.27,1.51,1.69,-3.52,-239.73
2367,781.87,767.40,753.85,754.35,764.37,-31.74,-868.16,552.73,-0.20,-0.74,-1.66,-240.02
2398,781.81,767.49,753.80,754.38,764.37,-17.58,-862.30,544.92,-1.15,1.11,-1.34,-242.11
2430,781.75,767.46,753.78,754.38,764.34,-21.97,-872.07,558.11,1.80,-0.17,-0.44,-242.22
2462,781.59,767.55,753.97,754.47,764.40,-28.81,-858.40,548.83,-2.47,2.52,2.31,-238.83
2494,781.52,767.59,753.81,754.35,764.32,-28.32,-869.63,543.95,-0.25,0.31,-0.11,-241.17
2525,781.44,767.62,753.78,754.42,764.31,-24.41,-861.82,560.55,-1.29,1.66,0.45,-242.95
2557,781.42,767.71,753.90,754.36,764.35,-15.63,-858.40,553.22,-0.60,-3.33,0.12,-239.92
2589,781.30,767.73,753.84,754.34,764.30,-22.95,-860.35,541.02,0.01,-0.62,0.48,-240.69
2622,781.30,767.72,753.82,754.32,764.29,2.93,-870.61,541.02,-0.54,-3.97,3.12,-241.01
2654,781.32,767.74,753.87,754.25,764.29,-28.81,-862.30,544.43,-0.78,2.60,-1.57,-238.60
2685,781.32,767.68,753.87,754.21,764.27,-21.00,-874.02,546.87,-0.74,-2.67,-0.71,-237.57
2717,781.55,767.64,753.84,754.13,764.29,-18.07,-865.23,545.41,0.86,-2.24,-2.11,-237.80
2749,781.65,767.66,753.82,754.00,764.28,-30.27,-862.30,545.41,-0.30,-0.46,-1.03,-236.90
2781,781.80,767.49,753.78,753.85,764.23,-24.90,-864.75,536.62,-0.55,1.66,-1.40,-234.60
2812,782.03,767.42,753.77,753.71,764.23,-5.86,-863.77,548.83,-1.30,1.89,0.51,-233.16
2843,782.26,767.32,753.75,753.59,764.23,-16.11,-852.05,553.71,-0.13,0.47,-0.68,-231.80
2874,782.58,767.15,753.80,753.40,764.23,-26.86,-868.65,537.60,1.11,1.27,0.20,-227.67
2905,782.84,766.98,753.72,753.29,764.21,-15.14,-863.77,541.50,-1.31,-2.07,-0.89,-227.46
2936,783.13,766.91,753.81,753.16,764.25,-18.07,-874.02,542.97,-0.48,0.87,-0.44,-223.80
2968,783.31,766.78,753.67,752.98,764.19,-18.07,-869.14,549.80,-0.28,-0.14,1.34,-224.19
2999,783.54,766.69,753.74,752.83,764.20,-24.41,-878.91,551.76,0.02,-0.01,-0.66,-220.28
3031,783.78,766.60,753.65,752.76,764.20,-33.20,-883.79,542.97,-1.09,1.24,-1.21,-221.57
3062,784.04,766.43,753.62,752.58,764.17,-22.46,-877.93,530.27,-0.91,1.15,-0.43,-219.23
3094,784.19,766.32,753.65,752.56,764.18,-33.69,-866.21,537.60,-1.05,0.64,-1.67,-217.81
3125,784.43,766.21,753.64,752.38,764.17,-19.04,-862.30,548.34,-0.41,0.06,-0.15,-215.33
3156,784.63,766.16,753.64,752.35,764.20,-27.34,-873.05,551.76,-0.96,-0.05,0.41,-215.36
3188,784.79,766.13,753.64,752.36,764.23,-26.37,-861.33,541.99,-1.36,0.36,1.21,-215.61
3220,784.92,766.06,753.59,752.22,764.20,-26.86,-874.02,548.83,-0.81,0.18,-2.46,-214.73
3252,784.93,766.01,753.57,752.23,764.19,-15.14,-872.56,549.80,-1.21,0.63,0.75,-215.11
3283,785.11,765.97,753.58,752.18,764.21,-24.41,-865.23,549.80,-0.29,0.92,-0.56,-214.47
3315,785.13,765.97,753.49,752.18,764.19,-24.41,-866.70,546.87,0.26,-1.85,0.47,-216.57
3347,785.21,765.88,753.59,752.13,764.20,-20.02,-854.98,543.95,-1.82,-2.13,-3.23,-213.03
3378,785.41,765.74,753.56,751.98,764.17,-23.93,-868.65,546.87,-1.76,-0.14,2.67,-211.16
3410,785.56,765.59,753.55,751.88,764.14,-22.46,-856.93,541.02,-1.02,3.79,0.50,-209.14
3442,785.73,765.46,753.50,751.79,764.12,-27.83,-874.51,555.18,0.02,0.82,-0.81,-208.70
3474,786.05,765.26,753.53,751.70,764.14,-31.74,-877.44,537.60,-0.50,2.00,-0.52,-205.93
3507,786.45,765.00,753.48,751.54,764.12,-28.32,-858.89,556.64,-1.31,-1.76,-1.11,-204.39
3539,786.69,764.86,753.46,751.55,764.14,-16.60,-859.37,538.09,-1.73,-0.13,-0.55,-204.61
3570,786.90,764.73,753.42,751.51,764.14,-27.34,-868.16,536.62,-0.85,1.15,-1.42,-204.68
3602,787.06,764.65,753.45,751.52,764.17,-20.02,-846.68,553.22,-0.12,-2.07,-0.40,-203.83
3634,787.24,764.53,753.45,751.51,764.18,-40.04,-852.05,566.41,-1.55,-0.57,2.36,-203.51
3666,787.15,764.45,753.38,751.54,764.13,-37.11,-857.42,546.39,-1.47,1.34,0.62,-204.69
3697,787.19,764.34,753.47,751.47,764.12,-31.74,-863.28,541.50,-0.50,1.66,0.72,-200.81
3729,787.25,764.31,753.44,751.48,764.12,-37.60,-855.96,539.06,-0.76,0.69,-0.11,-201.53
3761,787.27,764.25,753.39,751.48,764.10,-27.34,-870.61,548.83,-1.85,0.89,-0.01,-202.37
3792,787.22,764.21,753.45,751.51,764.10,-33.69,-871.09,545.90,0.95,-1.51,-2.02,-201.04
3824,787.18,764.17,753.45,751.43,764.06,-19.04,-872.07,553.71,-1.21,-0.50,1.24,-199.20
3856,787.09,764.10,753.36,751.57,764.03,-36.13,-855.47,541.02,-0.75,2.31,1.98,-202.68
3888,787.04,764.07,753.43,751.52,764.02,-26.86,-866.70,551.76,-0.46,-0.52,-1.86,-199.70
3919,787.05,764.12,753.41,751.71,764.07,-18.55,-871.58,539.06,2.19,1.28,0.07,-203.38
3951,786.86,764.06,753.44,751.75,764.03,-40.53,-875.00,554.69,-1.48,-3.40,-1.25,-202.27
3983,786.87,764.05,753.45,751.74,764.03,-22.46,-866.70,563.48,-0.72,-0.36,0.96,-201.83
4014,786.86,764.00,753.43,751.75,764.01,-34.18,-875.49,562.99,1.37,-0.21,-2.01,-201.93
4046,786.69,763.96,753.36,751.81,763.95,-29.79,-869.14,543.95,-0.53,-0.53,-2.43,-203.62
4078,786.56,763.94,753.42,751.82,763.94,-20.02,-868.65,551.27,-2.34,2.88,0.69,-201.72
4110,786.59,763.96,753.39,751.77,763.93,-20.51,-867.68,546.87,0.21,1.08,-1.60,-202.00
4141,786.57,763.84,753.44,751.85,763.93,-21.48,-869.14,555.18,-0.40,-2.21,-3.16,-200.92
4173,786.49,763.85,753.45,751.85,763.91,-27.83,-860.35,555.66,0.11,0.46,-0.73,-200.47
4205,786.32,763.90,753.41,751.88,763.88,-52.25,-875.49,541.02,-0.17,-1.26,-0.01,-201.59
4237,786.21,763.88,753.43,751.88,763.85,-13.67,-868.65,549.32,-1.00,-0.77,-0.43,-200.69
4268,786.18,763.82,753.36,751.93,763.82,-24.90,-862.79,549.80,0.47,-1.14,-1.54,-202.52
4299,786.12,763.89,753.44,751.93,763.85,-19.04,-861.33,551.76,-2.63,-1.06,-0.22,-201.08
4330,785.98,763.92,753.42,752.00,763.83,-22.95,-861.33,552.25,0.91,0.96,-1.70,-202.28
4361,785.91,763.94,753.42,752.04,763.83,-3.91,-855.96,556.64,0.75,-2.98,-0.92,-202.78
4394,785.72,764.07,753.45,752.11,763.84,-44.43,-866.70,538.57,0.16,1.63,1.50,-203.38
4425,785.60,764.09,753.43,752.30,763.85,-31.25,-852.05,541.50,-1.63,0.29,-1.69,-206.49
4457,785.53,764.13,753.44,752.29,763.85,-33.20,-884.77,553.71,0.21,0.79,-1.85,-206.12
4488,785.43,764.25,753.50,752.37,763.89,-22.46,-864.26,546.87,0.70,0.12,0.99,-206.33
4520,785.39,764.29,753.49,752.43,763.90,-11.23,-864.75,556.64,1.53,-0.85,-0.78,-207.73
4551,785.41,764.29,753.41,752.47,763.89,-19.04,-863.28,545.41,-0.72,0.69,1.73,-210.40
4583,785.42,764.31,753.40,752.56,763.92,-27.34,-854.00,556.64,1.73,0.65,-0.68,-212.04
4614,785.36,764.38,753.44,752.49,763.92,-30.76,-861.82,546.87,1.61,0.76,1.33,-210.41
4645,785.53,764.32,753.44,752.64,763.98,-7.81,-856.45,546.87,0.21,0.62,0.11,-212.93
4677,785.56,764.42,753.46,752.61,764.02,-46.39,-858.40,569.34,1.95,-1.02,0.08,-212.72
4709,785.61,764.39,753.51,752.67,764.04,-29.30,-861.33,549.32,-1.84,1.92,-2.13,-212.31
4741,785.63,764.45,753.41,752.70,764.05,-9.28,-860.35,570.31,1.86,0.76,-0.50,-215.76
4772,785.66,764.41,753.44,752.67,764.05,-86.91,-894.53,645.51,11.34,10.65,-1.43,-214.35
4804,785.92,764.58,753.51,752.62,764.16,-62.01,-701.66,594.73,-13.25,11.69,-1.63,-214.39
4836,785.96,764.64,753.45,752.77,764.21,-22.46,-883.79,560.55,0.16,1.07,0.37,-218.61
4867,785.95,764.61,753.44,752.71,764.18,-32.71,-875.98,556.15,-11.70,-1.42,0.50,-217.46
4899,785.90,764.71,753.51,752.81,764.23,-22.46,-853.03,579.59,-0.90,-1.78,0.33,-218.10
4931,785.97,764.72,753.42,752.79,764.23,-51.27,-896.97,553.71,6.98,-6.76,-0.80,-220.23
4963,785.90,764.71,753.48,752.80,764.22,-38.09,-884.28,542.48,-1.02,-0.76,0.73,-218.78
4994,785.93,764.73,753.52,752.83,764.25,-24.41,-880.86,555.18,-2.17,-1.33,0.60,-218.31
5026,785.97,764.71,753.50,752.81,764.25,-24.41,-866.21,549.80,-1.85,1.87,0.30,-218.35
5058,786.01,764.70,753.45,752.81,764.24,-25.39,-866.70,553.71,-3.27,-0.09,-1.02,-219.63
5089,785.97,764.84,753.52,752.82,764.29,-8.30,-864.75,553.22,-0.33,-1.34,0.91,-219.25
5121,785.98,764.75,753.51,752.84,764.27,-32.23,-856.93,553.22,0.02,0.18,0.33,-219.00
5153,785.95,764.69,753.49,752.85,764.24,-45.41,-867.19,545.41,-0.97,-1.86,1.01,-219.12
5185,786.02,764.72,753.50,752.85,764.27,-35.64,-861.33,554.69,-1.51,0.58,0.98,-219.41
5216,786.08,764.69,753.46,752.85,764.27,-18.55,-854.49,531.74,-0.79,2.47,-0.54,-220.27
5248,786.04,764.71,753.52,752.89,764.29,-28.81,-861.82,554.20,-0.05,0.27,-1.59,-219.37
5281,785.98,764.71,753.45,752.94,764.27,-31.74,-863.28,556.64,1.25,0.42,1.09,-221.75
5313,785.90,764.69,753.47,752.86,764.23,-34.18,-870.61,546.39,-0.61,-1.21,-2.65,-219.58
5345,785.93,764.73,753.50,752.84,764.25,-24.90,-854.00,543.46,-0.34,1.12,1.21,-218.85
5377,785.93,764.69,753.49,752.94,764.26,-13.18,-864.75,563.96,0.31,-0.34,3.56,-220.37
5408,785.84,764.60,753.50,752.90,764.21,-28.32,-861.33,555.18,-1.47,1.28,-0.22,-218.35
5440,785.73,764.66,753.52,752.92,764.21,-22.95,-855.47,550.29,2.41,-2.43,1.66,-218.33
5472,785.70,764.74,753.45,752.95,764.21,-21.00,-871.58,557.13,-1.77,-2.01,-1.90,-221.08
5503,785.59,764.76,753.49,752.95,764.19,-28.81,-868.65,551.27,1.37,2.40,-1.15,-219.75
5535,785.58,764.79,753.46,753.01,764.21,-29.79,-864.26,559.57,-1.01,1.56,-1.56,-221.78
5567,785.43,764.65,753.49,753.01,764.14,-34.67,-859.37,541.02,0.70,-0.57,0.71,-219.27
5599,785.39,764.81,753.50,753.04,764.19,-31.25,-866.21,568.85,0.37,-1.58,0.89,-220.72
5630,785.34,764.74,753.45,753.07,764.15,-17.09,-872.56,548.34,2.22,0.15,1.11,-221.66
5662,785.34,764.77,753.55,753.03,764.17,-25.39,-870.12,563.48,-0.37,-1.40,-2.07,-218.74
5694,785.27,764.80,753.48,753.04,764.15,-28.32,-872.56,538.57,-1.12,-0.21,0.34,-220.62
5725,785.26,764.71,753.50,753.10,764.14,-19.53,-857.42,555.66,0.78,0.36,-1.22,-220.22
5757,785.20,764.75,753.45,753.08,764.12,-22.46,-881.84,550.78,-0.27,1.11,1.47,-221.22
5788,785.26,764.82,753.54,753.05,764.17,-23.44,-864.75,553.22,-0.78,2.51,-0.47,-219.48
5819,785.21,764.76,753.54,753.02,764.13,-26.86,-860.84,538.09,1.04,0.10,-1.44,-218.34
5850,785.27,764.80,753.55,753.06,764.17,-21.97,-869.63,544.92,0.89,-0.99,-1.05,-219.09
5881,785.21,764.69,753.47,753.02,764.10,-24.41,-860.35,548.34,-0.60,-0.15,-1.76,-219.49
5912,785.15,764.77,753.48,752.99,764.10,-24.41,-869.63,553.22,-0.73,0.40,-0.29,-219.28
5944,785.06,764.72,753.49,753.00,764.07,-26.37,-859.37,539.55,-0.86,-1.99,-3.16,-218.26
5976,785.04,764.69,753.50,753.07,764.08,-26.37,-848.63,554.20,0.18,0.58,-1.48,-218.83
6007,785.04,764.65,753.47,753.04,764.05,-17.09,-863.28,554.20,-1.62,-2.03,-2.31,-219.10
6038,785.03,764.71,753.52,753.13,764.10,-23.93,-858.40,545.90,-0.47,1.93,-3.46,-219.52
6070,784.98,764.79,753.52,753.20,764.12,-24.90,-862.30,555.18,-1.05,1.41,-0.40,-220.76
6101,784.84,764.83,753.49,753.26,764.11,-33.69,-868.16,549.32,1.60,-0.71,2.79,-222.51
6133,784.73,764.84,753.55,753.34,764.12,-21.48,-863.77,540.04,0.18,0.15,-0.36,-221.82
6166,784.65,764.90,753.57,753.36,764.12,-34.18,-873.05,548.83,1.31,-0.06,-1.56,-221.78
6198,784.50,764.99,753.57,753.37,764.11,-23.93,-869.63,551.76,2.21,-0.10,-1.52,-222.24
6229,784.34,765.13,753.56,753.52,764.14,-34.18,-882.81,538.57,-2.31,-0.17,-0.63,-225.16
6261,784.08,765.22,753.57,753.68,764.14,-17.09,-841.80,549.32,1.44,1.46,1.62,-227.03
6293,783.73,765.42,753.66,753.92,764.18,-6.84,-858.40,535.64,0.75,-1.38,-1.44,-228.88
6325,783.38,765.53,753.61,754.14,764.17,-35.16,-864.75,538.57,0.85,0.12,1.95,-232.84
6356,783.18,765.71,753.71,754.26,764.21,-27.34,-859.86,546.39,1.07,-2.20,3.03,-233.13
6388,782.83,765.75,753.64,754.34,764.14,-39.06,-863.77,548.83,0.02,-0.37,0.45,-235.08
6420,782.85,765.80,753.70,754.37,764.18,-18.55,-868.16,549.80,-1.16,-0.03,-3.11,-234.44
6451,782.73,765.85,753.66,754.39,764.16,-29.79,-862.79,543.46,-1.68,-0.38,-0.38,-235.86
6483,782.66,765.90,753.64,754.24,764.11,-35.16,-868.65,543.46,-1.00,-1.17,-1.11,-234.18
6515,782.63,765.93,753.72,754.27,764.14,-21.00,-860.35,557.62,-0.02,0.02,-3.62,-232.60
6547,782.48,765.99,753.66,754.33,764.11,-18.55,-866.70,554.20,0.75,-2.35,-1.32,-235.16
6578,782.47,766.00,753.64,754.28,764.10,-10.74,-863.28,551.27,-0.66,-3.43,0.24,-234.88
6610,782.47,766.07,753.66,754.36,764.14,-30.76,-873.54,555.18,0.01,0.63,-1.92,-236.32
6642,782.41,766.05,753.69,754.34,764.12,-34.67,-861.33,550.78,-1.11,-0.14,-1.46,-234.79
6674,782.43,766.07,753.75,754.29,764.14,-26.37,-862.79,545.41,-0.63,-0.26,1.39,-232.83
6705,782.29,766.09,753.70,754.33,764.10,-20.51,-868.16,559.57,-0.05,0.56,-0.89,-234.19
6737,782.46,766.16,753.74,754.29,764.16,-21.00,-865.23,557.13,0.11,0.81,0.71,-233.75
6769,782.50,766.14,753.68,754.21,764.13,-35.64,-856.93,557.62,0.27,-1.51,-1.56,-233.99
6800,782.49,766.14,753.64,754.20,764.12,-41.50,-861.33,557.13,-0.09,-1.37,-1.06,-234.91
6832,782.49,766.13,753.69,754.20,764.13,-23.93,-855.96,549.80,-1.88,0.47,-0.30,-233.63
6864,782.47,766.17,753.76,754.14,764.13,-24.90,-864.26,552.25,1.26,-0.52,-0.58,-231.11
6896,782.47,766.07,753.68,754.10,764.08,-16.11,-860.84,552.73,-1.35,2.35,-1.92,-231.82
6927,782.39,766.13,753.69,754.10,764.08,-38.57,-864.26,541.50,0.24,2.77,-0.84,-231.76
6959,782.39,766.12,753.66,753.98,764.04,-19.53,-864.26,543.95,-0.98,0.61,-3.19,-230.76
6991,782.33,766.08,753.72,754.00,764.03,-34.67,-866.21,552.73,0.10,0.21,-1.71,-229.11
7022,782.35,765.92,753.77,753.95,764.00,-31.74,-865.72,548.83,-2.79,-0.87,-0.21,-225.75
7056,782.29,766.04,753.68,753.93,763.98,-21.48,-859.86,552.73,-0.33,-0.55,0.34,-228.34
7087,782.39,765.95,753.70,753.87,763.98,-28.32,-883.30,539.06,0.87,1.79,-1.60,-226.65
7119,782.52,765.86,753.65,753.77,763.95,-29.30,-866.21,565.43,0.33,-0.84,1.92,-226.34
7151,782.57,765.89,753.65,753.79,763.97,-29.30,-856.93,553.71,-0.18,1.42,-3.15,-226.94
7183,782.72,765.83,753.64,753.61,763.95,-21.97,-846.68,550.78,2.23,-1.53,1.16,-224.44
7214,782.92,765.70,753.60,753.65,763.97,-13.18,-860.84,542.97,-0.15,-1.72,0.58,-225.74
7245,783.08,765.63,753.69,753.60,764.00,-32.23,-870.61,540.04,1.90,-0.03,0.30,-222.83
7277,783.74,765.59,753.65,753.49,764.12,-4.88,-876.46,539.06,-0.22,-0.94,0.09,-224.17
7308,784.68,765.46,753.62,753.50,764.31,-27.83,-870.12,536.62,0.41,0.03,2.23,-227.26
7339,785.77,765.46,753.54,753.43,764.55,-16.60,-874.51,551.27,0.79,-1.32,1.00,-232.00
7370,786.79,765.34,753.57,753.43,764.78,-11.72,-887.70,548.34,3.47,-2.29,0.15,-233.77
7401,787.75,765.30,753.63,753.49,765.04,-39.06,-877.44,557.13,3.02,-2.25,0.04,-235.99
7433,788.52,765.21,753.59,753.33,765.16,-23.93,-870.61,552.25,1.40,-2.82,0.23,-236.47
7465,789.11,765.23,753.48,753.24,765.27,-21.48,-875.00,550.78,1.42,-0.29,-2.41,-240.38
7496,789.53,765.07,753.50,753.08,765.30,-34.18,-866.70,552.25,2.45,0.27,-0.92,-237.44
7527,789.78,764.90,753.55,752.96,765.30,-24.41,-863.28,544.92,-1.66,0.80,1.15,-234.05
7559,789.74,764.81,753.52,752.83,765.23,-27.34,-857.91,547.36,0.21,-0.56,0.60,-232.15
7590,789.79,764.70,753.51,752.81,765.20,-24.90,-847.66,555.66,1.17,-0.34,-0.50,-231.20
7622,789.79,764.67,753.48,752.73,765.17,-23.93,-875.49,539.55,1.12,-0.91,0.08,-230.45
7653,789.95,764.54,753.47,752.67,765.16,-13.18,-872.56,518.55,-4.07,3.01,-0.36,-229.58
7685,790.14,764.30,753.50,752.52,765.11,-6.84,-857.91,550.78,0.56,-1.66,0.11,-225.16
7717,790.37,764.19,753.44,752.34,765.08,-16.60,-868.65,571.78,-1.25,-0.57,1.01,-224.06
7748,790.43,763.86,753.40,751.96,764.91,-26.86,-860.35,563.96,1.23,0.56,0.77,-216.86
7780,790.30,763.50,753.42,751.43,764.66,-24.41,-858.89,533.69,-2.44,-1.08,-4.38,-205.31
7812,789.60,763.09,753.34,750.73,764.19,-37.11,-863.28,555.66,0.21,-0.27,2.52,-191.23
7844,787.90,762.50,753.22,750.06,763.42,-5.37,-844.73,592.77,0.59,2.59,-0.01,-173.94
7875,784.62,761.66,753.11,749.21,762.15,-26.37,-872.56,554.20,-9.24,0.26,-0.34,-146.10
7907,778.25,760.51,753.08,747.82,759.91,-78.61,-841.31,537.60,-26.29,4.87,3.26,-95.42
7940,768.05,759.34,752.88,746.77,756.76,-104.00,-855.96,562.99,-44.31,4.60,-0.99,-40.31
7972,756.87,758.38,752.77,745.82,753.46,-62.01,-990.23,454.59,-63.24,9.37,-5.24,16.96
8004,749.36,756.95,752.53,745.05,750.97,-31.74,-1015.62,634.77,-77.21,-3.68,-13.55,59.50
8036,747.58,755.38,752.28,744.46,749.93,-98.14,-1230.96,428.22,-57.08,-3.35,-47.79,80.56
8067,747.34,755.04,752.27,744.54,749.80,-41.02,-1545.41,472.17,-41.92,41.66,-42.31,82.64
8099,746.97,755.08,752.32,744.72,749.77,-240.72,-914.55,501.46,17.95,81.60,-5.57,82.33
8131,746.94,754.86,752.19,744.69,749.67,-454.10,-850.10,550.29,12.04,85.76,-31.27,81.32
8162,746.92,754.78,752.24,744.87,749.70,-541.50,-787.11,553.71,7.02,77.70,-7.66,80.56
8194,746.80,754.73,752.19,744.91,749.66,-522.95,-676.27,487.30,-2.80,57.24,6.13,79.61
8226,746.70,754.65,752.26,745.08,749.67,-552.25,-703.12,487.30,-11.79,48.27,21.68,79.74
8258,746.50,754.48,752.19,745.16,749.58,-470.70,-750.49,503.42,-19.97,46.58,29.08,78.84
8289,746.51,754.43,752.27,745.37,749.65,-416.02,-856.45,498.05,-13.89,53.76,41.21,78.37
8321,746.40,754.30,752.23,745.48,749.60,-384.28,-895.51,452.15,-7.92,63.29,46.00,77.00
8353,746.23,754.08,752.23,745.56,749.53,-387.70,-835.94,398.93,-8.94,56.50,38.81,78.17
8384,746.09,753.84,752.21,745.70,749.46,-362.30,-914.06,372.07,-17.14,35.27,16.94,78.11
8416,745.96,753.61,752.23,745.87,749.42,-284.67,-932.13,408.69,-22.72,19.56,11.95,78.37
8448,745.81,753.41,752.17,745.95,749.33,-167.48,-967.77,434.08,-22.86,5.64,15.98,77.73
8480,745.74,753.20,752.19,746.13,749.32,0.49,-942.87,416.99,-18.11,5.91,20.31,77.55
8511,745.58,753.13,752.25,746.23,749.30,214.84,-933.59,418.95,-11.98,19.63,40.08,78.76
8543,745.60,753.07,752.23,746.36,749.32,314.45,-910.64,404.79,-3.61,44.24,54.56,76.62
8575,745.53,753.17,752.17,746.50,749.34,354.49,-833.98,299.32,15.86,58.65,36.24,72.49
8606,745.51,753.04,752.16,746.65,749.34,368.16,-780.27,267.58,8.20,61.99,-6.94,71.19
8638,746.21,753.21,752.22,746.48,749.53,203.12,-2000.00,1123.54,-77.70,46.19,-51.46,71.53
8670,750.35,753.22,752.14,746.63,750.59,-1382.32,70.80,-756.35,111.43,-179.80,-121.92,53.15
8701,764.08,754.49,752.23,746.87,754.42,-196.29,-400.39,776.86,23.67,-126.46,-144.11,-5.63
8732,783.68,755.77,752.24,746.73,759.60,498.05,-1497.07,746.09,100.44,10.94,-118.66,-80.62
8763,789.29,756.46,752.33,746.59,761.17,-66.41,-854.98,495.12,97.76,-43.07,-51.93,-101.27
8795,801.48,760.21,752.53,747.55,765.45,-23.93,-1195.31,225.10,97.52,-12.87,-17.92,-182.28
8827,818.21,763.50,752.81,750.09,771.15,-9.77,-957.52,345.70,29.82,-14.50,-9.53,-296.34
8859,827.68,765.03,752.91,751.77,774.35,28.81,-865.23,542.48,8.56,-0.29,-3.22,-363.51
8890,832.81,765.98,752.92,752.25,775.99,3.91,-829.59,577.64,2.11,1.44,-1.15,-395.46
8922,835.95,767.12,753.04,752.26,777.09,-21.97,-823.24,566.41,-10.29,6.77,-4.79,-412.82
8953,838.19,768.34,753.02,751.96,777.88,-26.37,-884.28,556.64,-11.84,7.02,-1.70,-426.10
8985,838.89,769.12,753.04,751.60,778.16,-31.74,-882.32,545.90,-1.88,4.51,-2.14,-429.06
9016,838.63,769.61,753.02,751.49,778.19,0.98,-888.18,533.20,-0.44,4.88,-1.37,-430.97
9047,837.86,769.98,752.91,751.01,777.94,-4.39,-873.05,538.09,-1.73,4.54,0.18,-426.84
9079,836.35,770.32,752.92,750.52,777.53,-11.72,-857.91,528.81,1.14,6.56,3.29,-417.02
9110,834.82,770.76,752.89,750.32,777.20,-51.27,-864.75,512.70,3.18,5.92,0.21,-413.13
9142,832.63,771.72,752.84,750.70,776.97,-18.55,-1022.95,468.75,10.96,3.10,-3.29,-420.10
9174,830.30,773.43,752.96,751.62,777.08,-159.18,-751.95,207.52,42.63,-11.11,4.81,-436.41
9206,828.09,775.86,753.07,752.72,777.43,18.55,-915.53,547.36,8.84,6.85,-5.00,-461.81
9237,824.89,779.14,753.18,754.49,777.93,-54.20,-870.61,543.46,7.31,3.27,-5.81,-500.39
9269,819.21,783.47,753.58,758.37,778.66,-55.66,-884.77,509.77,5.21,4.37,-7.36,-562.96
9301,810.72,788.63,754.16,764.15,779.42,-30.76,-870.12,543.46,7.23,-3.58,-8.30,-645.84
9333,800.29,794.58,754.96,770.42,780.06,-28.81,-871.58,544.43,1.74,-3.95,-9.19,-730.02
9364,788.64,800.98,756.08,776.60,780.58,-14.16,-869.63,538.57,-4.63,-1.25,-5.36,-804.54
9396,776.66,807.79,757.39,782.65,781.12,-20.02,-896.97,516.60,-12.96,2.27,-9.36,-874.41
9428,766.40,814.35,758.71,788.21,781.92,-22.95,-852.05,544.92,-23.59,11.93,-8.96,-940.66
9459,757.30,820.19,760.29,793.15,782.73,28.32,-932.13,492.19,-27.81,16.37,-7.79,-989.81
9491,750.24,824.73,762.03,795.87,783.22,-40.04,-949.71,548.34,-68.66,1.29,-17.88,-998.45
9523,747.26,826.02,764.45,794.72,783.11,-130.37,-958.50,484.37,-82.08,-48.64,-34.02,-921.27
9555,746.18,822.17,766.72,789.94,781.25,-81.54,-1247.07,780.76,-85.13,-52.79,-65.85,-759.96
9586,745.59,814.97,768.34,782.58,777.87,-20.51,-1013.67,521.00,-62.93,-69.32,-110.11,-551.53
9618,744.89,805.38,769.29,774.64,773.55,-111.82,-1251.95,577.15,-86.55,-79.69,-150.31,-331.75
9650,744.45,790.45,767.57,766.25,767.18,-232.42,-1522.95,442.87,-137.40,-61.86,-238.55,-129.91
9681,744.16,777.79,761.62,756.82,760.10,153.32,-1701.66,564.94,-160.45,-35.95,-250.14,-36.51
9715,743.94,764.19,755.81,747.04,752.74,338.38,-1262.70,59.08,-250.14,44.77,-250.14,72.36
9747,743.75,755.86,752.26,742.57,748.61,-170.41,-2000.00,189.45,-181.73,125.63,-250.14,117.36
9778,743.35,754.68,752.20,742.39,748.15,-493.16,-2000.00,460.94,-39.70,121.35,-222.18,129.22
9810,743.43,754.22,752.24,742.17,748.01,-729.49,-399.41,-102.54,61.15,145.04,78.65,136.77
9842,743.24,753.86,752.18,742.24,747.88,-820.31,-336.91,43.46,37.38,115.34,186.76,137.81
9873,743.22,753.65,752.17,742.21,747.81,-656.25,-106.45,101.56,5.24,66.44,178.98,139.73
9905,743.26,753.63,752.24,742.20,747.83,-493.65,-488.28,322.75,-45.58,52.98,238.02,141.76
9937,743.19,753.69,752.20,742.36,747.86,-280.76,-897.46,495.61,-25.03,64.09,250.13,138.13
9969,743.14,753.74,752.25,742.38,747.88,-89.84,-1095.70,625.49,11.49,104.40,250.13,138.99
10000,743.13,753.80,752.33,742.44,747.92,-38.09,-1327.64,752.44,19.83,145.76,250.13,139.48
10032,742.95,754.03,752.35,742.40,747.93,22.95,-1723.14,1039.55,-2.70,172.63,250.13,139.32
10064,742.89,754.10,752.34,742.47,747.95,429.69,-2000.00,1231.93,-22.61,174.49,220.01,137.76
10095,742.88,754.09,752.30,742.44,747.93,1222.66,-2000.00,1485.35,-42.59,164.49,168.40,137.32
10127,742.88,753.88,752.40,742.49,747.91,1912.60,-1270.02,1270.51,-38.73,152.05,124.89,140.59
10158,742.88,753.82,752.38,742.25,747.83,1999.94,-138.67,626.46,27.91,204.02,64.40,144.25
10190,743.46,754.06,752.07,742.67,748.06,164.55,-2000.00,-800.29,250.13,-9.83,-103.51,126.39
10221,755.02,754.72,752.14,743.14,751.25,-2000.00,-284.18,-1105.47,34.09,-180.03,-152.63,76.17
10252,796.65,758.33,752.28,742.90,762.54,1653.81,-2000.00,1584.96,-55.97,-144.49,-250.14,-88.49
10283,820.67,763.43,752.64,743.02,769.94,-418.46,-1098.14,136.72,-35.22,11.85,49.08,-204.62
10315,817.48,767.31,753.18,746.77,771.19,-117.19,-933.11,-56.64,-9.92,0.75,-10.05,-266.34
10346,818.65,770.73,754.08,752.08,773.88,111.33,-990.72,478.52,33.49,-24.53,-6.85,-353.75
10378,819.62,773.62,754.89,756.45,776.15,79.10,-875.98,659.67,18.66,-5.03,-0.18,-424.30
10409,816.73,777.28,755.39,758.68,777.02,6.84,-863.77,557.62,-3.00,9.29,-1.46,-464.30
10440,806.83,781.35,755.92,761.84,776.49,-38.57,-983.40,337.40,-5.37,17.91,-2.98,-496.35
10472,796.58,784.58,756.34,766.25,775.94,-29.79,-929.69,433.11,11.25,3.02,-6.04,-541.20
10503,787.92,787.69,757.00,770.69,775.82,-26.37,-910.16,458.98,11.04,2.59,-7.88,-585.36
10535,778.97,792.07,758.01,775.69,776.19,-33.20,-915.53,444.34,7.90,5.90,-10.59,-638.30
10567,770.45,796.31,759.07,780.80,776.66,-25.39,-956.05,410.16,14.89,9.31,-12.13,-691.75
10600,763.69,799.76,760.06,785.80,777.33,-12.70,-932.62,483.40,15.82,4.22,-10.31,-745.32
10632,759.31,801.92,761.07,789.80,778.02,-3.42,-928.71,476.07,16.05,3.63,-12.60,-781.35
10663,755.79,802.96,762.04,793.04,778.46,-39.06,-873.54,483.89,13.95,1.84,-9.96,-800.99
10695,752.92,802.84,762.91,796.20,778.72,22.95,-917.48,483.40,16.90,4.02,-11.19,-815.22
10727,750.85,802.28,763.66,799.30,779.02,24.90,-902.34,483.40,19.28,-3.63,-10.66,-830.36
10759,749.19,802.17,764.41,802.37,779.54,19.04,-873.54,528.32,14.00,-1.24,-9.81,-850.27
10790,747.82,802.95,765.24,805.06,780.27,33.20,-848.14,554.20,3.14,1.04,-5.85,-870.64
10822,746.55,803.74,766.17,806.75,780.80,-14.65,-892.09,558.11,-13.76,-0.56,-6.24,-874.53
10854,745.60,802.77,766.96,806.29,780.41,-75.68,-934.57,568.36,-27.25,-11.03,-13.38,-836.89
10885,745.05,797.95,767.57,802.15,778.18,-43.95,-1091.31,553.22,-14.53,-23.55,-32.73,-720.50
10917,744.79,790.69,767.71,793.90,774.27,26.86,-858.89,610.84,2.31,-33.82,-53.40,-536.22
10949,744.47,781.48,766.85,781.73,768.63,15.14,-1142.09,542.97,-58.41,-22.67,-73.47,-303.63
10981,744.16,770.49,764.42,765.81,761.22,-68.36,-1525.88,393.55,-78.32,-33.52,-139.10,-40.70
11012,743.80,763.76,760.31,755.14,755.75,-12.21,-1612.79,51.27,-73.65,-1.18,-250.14,69.26
11044,743.65,759.96,756.13,746.74,751.62,568.36,-1656.74,224.61,-202.10,109.62,-250.14,119.82
11076,743.45,756.53,753.25,741.17,748.60,204.59,-1816.89,-6.84,-220.83,197.51,-250.14,158.26
11107,743.41,754.63,752.18,739.86,747.52,-341.31,-1420.90,-88.38,-54.48,238.14,-250.14,166.09
11139,743.47,754.01,752.20,739.56,747.31,-298.83,-624.51,83.50,17.89,250.13,-107.76,175.91
11171,743.17,753.63,752.09,739.50,747.10,-860.35,-439.94,62.01,-69.50,227.72,14.03,178.12
11203,743.16,753.41,752.11,739.41,747.02,-756.84,-316.89,229.00,-94.41,81.85,10.37,181.72
11234,743.25,753.41,752.13,739.38,747.04,-666.02,-568.36,435.06,-164.05,-2.40,78.44,182.46
11266,743.25,753.43,752.06,739.32,747.02,-463.38,-851.07,650.88,-170.87,-47.71,164.56,181.34
11298,743.19,753.52,752.13,739.45,747.07,-138.18,-1080.57,870.61,-139.93,-36.99,198.02,180.61
11329,743.17,753.54,752.18,739.46,747.09,44.92,-1292.48,1135.74,-85.85,37.00,195.23,181.60
11361,743.07,753.59,752.11,739.25,747.01,208.50,-1232.42,1324.22,-4.81,104.69,185.89,182.88
11393,743.04,753.48,752.10,739.36,746.99,-86.91,-1365.23,1284.67,39.60,126.16,177.01,182.07
11425,743.03,753.45,752.12,739.41,747.00,3.42,-1191.89,1198.73,66.85,113.01,133.31,182.02
11456,742.93,753.32,752.24,739.46,746.99,-21.48,-1098.14,1111.82,62.47,74.29,71.27,185.82
11490,742.97,752.90,752.09,739.44,746.85,92.29,-913.09,1005.37,25.25,28.61,36.26,185.56
11521,743.02,752.63,752.08,739.41,746.79,196.78,-1071.78,845.21,15.31,-16.85,27.69,187.78
11553,742.99,752.62,752.12,739.38,746.78,367.19,-1054.20,694.82,50.15,-76.79,34.24,189.20
11584,742.98,752.58,752.08,739.36,746.75,596.19,-982.91,435.55,90.92,-124.05,59.21,189.03
11615,742.98,752.62,752.10,739.34,746.76,652.34,-825.20,224.61,109.65,-148.13,72.83,189.48
11647,743.00,752.62,752.18,739.45,746.81,600.10,-701.66,56.64,88.93,-158.95,57.15,189.78
11678,742.93,752.63,752.12,739.47,746.79,563.96,-887.70,78.61,54.69,-164.28,27.81,188.05
11709,742.90,752.71,752.15,739.48,746.81,324.22,-868.16,203.12,54.14,-177.18,-2.48,188.05
11741,742.94,752.75,752.18,739.54,746.85,170.90,-994.14,146.48,69.95,-202.36,-32.78,187.67
11772,742.99,753.76,752.76,741.62,747.78,195.80,-715.33,-156.25,67.08,-224.08,-28.96,163.07
11804,742.97,755.08,754.67,751.53,751.06,990.23,-1375.98,-1352.05,-39.58,-35.21,87.26,54.41
11835,742.86,767.35,756.87,764.26,757.84,46.88,-2000.00,-268.55,249.68,-28.11,123.61,-176.31
11866,750.25,778.46,758.61,770.33,764.41,-59.08,-962.40,1890.14,153.38,-72.27,-17.04,-336.54
11898,757.74,780.87,758.52,770.54,766.92,-354.98,-333.01,693.36,150.65,-9.82,26.47,-387.07
11929,774.30,781.60,758.07,769.45,770.85,139.16,-904.79,566.89,110.47,3.98,-2.12,-444.96
11961,786.48,782.45,757.85,768.90,773.92,1258.30,-1549.32,315.43,-69.52,32.54,-9.80,-490.82
11993,789.12,783.54,757.61,767.84,774.53,-1.46,-799.32,606.45,-10.08,-1.87,-4.53,-499.02
12024,789.23,783.46,757.41,767.26,774.34,-6.35,-808.59,660.16,-19.00,6.18,-2.44,-495.19
12056,787.83,783.22,757.21,766.65,773.73,-63.48,-859.37,605.47,-35.72,9.21,0.31,-484.56
12088,786.53,783.70,757.15,766.02,773.35,-24.41,-852.05,599.12,-14.60,-0.45,-2.91,-476.36
12119,785.61,785.12,757.17,765.30,773.30,-21.97,-858.40,573.24,-17.56,4.46,-2.95,-473.31
12151,785.56,786.99,757.05,764.01,773.40,-17.09,-846.68,567.87,-15.64,0.25,-4.25,-472.31
12183,787.45,788.39,756.70,761.98,773.63,-14.16,-840.82,575.20,-8.05,1.08,-1.76,-468.70
12215,790.99,789.19,756.32,759.56,774.02,-18.07,-831.05,585.45,-5.28,-1.59,1.52,-461.00
12246,795.22,790.58,756.14,758.04,775.00,-24.90,-864.26,556.15,-10.50,0.83,-1.02,-468.89
12278,797.21,792.95,755.93,756.86,775.74,-35.16,-926.27,514.16,-15.38,2.98,-3.50,-482.76
12310,797.32,795.95,755.89,755.80,776.24,-19.53,-854.00,588.38,-25.31,7.09,-0.44,-492.44
12341,795.42,798.83,755.83,755.27,776.34,-11.23,-836.91,559.08,-14.63,2.84,-1.98,-502.82
12375,793.36,802.13,755.95,755.96,776.85,-5.37,-891.11,521.48,-14.84,2.26,-2.31,-529.44
12407,792.87,804.97,756.14,756.86,777.71,-20.02,-880.37,522.95,-9.77,3.77,-2.44,-558.83
12438,790.60,807.31,756.34,757.32,777.89,-24.90,-886.23,516.11,-11.27,0.51,-3.08,-571.67
12470,788.72,809.47,756.37,757.33,777.97,-23.93,-903.32,500.49,-12.93,2.14,-0.34,-581.89
12502,787.28,811.47,756.51,757.68,778.23,-24.90,-897.95,489.26,-11.36,1.63,-1.50,-594.83
12533,785.35,813.30,756.58,758.24,778.37,-26.37,-899.41,490.23,-9.85,4.53,-4.21,-609.14
12565,782.22,815.39,756.77,758.82,778.30,-22.46,-887.70,498.54,-12.14,5.25,-1.87,-619.21
12597,779.48,817.10,756.99,759.56,778.29,-14.65,-903.32,483.40,-7.35,2.49,-0.12,-628.86
12629,777.64,818.08,757.18,760.66,778.39,-14.16,-905.76,491.21,-1.21,1.73,-1.10,-641.85
12660,776.69,818.25,757.28,761.73,778.49,-32.71,-899.41,479.00,1.62,3.44,-1.61,-653.16
12692,776.87,818.18,757.39,762.24,778.67,-29.30,-884.28,504.88,2.53,-0.40,-0.73,-658.04
12724,776.76,817.88,757.35,762.43,778.61,-24.41,-892.09,486.82,2.24,1.18,-1.66,-659.24
12755,776.31,817.45,757.34,762.91,778.50,-26.86,-896.00,503.42,2.08,0.15,1.08,-661.52
12787,775.73,816.59,757.42,763.59,778.33,-7.32,-897.46,498.05,3.13,-0.36,0.37,-660.67
12819,776.04,815.38,757.41,763.69,778.13,-21.48,-891.60,484.86,7.10,1.30,-0.55,-653.46
12850,777.57,814.15,757.25,763.11,778.02,-29.30,-887.70,514.65,7.60,0.56,0.61,-644.55
12882,779.18,812.40,757.11,762.36,777.76,-26.86,-867.19,512.21,4.91,-0.05,0.64,-628.44
12914,779.99,809.90,756.81,761.36,777.02,-35.64,-898.93,512.70,4.64,-4.34,3.13,-603.88
12946,780.40,807.04,756.61,759.79,775.96,-18.55,-881.84,541.50,4.33,-3.93,1.98,-564.18
12977,779.63,803.10,756.09,757.98,774.20,-31.25,-888.67,507.81,-1.60,-5.05,6.54,-516.41
13008,778.48,797.68,755.64,756.08,771.97,-37.60,-904.30,506.35,1.52,-2.30,4.78,-452.08
13040,777.24,792.03,755.19,753.74,769.55,-26.86,-882.81,524.90,0.98,-2.54,6.37,-379.34
13071,774.67,786.65,754.80,751.11,766.81,-27.83,-886.72,515.62,-4.13,0.67,1.07,-298.31
13102,770.53,782.46,754.51,749.42,764.23,-63.96,-889.16,499.02,-5.92,4.73,1.60,-232.65
13133,762.72,779.82,754.30,747.85,761.17,-18.07,-895.51,509.28,-18.89,7.81,-5.24,-167.08
13164,753.89,776.73,754.02,745.89,757.63,-57.62,-909.67,486.33,-48.24,13.20,-3.43,-90.11
13196,747.64,771.85,753.65,743.64,754.19,-97.17,-1334.96,504.39,-48.18,9.90,-5.63,-5.64
13228,745.38,766.07,753.23,741.46,751.53,-154.30,-1215.33,762.70,-73.79,-27.83,-18.13,70.20
13261,744.83,760.61,752.74,739.61,749.45,-40.53,-900.88,423.34,-18.36,-57.22,-36.00,130.88
13292,744.66,757.27,752.43,738.48,748.21,48.83,-998.54,488.28,-3.08,-47.78,-30.53,167.17
13323,744.75,756.05,752.27,738.05,747.78,-71.78,-628.42,435.06,38.72,-36.47,-11.48,179.10
13355,744.73,755.63,752.26,737.99,747.65,-131.35,-874.02,386.72,15.91,-19.10,40.72,183.06
13386,744.63,755.36,752.26,738.03,747.57,-13.67,-701.17,427.25,22.42,2.41,37.61,185.11
13418,744.55,755.09,752.20,738.02,747.47,0.00,-776.37,482.91,10.54,27.77,19.53,186.10
13450,744.48,754.87,752.16,737.91,747.36,21.97,-841.80,565.43,6.15,47.49,10.26,188.78
13481,744.45,754.69,752.21,737.98,747.33,42.97,-906.25,537.11,4.39,54.05,14.46,190.42
13513,744.24,754.55,752.14,738.07,747.25,48.83,-882.81,506.35,8.78,37.27,9.63,189.20
13545,744.25,754.31,752.13,738.01,747.18,41.50,-909.18,517.09,0.60,17.47,3.21,191.92
13576,744.23,754.02,752.13,738.06,747.11,44.92,-883.79,492.19,1.06,-7.56,-4.64,193.47
13608,744.20,753.79,752.12,738.03,747.03,44.43,-864.26,423.34,-0.68,-29.73,-2.05,195.57
13640,744.20,753.60,752.15,738.06,747.00,60.55,-874.51,377.44,-4.82,-36.05,7.99,197.51
13672,744.17,753.53,752.10,738.07,746.97,42.48,-950.20,312.50,-2.30,-40.47,12.69,196.61
13703,744.11,753.55,752.31,738.77,747.19,70.80,-826.17,173.83,4.08,-52.95,0.25,191.76
13735,744.23,754.08,752.24,739.02,747.39,-365.72,-1521.00,312.99,-88.10,22.16,48.48,181.70
13767,745.10,755.01,752.30,739.28,747.92,-888.18,-1325.20,-901.37,94.65,-11.36,15.81,168.71
13798,749.03,756.35,752.45,739.42,749.31,1999.94,-2000.00,964.84,87.67,11.46,5.71,146.14
13830,755.07,757.18,752.39,739.21,750.96,-106.45,-907.23,724.61,32.63,-1.99,1.52,120.51
13862,760.85,757.83,752.36,739.00,752.51,-32.71,-929.20,492.19,26.04,-2.47,-3.27,97.93
13894,767.70,758.84,752.44,738.76,754.44,-37.60,-888.18,516.60,3.36,6.65,-5.35,71.71
13925,777.60,759.82,752.43,738.64,757.12,-61.52,-920.90,461.43,18.74,-3.82,0.79,31.41
13957,789.95,759.95,752.40,738.51,760.20,-41.50,-866.70,548.83,11.49,-1.96,3.45,-10.81
13989,803.80,759.61,752.48,738.47,763.59,-79.59,-897.46,518.07,2.95,-4.73,6.56,-52.93
14021,816.87,759.63,752.52,738.53,766.89,-59.08,-880.37,526.86,-4.46,0.23,1.70,-97.91
14052,830.07,759.93,752.60,738.52,770.28,-78.12,-925.78,479.49,-5.13,0.43,1.21,-143.57
14084,842.11,760.05,752.65,738.55,773.34,-73.24,-881.35,519.53,-7.18,-3.73,0.98,-185.14
14116,851.92,759.71,752.59,738.57,775.70,-64.94,-885.74,510.25,-10.65,-5.89,6.45,-217.78
14149,857.96,759.37,752.57,738.65,777.14,-37.11,-871.09,536.62,-12.44,-3.76,3.83,-237.44
14181,858.99,759.26,752.50,738.62,777.34,-73.24,-901.37,490.23,-12.21,-3.82,3.11,-241.26
14212,857.99,759.32,752.52,738.66,777.12,-90.82,-911.62,479.49,-12.38,-0.34,-1.09,-238.44
14244,856.29,759.52,752.60,738.68,776.77,-42.48,-897.46,498.54,-7.94,1.43,-1.27,-232.69
14276,854.62,759.91,752.54,738.71,776.44,-59.57,-894.04,492.68,-7.68,0.08,-2.87,-231.96
14308,851.33,760.01,752.59,738.80,775.68,-50.78,-903.32,499.02,-4.92,1.94,-3.08,-221.54
14339,847.20,759.89,752.61,738.70,774.60,-49.80,-853.03,513.18,-5.90,1.09,0.85,-204.37
14371,843.49,759.58,752.52,738.73,773.58,-38.57,-902.83,491.21,-5.65,3.09,0.49,-191.78
14403,840.04,759.42,752.52,738.71,772.67,-53.22,-910.16,480.47,-6.25,2.53,-0.44,-178.42
14434,838.42,759.38,752.59,738.66,772.26,-9.77,-897.95,474.12,1.24,-3.67,-1.29,-169.97
14466,836.67,759.24,752.49,738.82,771.80,-63.96,-911.62,458.98,-0.99,-1.96,-4.39,-167.67
14497,835.64,759.54,752.55,738.94,771.67,-62.99,-913.09,479.49,-2.32,1.53,-4.30,-166.93
14528,833.43,759.73,752.56,738.93,771.16,-72.75,-932.62,453.61,-1.34,4.59,-4.37,-160.48
14559,829.05,759.93,752.62,739.14,770.18,-45.41,-884.77,481.45,-2.27,3.47,-3.35,-148.62
14590,826.58,761.03,752.59,739.47,769.91,-10.25,-952.15,365.23,17.34,-0.47,-7.08,-154.50
14621,825.56,761.50,752.70,739.73,769.87,-142.09,-934.08,487.30,8.34,-4.52,-1.33,-156.14
14653,820.65,761.96,752.70,740.05,768.84,-56.15,-807.13,531.74,17.95,16.64,34.45,-147.56
14685,813.95,763.36,752.89,740.49,767.68,10.25,-881.84,328.12,61.92,31.06,29.92,-137.44
14716,811.07,764.20,752.92,740.82,767.25,-17.09,-818.36,580.08,6.66,7.11,-5.21,-138.51
14747,808.69,764.73,752.94,741.08,766.86,-69.34,-893.07,449.22,0.91,5.09,-2.35,-137.91
14779,805.93,766.16,753.18,741.96,766.81,-36.13,-899.41,503.91,-1.83,4.24,-5.34,-146.86
14810,802.69,767.21,753.25,742.26,766.35,-22.95,-881.35,534.67,1.61,2.40,-3.61,-146.83
14842,798.88,767.25,753.16,742.26,765.39,-55.18,-884.28,484.37,-2.92,3.24,-2.49,-136.36
14873,797.05,766.99,753.15,742.03,764.80,-29.79,-885.74,536.62,2.93,1.78,-2.37,-124.92
14905,796.32,766.22,753.11,741.51,764.29,-37.11,-875.98,524.41,-1.02,-0.20,2.56,-109.50
14937,796.30,765.57,753.00,741.21,764.02,-32.71,-887.70,514.16,-0.90,-0.10,0.44,-102.44
14968,797.33,764.83,752.96,740.74,763.96,-17.09,-886.72,528.32,-0.47,0.07,0.15,-94.27
15000,798.08,764.21,752.87,740.40,763.89,-35.64,-879.39,529.30,-2.67,0.89,0.23,-88.91
15034,798.82,763.35,752.70,739.73,763.65,-17.58,-877.93,557.13,-5.04,-0.63,0.40,-79.20
15065,798.92,761.74,752.64,739.45,763.19,-61.52,-895.02,502.93,-14.48,-2.02,6.37,-63.91
15097,798.62,760.15,752.56,739.38,762.67,-41.02,-855.47,527.83,-11.01,-2.53,6.97,-51.07
15129,798.94,758.87,752.46,739.37,762.41,-70.31,-899.90,471.68,-20.27,0.69,7.08,-44.23
15160,798.12,757.86,752.43,739.42,761.96,-29.79,-908.20,510.74,-18.21,-0.50,9.37,-34.73
15192,797.11,757.37,752.29,739.43,761.55,-25.39,-905.76,502.93,-12.12,-1.24,11.03,-31.09
15224,794.76,756.88,752.40,739.47,760.88,-82.03,-886.72,466.80,-21.01,2.46,15.13,-16.84
15256,792.10,756.32,752.35,739.46,760.06,-61.52,-910.16,478.52,-10.54,-0.93,5.31,-4.41
15287,788.86,756.04,752.35,739.45,759.18,-101.07,-902.83,437.01,-4.56,-4.26,-2.04,9.22
15319,785.98,755.76,752.20,739.50,758.36,-22.46,-926.76,492.19,-21.84,4.16,12.30,16.82
15351,780.36,755.20,752.16,739.44,756.79,-72.75,-912.11,482.42,-29.22,7.08,16.22,40.53
15382,774.52,754.90,752.20,739.43,755.26,-128.91,-897.46,399.90,-29.49,10.29,9.27,63.97
15414,770.58,754.75,752.25,739.52,754.28,-100.10,-910.64,420.90,-16.33,5.07,-0.52,78.62
15446,768.40,754.69,752.20,739.54,753.71,-62.50,-982.42,411.62,-19.54,9.53,4.00,85.14
15477,766.43,754.65,752.22,739.53,753.21,-122.07,-932.62,382.81,-10.36,9.31,8.81,92.71
15509,764.56,754.63,752.21,739.60,752.75,-93.75,-905.27,423.83,-16.08,9.82,2.84,98.27
15541,762.42,754.49,752.18,739.58,752.17,-179.20,-903.81,310.06,-11.40,6.19,-5.15,106.10
15573,761.21,754.47,752.14,739.61,751.86,-100.10,-947.27,373.05,-6.76,-0.18,0.26,109.04
15604,760.28,754.46,752.14,739.69,751.64,-88.87,-966.31,383.79,-7.72,-0.02,4.09,111.05
15636,759.01,754.30,752.17,739.62,751.28,-125.49,-917.48,384.28,-6.71,5.82,3.89,118.44
15668,758.05,754.19,752.20,739.59,751.00,-159.18,-910.16,343.26,-0.35,3.93,-8.20,123.96
15699,757.53,754.05,752.18,739.52,750.82,-146.00,-947.75,349.61,11.90,-3.31,-18.21,127.44
15731,756.98,754.01,752.21,739.47,750.67,-72.27,-973.14,411.62,25.22,-4.39,-27.96,130.89
15763,757.07,754.07,752.20,739.47,750.70,-14.65,-946.78,438.96,25.06,-3.31,-17.99,129.91
15795,757.08,754.04,752.16,739.37,750.66,-27.83,-942.87,453.61,0.92,2.31,-3.26,130.77
15826,756.47,753.90,752.20,739.55,750.53,-77.15,-934.57,414.06,-11.31,6.23,2.78,132.22
15858,755.89,753.82,752.23,739.50,750.36,-111.82,-928.71,377.44,-4.85,0.82,-1.69,136.47
15890,755.64,753.89,752.19,739.59,750.33,-108.40,-937.50,386.72,9.48,-1.57,-13.36,134.22
15923,756.03,754.36,752.21,739.61,750.55,-25.88,-961.43,334.96,8.85,-1.62,-4.37,129.43
15954,756.78,754.71,752.23,739.70,750.86,-83.50,-950.20,448.24,5.10,1.84,-2.47,123.20
15985,757.06,755.02,752.23,739.69,751.00,-47.36,-927.25,414.06,0.74,-0.02,-2.34,119.84
16016,757.32,755.15,752.21,739.73,751.10,-67.38,-937.01,409.67,-6.11,5.44,-0.80,116.94
16047,757.30,755.37,752.32,739.73,751.18,-56.15,-927.73,426.27,-5.15,2.35,-3.79,117.87
16078,757.30,755.46,752.29,739.75,751.20,-64.94,-941.89,409.18,-6.53,6.02,-3.76,116.11
16110,757.31,755.45,752.23,739.80,751.20,-62.50,-956.54,373.54,-0.43,-0.84,0.93,113.98
16142,757.36,755.38,752.26,739.86,751.22,-69.34,-929.69,415.04,5.17,-3.63,-0.78,114.37
16173,757.32,755.31,752.25,739.90,751.20,-78.12,-956.54,375.98,5.43,-3.11,2.15,114.19
16204,757.00,755.19,752.27,739.94,751.10,-49.80,-932.62,405.76,9.99,-4.56,-0.84,116.08
16236,756.77,755.11,752.31,739.90,751.02,-47.36,-917.97,431.15,8.21,-5.34,-2.57,119.14
16267,756.32,754.86,752.32,739.94,750.86,-51.27,-925.78,437.50,4.63,-1.90,-1.19,122.21
16299,756.07,754.69,752.28,739.94,750.74,-59.57,-919.43,423.83,-1.09,-0.12,-0.25,123.43
16330,755.57,754.46,752.29,739.89,750.55,-43.95,-907.71,431.64,-0.25,-3.26,1.91,128.06
16362,755.32,754.35,752.23,739.92,750.45,-54.69,-927.25,433.59,-2.35,1.91,0.92,127.85
16394,755.21,754.37,752.23,739.91,750.43,-64.45,-936.52,414.55,-2.19,0.92,-2.43,128.35
16425,754.99,754.32,752.21,739.90,750.35,-63.48,-936.04,415.04,0.15,-0.79,1.89,129.22
16457,754.98,754.42,752.24,740.04,750.42,-54.20,-917.97,419.43,-0.78,0.81,-0.95,126.99
16489,755.07,754.54,752.21,740.07,750.47,-62.99,-922.36,425.29,-1.03,-0.42,-0.85,124.47
16521,754.94,754.61,752.29,740.07,750.48,-51.76,-936.04,420.41,-2.45,1.80,1.18,126.33
16552,754.92,754.58,752.24,740.09,750.46,-53.71,-933.59,418.46,-2.40,0.82,-0.71,125.07
16584,754.75,754.55,752.27,740.06,750.41,-61.52,-923.34,419.43,-3.83,2.77,2.65,127.21
16616,754.54,754.47,752.23,740.10,750.34,-63.96,-924.80,422.36,-4.24,2.79,-3.69,127.00
16647,754.40,754.36,752.30,740.08,750.28,-69.82,-932.13,413.09,-3.03,2.07,-1.69,130.42
16679,754.16,754.23,752.23,740.05,750.17,-53.71,-929.69,416.99,-3.91,2.81,1.61,131.05
16711,753.77,754.11,752.24,740.06,750.05,-56.15,-937.01,411.62,-7.59,-0.39,-1.41,133.18
16743,752.97,753.83,752.16,739.98,749.73,-58.11,-941.41,408.69,-8.54,-0.13,-1.36,137.37
16774,751.93,753.62,752.24,740.05,749.46,-76.17,-946.29,389.16,-10.16,-0.15,-2.45,143.72
16808,750.57,753.35,752.13,740.06,749.03,-63.96,-933.59,408.69,-12.04,-3.54,0.64,147.75
16839,749.36,753.17,752.20,740.06,748.70,-49.32,-928.71,408.69,-17.67,-3.67,0.27,155.07
16871,748.49,752.87,752.21,740.16,748.43,-80.08,-965.82,364.75,-12.50,1.06,0.41,159.08
16903,747.70,752.68,752.14,740.13,748.16,-144.04,-935.55,401.37,-2.95,5.42,1.20,162.19
16935,747.16,752.54,752.19,740.18,748.02,-294.92,-949.71,304.69,-15.53,7.93,25.40,165.53
16966,746.73,752.52,752.15,740.25,747.91,-489.26,-1001.95,268.55,-19.21,7.22,37.99,165.21
16998,746.51,752.52,752.14,740.24,747.85,-464.36,-760.74,287.60,-1.93,3.66,28.40,165.67
17030,746.38,752.53,752.15,740.36,747.85,-444.34,-1095.70,300.78,-27.37,30.68,28.66,164.78
17061,746.25,752.46,752.20,740.35,747.82,-398.44,-941.41,346.68,-16.53,41.74,26.96,167.08
17093,746.14,752.51,752.21,740.31,747.79,-393.55,-854.00,344.24,-30.69,40.66,25.49,168.02
17125,746.11,752.52,752.15,740.34,747.78,-302.25,-845.21,296.39,-24.73,27.57,31.56,165.99
17157,745.99,752.52,752.12,740.40,747.76,-219.24,-911.13,286.13,-18.50,14.63,47.85,164.75
17188,745.92,752.60,752.09,740.44,747.76,51.76,-1010.25,331.05,-15.21,11.15,56.54,162.93
17220,745.78,752.63,752.14,740.48,747.76,125.49,-1114.75,399.90,-8.34,9.85,55.08,163.92
17252,745.60,752.67,752.13,740.58,747.75,-13.18,-1253.91,408.20,-7.10,4.24,33.14,162.58
17283,745.62,752.65,752.13,740.63,747.76,-228.52,-1125.98,323.73,-3.71,-9.89,8.03,161.85
17315,745.57,752.63,752.21,740.52,747.74,-394.53,-930.66,242.19,-16.42,-12.77,6.40,165.86
17347,745.65,752.48,752.11,740.54,747.69,-443.85,-840.82,223.63,-35.06,-1.59,29.31,163.86
17379,745.57,752.51,752.17,740.55,747.70,-403.81,-962.40,254.88,-48.41,15.93,58.20,165.16
17410,745.51,752.46,752.18,740.62,747.69,-371.09,-993.65,287.60,-28.76,22.85,68.15,165.23
17441,745.45,752.37,752.13,740.61,747.64,-437.50,-964.84,267.58,-24.67,27.93,63.89,165.14
17472,745.40,752.43,752.13,740.71,747.67,-585.45,-982.42,218.75,-15.16,19.49,56.58,163.27
17503,745.32,752.38,752.15,740.64,747.62,-572.75,-974.12,192.38,-6.60,8.95,55.09,165.38
17534,745.39,752.37,752.09,740.60,747.61,-503.42,-937.01,156.25,-6.97,4.49,67.71,164.22
17566,745.34,752.31,752.14,740.69,747.62,-542.97,-931.15,145.51,-1.82,1.26,75.43,165.04
17598,745.27,752.38,752.10,740.72,747.62,-476.07,-888.67,117.68,9.91,2.57,74.08,163.32
17629,745.29,752.30,752.14,740.70,747.61,-466.80,-826.66,115.72,-0.97,8.03,64.69,165.00
17660,745.32,752.32,752.09,740.78,747.63,-497.56,-822.75,130.37,0.98,12.54,51.61,162.22
17693,745.35,752.27,752.10,740.83,747.64,-471.68,-808.59,87.40,14.52,6.37,45.78,162.02
17725,745.33,752.31,752.15,740.82,747.65,-443.85,-717.29,88.38,11.88,2.68,44.45,163.17
17756,745.29,752.22,752.14,740.84,747.62,-454.59,-714.84,87.89,3.82,-5.84,34.20,163.66
17788,745.34,752.32,752.13,740.87,747.66,-422.36,-694.82,88.87,-3.18,-7.53,21.95,161.90
17820,745.24,752.22,752.20,740.96,747.66,-381.84,-683.59,110.84,-7.40,-5.69,13.00,163.55
17851,745.22,752.28,752.08,740.98,747.64,-475.10,-598.14,122.56,-8.32,2.09,-1.85,159.81
17883,745.20,752.25,752.17,741.05,747.67,-530.27,-661.62,144.04,-12.53,5.99,-19.27,161.39
17915,745.29,752.24,752.10,741.01,747.66,-579.59,-709.47,144.04,-9.64,6.75,-25.13,160.07
17947,745.19,752.31,752.15,741.03,747.67,-744.14,-762.21,152.34,-7.18,1.37,-27.66,160.73
17978,745.20,752.27,752.17,741.13,747.69,-773.44,-800.78,157.23,-2.67,-7.93,-26.20,159.91
18010,745.20,752.30,752.13,741.15,747.69,-837.89,-808.59,145.02,-5.92,-10.33,-20.52,158.52
18042,745.26,752.21,752.08,741.18,747.68,-800.78,-791.99,131.35,-13.67,-9.52,-11.82,157.30
18073,745.24,752.26,752.16,741.24,747.73,-749.02,-811.04,155.27,-14.26,-2.53,-1.37,157.88
18105,745.18,752.24,752.20,741.21,747.71,-714.36,-829.59,157.71,-6.28,3.02,3.74,160.00
18137,745.21,752.16,752.10,741.14,747.65,-654.79,-797.36,160.16,2.14,9.53,9.84,159.03
18169,745.23,752.25,752.16,741.22,747.72,-641.11,-768.55,118.65,7.72,10.96,15.33,158.52
18200,745.23,752.26,752.10,741.32,747.73,-671.39,-748.05,100.10,6.16,8.95,8.91,155.42
18232,745.24,752.21,752.14,741.30,747.72,-745.61,-717.77,96.19,0.68,-1.21,2.18,157.01
18264,745.22,752.26,752.13,741.29,747.73,-707.52,-795.41,109.86,-4.40,-6.42,0.37,156.49
18295,745.21,752.21,752.07,741.40,747.72,-657.23,-790.04,116.21,-0.76,-6.60,9.53,153.92
18327,745.12,752.12,752.11,741.36,747.68,-603.52,-744.63,111.82,4.86,-5.09,11.06,156.47
18359,745.22,752.20,752.13,741.43,747.75,-563.96,-715.82,101.07,0.24,2.44,7.48,154.97
18390,745.18,752.20,752.10,741.48,747.74,-560.06,-670.90,103.03,-1.53,10.76,1.62,153.62
18422,745.22,752.18,752.11,741.45,747.74,-582.52,-712.89,96.68,-2.63,10.52,-6.59,154.53
18454,745.20,752.21,752.16,741.51,747.77,-649.41,-718.75,126.46,-1.63,4.11,-10.24,154.77
18486,745.19,752.21,752.11,741.53,747.76,-672.36,-764.16,121.58,-2.10,-3.37,-12.76,153.23
18517,745.17,752.23,752.16,741.54,747.77,-708.50,-771.97,131.35,-2.17,-5.99,-9.73,154.28
18549,745.11,752.20,752.17,741.55,747.76,-698.24,-759.77,120.12,-0.44,-7.56,-6.79,154.72
18582,745.20,752.28,752.20,741.57,747.81,-705.57,-766.11,121.09,-0.97,-3.08,-7.29,154.13
18614,745.18,752.19,752.06,741.63,747.77,-694.82,-778.81,129.39,0.56,3.83,-3.38,150.65
18646,745.15,752.17,752.13,741.60,747.76,-714.84,-786.62,125.00,-0.58,2.66,-1.50,153.00
18678,745.18,752.23,752.09,741.78,747.82,-726.07,-784.67,114.26,1.37,0.55,0.85,148.81
18709,745.15,752.17,752.16,741.72,747.80,-678.22,-777.83,113.77,2.56,-2.45,4.52,152.16
18741,745.15,752.10,752.11,741.70,747.77,-648.93,-752.93,100.59,0.40,-0.80,4.57,151.53
18773,745.09,752.13,752.11,741.77,747.77,-620.61,-738.77,100.10,0.37,2.39,3.69,150.57
18804,745.13,752.09,752.18,741.80,747.80,-615.72,-750.49,94.24,-3.63,1.18,-0.93,152.10
18836,745.07,752.14,752.09,741.78,747.77,-630.86,-756.35,113.28,-0.60,5.33,0.81,149.80
18867,745.15,752.19,752.15,741.85,747.84,-650.88,-738.28,114.75,0.05,0.02,-2.38,149.70
18898,745.17,752.19,752.17,741.90,747.86,-648.44,-748.54,103.03,-2.22,1.70,-4.12,149.45
18930,745.18,752.17,752.15,741.88,747.84,-669.43,-777.83,128.42,-1.63,-0.77,-6.65,149.14
18961,745.15,752.20,752.13,741.95,747.86,-677.25,-790.04,123.05,1.16,-3.60,-1.98,147.72
18992,745.08,752.18,752.15,742.05,747.87,-688.48,-759.28,114.26,0.20,1.83,-3.08,147.15
19024,745.10,752.16,752.10,741.94,747.82,-702.15,-762.70,114.26,1.65,1.53,-1.42,147.59
19055,745.13,752.21,752.12,742.04,747.88,-685.06,-777.83,112.79,-2.08,1.27,-2.96,146.07
19086,745.15,752.23,752.12,742.02,747.88,-680.18,-761.23,115.23,-0.09,1.24,3.79,146.24
19118,745.18,752.13,752.06,742.04,747.85,-633.30,-769.04,104.98,0.17,2.07,0.17,145.20
19149,745.12,752.17,752.12,742.03,747.86,-623.05,-759.28,100.10,-2.07,1.63,-3.15,146.67
19181,745.12,752.19,752.10,742.12,747.88,-583.50,-757.81,103.52,-4.16,1.87,-1.56,144.67
19212,745.08,752.15,752.08,742.15,747.86,-577.64,-742.68,111.33,-0.78,3.65,-5.27,144.14
19244,745.08,752.06,752.18,742.19,747.88,-594.73,-733.89,111.33,-3.06,2.86,-10.95,146.72
19275,745.16,752.15,752.12,742.22,747.91,-557.13,-756.35,124.51,-1.85,-0.70,-10.31,144.00
19307,745.07,752.14,752.09,742.22,747.88,-532.23,-747.56,114.26,-0.64,-0.67,-11.20,143.39
19339,745.03,752.17,752.12,742.20,747.88,-623.54,-757.32,116.21,-0.03,-5.24,-18.21,144.37
19371,745.13,752.17,752.15,742.27,747.93,-658.20,-797.85,127.44,-2.34,-7.93,-26.55,143.83
19402,745.09,752.16,752.10,742.28,747.91,-593.75,-815.92,128.42,2.41,-7.39,-12.95,142.73
19434,745.15,752.13,752.18,742.30,747.94,-590.82,-783.20,122.07,5.09,-7.34,-13.21,144.24
19467,744.99,752.18,752.12,742.36,747.91,-677.73,-783.69,124.02,-2.14,-5.24,-32.99,142.20
19499,745.06,752.23,752.14,742.49,747.98,-604.49,-865.72,116.70,0.18,-7.00,-28.38,139.95
19531,745.06,752.20,752.11,742.48,747.96,-544.92,-857.42,132.81,6.06,-9.93,-16.25,139.63
19563,745.05,752.19,752.05,742.46,747.94,-449.71,-840.33,123.05,10.77,-16.83,-20.37,138.55
19594,744.98,752.21,752.12,742.45,747.94,-457.03,-803.22,140.14,12.09,-16.21,-34.05,140.63
19626,745.04,752.28,752.06,742.44,747.95,-428.71,-825.68,167.97,9.89,-20.90,-48.77,138.40
19658,744.99,752.33,752.14,742.50,747.99,-328.61,-869.63,179.69,14.64,-24.90,-51.66,139.36
19689,744.91,752.39,752.09,742.55,747.99,-385.74,-842.29,196.78,15.42,-23.51,-59.53,137.12
19721,744.93,752.35,752.13,742.58,748.00,-364.75,-953.61,216.80,12.21,-24.90,-60.49,138.11
19753,744.94,752.45,752.13,742.68,748.05,-354.00,-917.48,238.77,36.26,-30.79,-60.27,135.43
19785,744.96,752.44,752.10,742.69,748.05,-307.62,-872.07,282.71,20.66,-25.99,-65.78,134.87
19816,744.94,752.46,752.09,742.75,748.06,-360.35,-962.40,295.41,18.51,-25.18,-64.34,133.62
19848,744.91,752.51,752.17,742.78,748.09,-303.22,-983.40,276.37,26.86,-30.35,-55.73,134.82
19880,744.96,752.58,752.15,742.84,748.13,-304.20,-976.07,312.01,34.34,-32.34,-54.18,132.61
19911,744.96,752.57,752.17,742.84,748.14,-303.22,-944.82,290.04,15.88,-26.88,-57.34,133.35
19943,744.96,752.58,752.18,742.85,748.14,-359.86,-1037.60,298.83,9.18,-24.89,-50.31,133.07
19975,744.97,752.54,752.15,742.86,748.13,-334.47,-1086.43,303.71,9.08,-20.83,-31.73,132.48
20007,744.94,752.42,752.10,742.89,748.09,-261.23,-1069.34,318.85,15.86,-21.51,-22.38,132.11
20038,744.99,752.43,752.18,742.89,748.12,-196.29,-955.08,310.55,10.87,-8.00,-15.71,133.98
20070,744.96,752.49,752.13,742.93,748.13,-232.91,-996.58,328.61,6.94,-4.81,-20.44,131.58
20102,744.98,752.32,752.16,742.94,748.10,-187.01,-932.13,347.17,9.41,-6.85,-21.16,133.42
20133,745.01,752.39,752.15,742.92,748.12,-146.48,-925.78,346.68,4.61,-11.39,-17.45,132.81
20165,745.19,752.42,752.13,742.96,748.17,-215.82,-825.68,401.37,31.17,-20.08,-16.30,130.84
20197,745.43,752.28,752.13,742.96,748.20,-248.05,-1044.92,417.97,-1.75,-3.66,-5.51,131.18
20229,745.28,752.22,752.12,742.95,748.14,-197.27,-1003.91,400.88,7.60,7.28,15.46,132.04
20260,745.44,752.17,752.12,742.99,748.18,-272.46,-881.35,337.89,15.46,9.33,17.53,131.33
20291,745.27,752.41,752.11,743.04,748.21,-92.29,-756.84,346.68,1.82,-7.50,-16.80,129.10
20323,745.34,752.48,752.13,743.14,748.28,-147.46,-804.20,333.50,-10.21,-24.99,-48.80,127.24
20355,745.70,752.74,752.23,743.10,748.44,-166.99,-992.68,238.77,14.49,-36.89,-20.21,127.10
20387,745.83,752.86,752.14,743.16,748.50,-5.37,-912.60,485.84,13.56,5.27,-15.24,122.41
20418,745.69,753.11,752.18,743.23,748.55,-78.61,-919.92,397.95,-4.56,5.75,-2.37,120.96
20449,745.69,753.39,752.11,743.29,748.62,-101.56,-991.21,347.66,-5.40,-5.10,-14.67,115.94
20481,745.66,753.70,752.18,743.40,748.73,-16.11,-912.11,425.29,7.02,4.18,-2.85,113.71
20512,745.64,753.60,752.12,743.32,748.67,-45.41,-935.55,430.66,-6.42,2.53,-0.02,114.48
20543,745.67,753.44,752.10,743.32,748.63,-63.96,-952.64,378.91,-1.10,0.59,2.13,114.85
20575,745.54,753.25,752.13,743.32,748.56,35.64,-1012.70,316.41,-4.51,-5.40,4.41,117.74
20606,745.49,753.43,752.15,743.43,748.63,136.23,-1147.95,343.26,-5.21,-11.82,-5.13,115.15
20638,745.42,753.50,752.16,743.57,748.66,57.13,-922.85,433.11,3.14,5.95,0.04,113.08
20669,745.38,753.69,752.17,743.72,748.74,-31.25,-906.74,437.99,3.55,8.60,-8.07,109.86
20701,745.43,753.73,752.04,743.78,748.75,-250.49,-956.05,385.25,4.24,4.92,-4.89,105.32
20733,745.32,753.75,752.18,743.72,748.74,-75.68,-979.49,421.39,-1.71,-7.80,-0.80,109.86
20765,745.23,753.95,752.17,743.87,748.81,79.59,-975.59,430.18,-0.27,-12.47,0.44,106.22
20796,745.15,753.91,752.14,743.85,748.76,11.23,-940.43,388.67,2.36,-4.69,-1.31,106.15
20828,745.25,753.62,752.22,743.99,748.77,97.17,-977.05,397.95,5.79,2.71,3.28,108.16
20860,745.32,753.83,752.16,744.02,748.83,-54.69,-960.94,361.33,2.98,7.21,-8.17,104.25
20891,745.17,753.87,752.15,744.03,748.81,-295.41,-894.04,406.74,0.63,10.74,-5.47,104.10
20923,745.53,753.57,752.17,743.77,748.76,-339.36,-881.84,476.07,12.39,12.01,3.01,109.38
20955,746.62,753.11,752.13,743.59,748.86,-490.23,-856.93,517.58,18.81,4.38,6.82,111.14
20987,747.73,753.38,752.19,743.69,749.25,-65.43,-1037.11,216.31,6.34,-5.91,-9.22,105.08
21018,748.72,753.63,752.24,743.75,749.59,-82.52,-923.34,483.40,5.16,-0.98,-0.13,100.09
21050,748.74,753.57,752.21,743.62,749.54,-53.22,-935.06,411.13,-1.48,-0.84,1.40,101.83
21082,748.92,753.57,752.18,743.68,749.59,-64.45,-910.16,431.15,0.67,1.60,-1.56,99.50
21113,749.32,753.68,752.22,743.62,749.71,-63.48,-937.01,417.97,-0.86,0.87,0.64,99.09
21145,749.61,753.72,752.20,743.69,749.80,-52.25,-926.76,421.87,-2.17,3.10,0.89,96.45
21177,749.72,753.64,752.23,743.58,749.79,-64.45,-923.83,417.48,-5.73,4.40,0.21,98.97
21209,749.77,753.66,752.30,743.58,749.83,-75.68,-923.34,416.99,-4.41,2.29,0.15,100.27
21242,749.84,753.65,752.19,743.60,749.82,-64.94,-932.13,407.71,-0.96,-1.12,-3.73,97.18
21274,749.80,753.63,752.17,743.61,749.80,-64.94,-934.08,413.09,-3.35,3.07,-1.44,96.94
21305,749.99,753.74,752.18,743.67,749.90,-67.38,-932.62,406.25,-0.39,1.07,-3.34,94.66
21337,750.13,753.88,752.24,743.72,749.99,-66.41,-925.29,413.09,1.34,0.03,-3.08,93.73
21369,750.38,754.13,752.21,743.72,750.11,-72.27,-919.92,423.83,1.00,1.74,-1.34,90.35
21401,750.57,754.20,752.24,743.65,750.17,-60.55,-935.06,406.74,-1.05,1.35,-1.94,90.72
21432,750.69,754.17,752.15,743.83,750.21,-69.34,-927.73,423.34,0.48,0.07,-1.09,85.72
21464,750.79,754.22,752.25,743.83,750.27,-59.57,-924.80,414.06,0.27,-1.11,-0.61,87.39
21496,750.79,754.19,752.22,743.81,750.25,-56.64,-930.18,430.18,1.30,0.59,-2.93,87.14
21527,750.99,754.22,752.21,743.80,750.31,-67.87,-926.76,429.69,1.21,0.46,-1.73,86.23
21559,751.08,754.29,752.16,743.80,750.33,-53.22,-925.29,415.04,-0.75,2.47,-1.82,84.12
21591,751.08,754.26,752.19,743.78,750.33,-65.43,-929.69,420.41,-2.15,-1.25,-0.50,85.26
21622,751.12,754.20,752.26,743.85,750.36,-68.36,-946.29,414.55,-0.68,1.63,0.62,86.40
21654,751.26,754.21,752.19,743.86,750.38,-62.50,-945.80,418.95,-1.20,1.08,0.50,83.86
21686,751.30,754.19,752.20,743.87,750.39,-66.41,-955.08,412.11,-0.04,0.42,0.87,84.06
21718,751.43,754.15,752.17,743.82,750.39,-53.22,-922.36,419.92,-1.86,1.79,1.59,84.04
21749,751.36,754.16,752.15,743.82,750.37,-59.57,-924.32,419.92,-0.05,-0.44,2.28,83.44
21780,751.53,754.05,752.17,743.87,750.40,-69.82,-936.04,421.87,0.31,1.37,-1.56,83.60
21812,751.57,754.08,752.20,743.89,750.44,-69.34,-938.48,411.13,-1.30,0.42,-0.80,83.80
21843,751.55,754.11,752.21,743.86,750.44,-69.82,-927.73,432.13,-2.03,-2.78,-0.55,84.21
21874,751.69,754.04,752.15,743.82,750.42,-64.94,-932.62,420.41,0.59,-0.42,-0.48,83.42
21905,751.85,754.03,752.18,743.89,750.49,-60.55,-936.52,414.06,-1.65,4.35,-2.77,82.70
21936,751.95,754.00,752.16,743.91,750.51,-71.29,-940.92,409.18,-0.60,0.69,0.02,81.76
21968,752.09,754.10,752.17,743.99,750.59,-65.92,-944.34,421.39,0.82,-1.34,1.15,79.67
21999,752.14,754.07,752.21,743.93,750.59,-66.41,-924.32,402.83,1.88,0.04,-0.16,81.72
22031,752.09,754.21,752.22,743.99,750.63,-65.43,-925.78,418.95,1.53,-0.06,-3.18,79.88
22062,752.12,754.43,752.24,743.99,750.70,-77.15,-924.80,417.97,1.08,-0.56,-3.78,78.47
22094,752.12,754.59,752.20,744.06,750.74,-70.80,-922.36,434.08,-2.44,0.82,-1.71,75.19
22127,751.99,754.65,752.25,744.05,750.74,-47.36,-922.36,421.87,-4.71,4.84,-0.76,76.63
22158,751.85,754.63,752.25,744.01,750.68,-67.87,-920.41,431.15,-4.02,-0.45,0.18,77.72
22190,751.86,754.58,752.24,744.04,750.68,-62.50,-926.76,422.36,-2.18,-2.24,-0.16,77.72
22222,751.76,754.49,752.16,744.10,750.63,-64.45,-935.06,421.39,-1.53,0.38,0.69,75.69
22254,751.68,754.45,752.30,744.04,750.62,-51.27,-929.69,404.79,-2.01,3.19,-0.38,80.75
22334,751.62,754.56,752.21,744.09,750.62,-71.29,-936.52,415.53,-0.50,1.05,-4.20,77.05
22368,751.59,754.53,752.23,744.15,750.63,-65.92,-920.41,434.08,3.47,0.56,-1.60,77.03
22426,751.56,754.42,752.26,744.15,750.60,-56.64,-928.22,421.39,0.70,1.63,-2.89,78.56
22476,751.61,754.46,752.22,744.18,750.62,-69.82,-921.39,424.32,-1.50,0.38,0.78,76.76
22519,751.48,754.39,752.18,744.14,750.55,-66.41,-930.66,408.20,0.81,0.44,1.17,77.41
22551,751.52,754.43,752.24,744.21,750.60,-60.55,-931.64,414.06,-2.01,-0.07,-2.61,77.47
22583,751.60,754.53,752.23,744.27,750.66,-55.18,-928.22,417.97,0.38,2.79,-0.06,75.14
22614,751.57,754.47,752.17,744.23,750.61,-74.71,-923.34,415.53,-0.54,-0.30,1.00,74.77
22646,751.59,754.46,752.19,744.23,750.62,-57.62,-921.87,421.39,0.92,-0.82,-0.96,75.34
22678,751.60,754.41,752.24,744.27,750.63,-57.13,-928.71,413.57,-0.02,-0.98,0.33,76.44
22710,751.60,754.55,752.21,744.15,750.63,-60.06,-942.38,429.69,-0.63,2.76,-1.30,76.37
22741,751.68,754.44,752.15,744.14,750.60,-72.75,-945.31,421.39,0.37,1.25,-0.32,75.55
22773,751.57,754.50,752.15,744.30,750.63,-63.96,-934.08,424.32,1.48,-2.18,0.83,73.17
22805,751.61,754.44,752.17,744.23,750.61,-66.89,-934.08,415.53,-0.42,-0.36,-0.37,74.97
22836,751.59,754.50,752.17,744.24,750.62,-72.75,-932.13,419.92,-2.77,1.44,-1.05,74.42
22868,751.61,754.49,752.19,744.26,750.64,-57.62,-923.83,404.79,-1.28,0.11,-2.58,74.74
22900,751.55,754.48,752.16,744.31,750.62,-66.89,-936.52,424.32,-1.82,-0.58,1.33,73.41
22932,751.60,754.48,752.20,744.26,750.64,-70.80,-921.39,418.46,2.72,-0.44,-0.15,74.79
22963,751.55,754.50,752.18,744.24,750.62,-62.50,-929.69,422.85,-1.77,1.28,-0.96,74.71
22995,751.55,754.51,752.26,744.32,750.66,-69.82,-922.85,412.11,0.53,0.38,-2.32,75.53
23027,751.59,754.50,752.24,744.31,750.66,-59.57,-928.22,420.41,0.66,-0.34,1.58,75.03
23059,751.73,754.53,752.17,744.33,750.69,-68.36,-928.71,410.16,-0.11,0.95,-0.41,72.27
23090,751.65,754.54,752.24,744.37,750.70,-59.57,-928.22,421.39,-1.31,0.87,0.49,73.72
23122,751.60,754.48,752.17,744.35,750.65,-50.29,-925.78,413.09,-1.68,0.24,-0.20,72.89
23154,751.60,754.47,752.21,744.36,750.66,-63.96,-927.25,419.43,-0.11,-0.01,0.67,73.97
23187,751.60,754.45,752.19,744.46,750.68,-70.80,-934.08,418.46,-1.18,2.18,-1.57,72.09
23220,751.62,754.49,752.23,744.36,750.68,-67.38,-927.73,427.25,-0.15,-0.64,-1.30,74.23
23252,751.70,754.45,752.20,744.41,750.69,-62.99,-921.39,422.36,-1.44,0.30,0.53,72.62
23283,751.63,754.57,752.24,744.36,750.70,-65.92,-936.52,418.46,0.38,0.07,-0.57,73.75
23315,751.70,754.54,752.25,744.42,750.73,-64.45,-935.06,408.69,-1.05,0.98,-2.05,73.02
23347,751.66,754.45,752.17,744.41,750.67,-65.43,-923.34,421.87,-1.48,-2.06,-0.04,72.13
23378,751.71,754.54,752.26,744.49,750.75,-71.29,-932.62,426.76,-2.54,0.76,-0.44,72.20
23409,751.65,754.47,752.26,744.48,750.72,-67.87,-924.80,423.83,0.24,1.47,-1.46,73.06
23440,751.61,754.47,752.25,744.49,750.71,-70.80,-944.34,416.02,1.24,-0.37,-0.13,72.80
23472,751.67,754.57,752.16,744.47,750.72,-61.04,-931.64,410.16,0.47,-1.63,-1.02,69.82
23503,751.63,754.56,752.18,744.38,750.69,-71.78,-932.62,408.20,0.72,0.66,-2.20,71.95
23534,751.70,754.46,752.20,744.52,750.72,-68.36,-933.11,428.22,-0.13,0.85,1.10,71.00
23566,751.75,754.50,752.22,744.44,750.73,-57.62,-941.41,427.25,0.02,0.27,-1.18,72.22
23598,751.64,754.50,752.23,744.51,750.72,-63.96,-940.43,424.32,-0.07,2.36,-2.54,71.63
23629,751.65,754.48,752.18,744.45,750.69,-45.90,-931.64,421.39,-1.08,2.66,0.17,71.62
23661,751.64,754.41,752.18,744.50,750.68,-72.75,-933.59,409.67,-2.06,1.51,1.16,71.46
23692,751.61,754.42,752.26,744.47,750.69,-57.62,-931.15,416.50,2.37,0.18,-0.46,73.82
23724,751.62,754.42,752.14,744.49,750.67,-53.71,-942.38,417.48,-0.95,-1.27,-0.64,70.54
23755,751.56,754.42,752.22,744.50,750.67,-67.38,-936.04,421.87,-0.24,-0.92,0.18,72.47
23787,751.50,754.35,752.23,744.54,750.66,-59.08,-936.52,415.04,-0.53,-0.86,-1.65,73.01
23819,751.65,754.39,752.25,744.58,750.72,-50.78,-929.69,430.66,0.39,-0.66,-1.29,72.04
23850,751.62,754.38,752.23,744.59,750.70,-48.83,-934.57,423.34,0.02,1.43,-0.53,71.50
23882,751.62,754.34,752.18,744.61,750.69,-65.92,-941.89,418.95,-0.70,2.73,0.76,70.43
23914,751.56,754.32,752.17,744.69,750.69,-67.38,-927.25,415.04,-2.41,-0.24,1.40,69.29
23946,751.53,754.32,752.16,744.66,750.67,-69.82,-924.80,411.13,-0.62,0.28,0.56,69.62
23977,751.62,754.38,752.21,744.68,750.72,-68.36,-923.83,424.80,-1.89,0.05,1.95,69.95
24009,751.60,754.37,752.26,744.54,750.70,-65.43,-939.94,427.25,-1.86,0.19,-1.10,73.21
24041,751.59,754.30,752.16,744.67,750.68,-58.11,-926.27,417.97,-0.42,-1.50,0.37,69.36
24074,751.64,754.39,752.16,744.69,750.72,-66.89,-928.71,413.57,-0.83,-1.05,0.93,68.33
24106,751.62,754.40,752.20,744.62,750.71,-73.73,-931.64,416.50,0.52,0.28,1.19,70.12
24138,751.62,754.35,752.21,744.63,750.70,-71.29,-925.29,412.60,-1.30,0.06,0.27,70.70
24170,751.68,754.40,752.22,744.66,750.74,-74.22,-930.66,416.99,0.37,2.22,-0.83,69.83
24201,751.80,754.51,752.22,744.76,750.82,-57.13,-933.59,416.99,1.87,-1.28,-3.35,67.12
24233,751.94,754.55,752.25,744.73,750.87,-74.22,-930.18,413.57,-1.87,-0.14,-2.66,67.70
24265,751.80,754.51,752.23,744.68,750.80,-58.59,-927.73,425.29,-4.87,1.15,-0.08,68.69
24296,751.70,754.47,752.23,744.74,750.79,-73.73,-949.71,403.81,-0.05,2.53,1.37,68.37
24328,751.74,754.52,752.15,744.72,750.78,-65.92,-930.66,406.25,1.66,0.99,-2.13,66.03
24360,751.82,754.61,752.18,744.74,750.84,-69.82,-920.90,413.57,0.24,0.50,-2.93,65.55
24392,751.71,754.54,752.19,744.68,750.78,-63.48,-939.45,418.46,-2.47,2.83,-3.01,67.65
24423,751.82,754.55,752.24,744.73,750.83,-77.64,-933.59,411.62,-0.15,1.27,-0.25,67.88
24455,751.83,754.60,752.19,744.72,750.83,-60.55,-933.59,414.06,1.51,2.98,-1.40,66.23
24487,751.87,754.58,752.32,744.81,750.89,-73.73,-930.18,412.11,-0.42,1.84,-2.08,68.03
24518,751.81,754.52,752.19,744.77,750.82,-62.99,-930.66,418.46,1.39,-0.68,-0.27,66.35
24550,751.80,754.52,752.22,744.78,750.83,-62.01,-931.15,420.41,0.77,1.68,-0.84,66.87
24582,751.78,754.55,752.22,744.73,750.82,-61.52,-925.78,425.29,0.84,-0.47,1.21,67.44
24614,751.77,754.57,752.15,744.77,750.82,-56.64,-935.06,415.53,1.26,3.26,-1.24,64.91
24645,751.77,754.52,752.18,744.79,750.81,-69.34,-928.22,424.32,-1.73,0.95,0.00,65.78
24677,751.80,754.61,752.26,744.83,750.87,-66.41,-943.85,418.46,-1.05,0.98,-0.05,66.36
24709,751.75,754.64,752.19,744.77,750.84,-69.82,-926.76,417.48,2.21,-0.37,0.56,65.33
24740,751.81,754.62,752.20,744.78,750.85,-74.22,-934.08,410.64,0.20,-1.71,0.76,65.59
24772,751.78,754.63,752.30,744.88,750.90,-62.50,-936.52,409.18,-0.98,3.92,-0.92,66.45
24804,751.86,754.58,752.26,744.91,750.90,-73.24,-932.13,411.62,-0.34,0.17,-0.19,65.31
24836,751.82,754.62,752.21,744.83,750.87,-68.36,-932.62,403.32,0.24,0.08,-0.47,64.98
24867,751.83,754.65,752.25,744.93,750.92,-65.92,-927.25,416.02,-1.96,0.30,1.60,64.10
24898,751.78,754.53,752.27,744.92,750.88,-53.71,-931.15,423.34,-1.70,-1.46,-1.02,65.97
24931,751.82,754.63,752.16,744.92,750.88,-63.96,-936.04,422.85,-0.47,1.97,-1.02,62.37
24962,751.83,754.65,752.28,744.93,750.92,-58.59,-928.71,419.92,0.50,1.83,0.45,64.95
24994,751.81,754.59,752.26,744.92,750.89,-72.75,-931.15,409.67,-1.97,1.07,-2.44,65.25
25025,751.75,754.63,752.27,744.90,750.89,-72.75,-938.96,416.50,-0.53,0.36,-0.39,65.46
25057,751.73,754.64,752.29,744.94,750.90,-76.17,-933.11,410.16,1.63,-0.36,-1.47,65.37
25088,751.84,754.66,752.24,744.92,750.91,-54.20,-927.73,424.32,-0.05,1.02,1.85,63.90
25119,751.86,754.62,752.24,744.95,750.92,-63.96,-925.78,408.20,-0.04,-1.92,-4.48,63.89
25151,751.74,754.58,752.20,744.94,750.87,-65.92,-934.08,403.32,-0.46,0.34,-0.23,63.58
25182,751.84,754.64,752.26,744.97,750.93,-63.96,-946.78,416.50,0.27,-2.08,0.79,63.83
25213,751.86,754.64,752.21,745.02,750.93,-61.52,-930.18,404.79,1.14,0.18,-0.25,61.96
25245,751.84,754.64,752.22,745.03,750.93,-65.92,-934.08,419.43,-1.08,0.02,-2.10,62.01
25277,751.83,754.61,752.23,745.02,750.92,-63.96,-932.62,414.55,0.18,0.65,0.44,62.63
25308,751.81,754.61,752.23,744.98,750.91,-58.59,-934.57,420.90,1.43,-0.03,-1.30,63.27
25340,751.84,754.60,752.26,744.96,750.91,-65.92,-927.25,409.67,-0.68,-1.44,0.38,64.28
25372,751.80,754.62,752.32,745.05,750.95,-81.05,-937.01,421.39,-0.37,3.17,-0.73,64.52
25403,751.87,754.63,752.20,745.00,750.92,-61.52,-924.32,418.46,0.67,0.63,-2.02,61.95
25435,751.86,754.65,752.28,745.00,750.95,-64.45,-932.62,416.50,0.51,-1.78,0.23,63.85
25467,751.82,754.60,752.23,745.07,750.93,-67.87,-927.25,413.09,0.07,-0.27,-3.09,62.23
25499,751.86,754.63,752.21,745.04,750.94,-62.99,-933.59,410.16,-1.40,-0.27,-1.78,61.71
25530,751.82,754.62,752.26,744.97,750.92,-59.08,-923.83,404.79,-0.35,-0.67,0.57,64.15
25562,751.87,754.63,752.30,745.11,750.97,-81.05,-943.85,407.23,2.30,-0.73,-0.58,62.79
25594,751.85,754.61,752.31,745.07,750.96,-64.94,-935.55,414.55,0.18,3.12,-0.01,63.87
25625,751.86,754.54,752.21,745.09,750.93,-70.80,-925.78,409.67,-1.17,-0.61,-0.11,61.49
25657,751.85,754.52,752.18,745.06,750.90,-58.11,-941.41,406.25,0.31,0.69,-1.94,61.46
25689,751.86,754.57,752.25,745.06,750.93,-59.57,-947.27,416.02,-0.72,1.61,1.18,62.84
25721,751.87,754.57,752.23,745.02,750.92,-78.61,-924.80,413.57,0.26,0.72,0.20,62.93
25752,751.82,754.60,752.22,745.04,750.92,-68.36,-930.18,411.62,0.69,1.50,0.47,62.38
25786,751.82,754.57,752.24,745.12,750.94,-60.55,-933.59,415.53,2.05,1.41,-2.53,61.74
25817,751.83,754.55,752.29,745.11,750.95,-62.99,-942.87,418.46,-2.00,0.72,-1.15,63.23
25849,751.85,754.55,752.32,745.07,750.95,-64.45,-945.80,412.60,-0.60,1.10,-2.82,64.53
25881,751.84,754.61,752.23,745.10,750.95,-66.41,-943.85,413.57,0.13,0.12,-1.95,61.35
25913,751.92,754.58,752.26,745.17,750.98,-68.36,-922.85,413.57,0.63,-1.02,-3.49,61.32
25944,751.84,754.53,752.15,745.16,750.92,-49.32,-928.22,413.57,0.48,-0.81,-1.07,59.28
25976,751.91,754.52,752.25,745.10,750.95,-56.64,-933.59,409.18,0.63,-0.16,-3.44,62.47
26008,751.85,754.51,752.20,745.23,750.95,-55.18,-927.73,414.06,-0.90,-0.73,-1.20,59.62
26039,751.91,754.57,752.23,745.18,750.97,-63.96,-934.08,417.48,-0.31,0.82,-0.56,60.46
26071,751.83,754.51,752.30,745.23,750.97,-62.50,-931.64,412.11,-0.24,1.52,-2.30,62.36
26103,751.83,754.57,752.24,745.18,750.95,-53.22,-931.15,417.97,0.15,3.15,-1.55,60.94
26135,751.81,754.48,752.22,745.19,750.92,-62.99,-936.52,406.25,0.66,-1.30,1.18,61.04
26166,751.80,754.44,752.33,745.24,750.95,-58.11,-927.73,417.48,-0.54,0.56,-1.02,63.42
26198,751.82,754.49,752.21,745.27,750.95,-66.41,-939.45,409.67,-0.30,0.43,-0.67,59.53
26230,751.91,754.43,752.23,745.25,750.95,-66.89,-937.01,410.16,0.21,2.25,-1.24,60.58
26261,751.86,754.39,752.24,745.27,750.94,-76.66,-921.39,408.20,-0.40,1.08,0.41,60.96
26293,751.90,754.40,752.30,745.22,750.96,-67.38,-930.66,411.13,-1.59,-0.16,-2.78,63.05
26325,751.83,754.39,752.22,745.26,750.93,-60.55,-926.76,418.95,-2.39,-2.27,-1.17,60.66
26356,751.89,754.40,752.25,745.26,750.95,-68.85,-926.76,422.36,0.55,-1.40,-1.31,61.27
26387,751.85,754.50,752.23,745.25,750.96,-61.04,-929.69,417.48,-1.34,2.34,0.17,60.18
26418,751.89,754.56,752.27,745.25,750.99,-64.45,-928.22,411.62,-1.55,0.60,-1.45,60.58
26450,751.89,754.54,752.26,745.24,750.98,-60.06,-947.75,422.36,0.46,1.47,0.22,60.64
26481,751.84,754.54,752.25,745.32,750.99,-67.38,-933.11,413.09,1.50,0.80,-0.37,59.38
26512,751.91,754.53,752.30,745.28,751.00,-57.13,-921.87,411.13,0.21,-0.58,1.85,60.87
26544,751.89,754.54,752.31,745.33,751.02,-64.45,-933.11,422.85,-0.99,-0.98,-0.43,60.54
26575,751.84,754.42,752.25,745.28,750.95,-64.94,-924.32,412.11,0.76,4.58,-1.12,60.90
26606,751.87,754.47,752.23,745.27,750.96,-70.80,-919.92,417.48,-1.56,-0.09,-2.49,59.91
26640,751.88,754.41,752.22,745.31,750.95,-73.24,-933.59,422.85,-0.76,0.11,-0.22,59.75
26671,751.90,754.48,752.26,745.32,750.99,-60.06,-932.62,424.32,0.04,1.08,0.18,59.80
26702,751.87,754.43,752.25,745.33,750.97,-63.48,-935.06,425.78,0.05,0.46,-2.27,60.02
26734,751.87,754.47,752.30,745.36,751.00,-56.64,-921.87,416.99,-0.07,-1.48,-2.16,60.44
26765,751.86,754.52,752.30,745.38,751.01,-56.64,-943.85,413.09,1.48,0.99,-0.32,59.89
26797,751.84,754.51,752.30,745.34,751.00,-73.24,-931.64,424.32,1.79,0.24,0.02,60.56
26829,751.90,754.52,752.37,745.31,751.03,-71.78,-941.41,421.87,0.16,0.64,-1.06,62.51
26861,751.90,754.50,752.33,745.39,751.03,-59.08,-937.99,417.97,0.98,-1.02,-1.31,60.28
26892,751.88,754.49,752.24,745.28,750.97,-57.13,-939.45,415.53,-0.64,1.78,-0.04,59.90
26924,751.90,754.53,752.25,745.37,751.01,-67.38,-929.69,414.55,-0.90,-0.24,-0.09,58.58
26956,751.87,754.52,752.26,745.42,751.02,-69.82,-931.15,411.62,0.91,1.41,-0.49,58.27
26987,751.82,754.57,752.29,745.43,751.03,-69.82,-929.69,418.95,-2.17,0.15,-1.46,58.46
27019,751.93,754.48,752.31,745.40,751.03,-56.15,-933.11,426.76,0.69,0.21,-0.09,59.80
27051,751.97,754.42,752.25,745.51,751.04,-67.87,-924.80,414.06,-0.37,0.14,0.85,57.02
27083,751.90,754.49,752.29,745.45,751.04,-78.12,-932.62,411.13,-1.14,-1.19,-2.47,58.59
27114,751.88,754.54,752.28,745.46,751.04,-62.01,-946.78,421.87,-0.42,1.42,0.86,57.94
27146,751.83,754.50,752.25,745.48,751.01,-58.59,-922.85,423.34,-1.13,1.31,0.22,57.51
27178,751.83,754.48,752.30,745.52,751.03,-69.34,-943.36,411.13,0.71,1.38,1.68,58.09
27209,751.91,754.49,752.21,745.53,751.04,-68.85,-939.94,409.67,0.82,-0.34,0.31,55.39
27241,751.94,754.47,752.20,745.47,751.02,-58.11,-928.71,416.50,-1.60,0.61,-1.01,56.11
27273,751.96,754.51,752.21,745.51,751.05,-71.78,-921.87,426.76,1.39,-2.53,-1.97,55.45
27305,751.93,754.56,752.27,745.53,751.07,-59.08,-930.18,407.71,-1.74,1.45,-0.73,56.30
27336,751.81,754.63,752.18,745.53,751.04,-60.55,-944.82,418.95,1.08,-0.60,0.83,53.69
27368,751.85,754.52,752.29,745.53,751.05,-64.94,-932.62,421.39,-0.55,-0.53,-2.31,57.29
27400,751.88,754.50,752.20,745.45,751.01,-54.20,-933.11,417.48,-0.40,0.48,-1.34,56.26
27431,751.89,754.50,752.26,745.61,751.07,-73.73,-930.66,417.97,0.42,-0.32,2.31,55.42
27463,751.89,754.48,752.31,745.55,751.06,-74.71,-931.64,424.32,2.08,1.29,0.01,57.66
27495,751.85,754.42,752.31,745.53,751.03,-70.31,-933.11,408.69,-2.05,-2.08,-0.39,58.84
27527,751.88,754.51,752.32,745.55,751.06,-65.43,-933.11,409.67,0.15,0.69,-1.86,57.67
27560,751.87,754.51,752.24,745.53,751.04,-65.92,-924.32,416.99,-2.05,1.78,1.63,56.23
27592,751.86,754.45,752.25,745.56,751.03,-68.85,-928.22,416.99,2.79,0.06,-0.66,56.49
27623,751.90,754.36,752.26,745.58,751.03,-72.27,-934.08,418.95,1.22,0.23,-1.73,57.00
27655,751.91,754.47,752.32,745.62,751.08,-66.89,-924.80,403.81,1.12,0.79,0.80,56.82
27687,751.92,754.37,752.30,745.62,751.05,-76.17,-930.18,418.95,0.44,-1.37,-0.55,57.18
27719,751.93,754.30,752.24,745.60,751.02,-63.96,-932.13,413.57,-0.16,1.50,-0.38,56.60
27750,751.91,754.40,752.28,745.59,751.04,-53.71,-923.83,412.11,-0.73,1.15,0.10,57.06
27782,751.88,754.41,752.23,745.56,751.02,-57.62,-925.78,410.16,-0.97,1.80,-0.63,56.01
27814,751.91,754.39,752.22,745.62,751.04,-59.57,-929.69,421.87,-1.02,-0.11,-0.59,55.26
27845,751.95,754.35,752.29,745.61,751.05,-67.87,-920.90,417.48,-2.15,2.30,-0.60,57.21
27877,751.96,754.35,752.26,745.64,751.05,-56.15,-940.92,414.55,0.66,0.24,1.01,55.94
27908,751.84,754.42,752.25,745.71,751.06,-77.15,-940.92,404.30,-2.82,1.25,-0.40,54.60
27939,751.87,754.41,752.26,745.64,751.05,-67.38,-934.08,424.80,0.55,1.13,-0.16,55.65
27970,751.89,754.44,752.27,745.64,751.06,-53.71,-937.01,416.99,0.04,0.76,-0.04,55.91
28001,751.97,754.40,752.24,745.64,751.06,-65.43,-921.87,419.43,-0.40,0.03,0.70,55.22
28033,751.96,754.38,752.30,745.64,751.07,-61.52,-938.48,416.99,0.87,0.16,1.51,56.55
28064,751.87,754.42,752.26,745.69,751.06,-55.66,-939.94,420.41,-0.21,2.25,-1.51,55.08
28096,751.95,754.39,752.21,745.69,751.06,-59.08,-938.96,429.69,2.55,-1.36,-0.58,53.77
28127,751.92,754.41,752.30,745.73,751.09,-64.94,-918.95,414.06,-1.68,-2.31,-0.84,55.32
28159,751.80,754.38,752.28,745.72,751.05,-67.38,-937.01,420.90,-1.04,1.86,-0.95,55.46
28190,751.85,754.43,752.23,745.75,751.06,-64.45,-939.45,413.57,-0.87,1.18,-1.79,53.27
28222,751.89,754.42,752.29,745.71,751.07,-63.48,-920.90,421.87,-0.47,0.66,0.85,55.34
28253,751.95,754.42,752.27,745.79,751.11,-58.11,-938.48,414.55,-0.64,3.62,0.21,53.33
28285,751.91,754.42,752.32,745.77,751.10,-64.45,-934.57,410.16,-1.24,0.33,1.34,55.21
28317,751.86,754.50,752.27,745.75,751.09,-63.48,-929.69,416.99,-0.61,-1.90,-3.01,53.70
28348,751.84,754.41,752.32,745.77,751.09,-56.64,-931.64,411.13,0.50,1.89,-0.49,55.30
28380,751.90,754.48,752.38,745.74,751.12,-59.57,-926.76,420.41,0.02,1.34,-0.27,56.65
28413,751.92,754.51,752.29,745.79,751.13,-63.48,-927.73,409.18,-0.88,2.11,-1.66,53.33
28445,751.88,754.50,752.32,745.81,751.13,-66.41,-934.57,425.78,-1.21,0.55,-0.31,54.18
28477,751.89,754.55,752.35,745.75,751.13,-64.45,-945.80,416.99,0.63,0.74,-1.48,55.15
28509,751.79,754.52,752.26,745.75,751.08,-53.22,-936.04,421.87,-0.27,3.67,1.37,53.59
28540,751.82,754.42,752.32,745.81,751.09,-58.59,-934.08,418.46,0.97,0.28,-2.39,55.07
28572,751.83,754.46,752.30,745.80,751.10,-63.48,-935.55,418.95,-1.07,1.38,-1.37,54.08
28604,751.88,754.49,752.34,745.80,751.13,-55.66,-927.25,427.25,-0.36,1.11,-0.99,54.60
28635,751.90,754.49,752.28,745.87,751.14,-67.87,-916.50,424.32,1.34,1.31,0.30,52.34
28667,751.84,754.51,752.24,745.82,751.10,-58.11,-920.41,410.16,-0.99,2.02,3.35,51.93
28699,751.83,754.54,752.29,745.88,751.13,-75.20,-932.62,417.97,-0.31,0.65,2.03,52.23
28731,751.94,754.42,752.26,745.88,751.12,-69.82,-938.48,412.60,-0.55,0.66,-2.22,52.02
28762,751.86,754.42,752.21,745.89,751.10,-65.43,-935.55,416.99,-0.31,-2.26,0.15,50.90
28794,751.91,754.47,752.32,745.87,751.14,-62.01,-928.22,405.76,0.11,1.86,1.11,53.27
28826,751.78,754.43,752.23,745.90,751.08,-62.01,-932.13,416.02,-0.25,-0.05,-3.98,51.37
28857,751.89,754.49,752.26,745.96,751.15,-60.06,-937.50,411.13,-0.72,1.50,-3.98,50.35
28889,751.82,754.50,752.29,745.88,751.12,-58.11,-941.89,418.95,-1.89,1.29,-1.67,52.48
28921,751.90,754.55,752.33,745.94,751.18,-69.34,-941.41,415.04,-0.11,3.05,0.55,51.87
28953,751.93,754.57,752.29,745.88,751.17,-54.20,-919.43,419.92,0.19,-1.15,-0.12,51.45
28984,751.87,754.57,752.25,745.89,751.14,-74.71,-950.68,422.85,0.39,0.47,0.56,50.62
29016,751.92,754.52,752.29,745.86,751.15,-63.96,-944.82,416.02,-0.58,0.19,1.76,52.26
29048,751.94,754.43,752.25,745.87,751.12,-50.29,-937.99,434.57,-0.80,-1.42,-1.84,51.73
29079,751.95,754.55,752.28,745.90,751.17,-70.80,-926.27,415.53,-0.62,-2.08,-2.94,51.03
29111,751.92,754.53,752.27,745.95,751.17,-68.85,-930.66,412.11,0.49,1.89,-1.95,50.46
29143,751.93,754.45,752.26,745.98,751.16,-58.11,-939.45,427.25,0.25,-0.37,-1.84,50.19
29175,751.94,754.51,752.27,745.97,751.17,-65.43,-929.20,418.95,-0.65,-1.11,0.44,50.21
29206,751.93,754.56,752.31,745.97,751.19,-66.41,-935.55,413.09,1.33,1.55,0.82,50.77
29238,751.92,754.48,752.27,745.99,751.16,-59.08,-922.36,420.41,0.98,1.24,-0.03,50.11
29271,752.00,754.56,752.26,746.00,751.20,-68.85,-933.59,417.48,-0.40,0.44,-1.23,48.88
29303,751.87,754.56,752.27,745.99,751.17,-46.39,-926.27,414.06,0.56,-2.05,2.15,49.54
29335,751.89,754.59,752.27,746.02,751.19,-55.66,-928.71,418.46,-1.44,1.11,0.70,48.95
29366,751.89,754.57,752.27,746.00,751.18,-62.50,-932.13,421.87,-1.46,-1.23,-0.27,49.54
29397,751.93,754.52,752.30,746.02,751.19,-69.34,-932.62,418.46,0.63,-0.02,-1.00,49.96
29428,751.91,754.63,752.32,746.03,751.22,-76.17,-932.13,412.60,-0.40,0.91,-1.13,49.56
29459,751.95,754.62,752.36,746.04,751.24,-73.73,-932.13,418.95,-1.71,-0.34,0.83,50.40
29491,751.88,754.54,752.30,746.03,751.19,-51.76,-928.71,417.48,-2.72,-0.11,1.89,49.96
29522,751.91,754.58,752.28,746.05,751.20,-67.38,-926.76,412.60,2.14,0.98,0.85,48.87
29554,751.88,754.50,752.32,745.98,751.17,-59.08,-919.92,423.83,0.47,0.34,0.38,51.54
29585,751.93,754.59,752.32,745.98,751.20,-74.71,-928.71,420.90,0.73,3.15,-3.11,50.70
29616,752.00,754.60,752.28,745.97,751.21,-64.45,-930.66,419.92,-1.59,1.21,-2.44,49.44
29648,751.92,754.60,752.32,745.98,751.20,-63.96,-927.25,415.53,-2.14,2.14,-2.20,50.63
29679,751.88,754.69,752.32,746.02,751.23,-61.04,-936.52,407.71,-2.35,1.03,-1.81,49.46
29711,751.88,754.58,752.23,746.05,751.18,-61.52,-939.45,418.46,-0.60,0.78,-0.56,47.66
29742,751.89,754.56,752.41,746.08,751.23,-64.45,-924.80,414.06,-0.10,1.90,2.27,51.66
29774,751.88,754.55,752.30,746.14,751.22,-60.55,-925.29,415.04,-0.26,2.97,1.34,48.22
29805,751.90,754.53,752.35,746.10,751.22,-69.82,-938.48,420.41,0.53,-0.76,-1.82,50.27
29837,751.93,754.60,752.26,746.15,751.23,-59.57,-931.15,410.16,0.38,1.24,-1.06,46.51
29869,751.94,754.60,752.27,746.09,751.23,-58.59,-920.41,421.87,-0.61,2.21,-1.83,47.79
29901,751.93,754.61,752.26,746.16,751.24,-71.29,-930.18,419.92,-2.17,0.88,-1.28,46.46
29932,751.91,754.63,752.33,746.15,751.26,-80.08,-930.18,410.16,-0.60,1.69,-0.69,48.04
29964,751.89,754.64,752.29,746.17,751.25,-57.62,-932.13,419.43,1.85,1.42,-0.25,46.85
29996,751.86,754.64,752.26,746.19,751.24,-49.32,-941.41,419.92,0.08,0.57,0.50,45.93
30027,751.89,754.57,752.30,746.18,751.23,-60.06,-924.80,417.97,0.22,1.98,-0.63,47.52
30059,751.94,754.64,752.35,746.14,751.27,-63.48,-920.90,412.11,0.50,-0.96,-3.87,48.72
30091,751.91,754.63,752.34,746.15,751.26,-56.64,-938.48,426.27,-2.57,1.26,-3.69,48.35
30123,751.89,754.60,752.35,746.19,751.26,-61.04,-920.41,427.73,0.01,-0.75,-2.49,48.23
30156,751.97,754.65,752.31,746.12,751.26,-60.06,-916.99,413.57,-0.36,1.75,0.57,47.65
30188,751.90,754.56,752.33,746.18,751.24,-66.89,-944.82,414.06,-0.83,0.56,0.52,48.35
30219,751.99,754.61,752.34,746.21,751.29,-60.55,-933.11,414.06,-1.01,2.76,0.15,47.45
30251,751.97,754.59,752.28,746.20,751.26,-65.92,-925.78,414.55,1.27,2.12,-1.47,46.27
30283,751.91,754.68,752.35,746.28,751.30,-58.11,-935.55,416.99,-1.97,-1.39,-3.21,46.25
30314,751.87,754.62,752.30,746.33,751.28,-61.04,-922.36,416.50,0.48,1.34,1.09,45.09
30346,751.99,754.59,752.32,746.31,751.30,-49.80,-934.57,418.46,-0.05,-1.28,1.18,45.50
30378,751.96,754.62,752.32,746.25,751.29,-75.20,-921.39,418.95,-0.68,-1.08,0.18,46.45
30410,751.93,754.60,752.29,746.24,751.26,-67.38,-935.55,420.90,-1.18,-1.21,-2.49,46.15
30441,751.92,754.64,752.33,746.25,751.29,-66.89,-934.08,414.55,-0.69,-0.31,-1.50,46.59
30473,751.96,754.62,752.30,746.22,751.28,-56.64,-939.45,416.50,-0.81,2.57,-0.23,46.25
30505,751.95,754.66,752.38,746.23,751.30,-62.99,-929.20,412.11,-0.31,-1.50,-0.74,47.82
30537,751.93,754.63,752.34,746.27,751.29,-60.55,-925.78,415.53,-0.69,2.33,-1.93,46.56
30568,752.02,754.65,752.24,746.30,751.30,-55.18,-930.66,422.85,-1.69,0.18,0.11,43.23
30600,752.02,754.56,752.29,746.31,751.30,-55.66,-938.48,413.09,1.15,-0.38,-1.85,44.83
30632,751.98,754.68,752.25,746.26,751.29,-71.29,-926.27,422.85,1.40,-0.72,0.12,43.86
30663,751.94,754.61,752.30,746.32,751.29,-66.41,-931.64,419.92,0.89,-0.15,-1.68,44.93
30695,751.90,754.60,752.31,746.28,751.27,-52.73,-918.95,415.53,-0.82,-0.09,-0.79,46.04
30727,751.95,754.57,752.27,746.26,751.26,-64.94,-923.34,404.79,-0.75,0.18,-0.01,45.50
30758,751.97,754.65,752.40,746.24,751.32,-53.22,-923.34,415.04,-1.88,2.53,1.28,48.17
30790,751.94,754.60,752.32,746.25,751.28,-66.89,-928.22,415.04,0.23,0.39,-0.40,46.61
30822,752.04,754.56,752.25,746.22,751.27,-62.99,-927.73,428.22,0.69,1.49,0.26,45.12
30854,752.01,754.57,752.28,746.30,751.29,-69.34,-923.83,418.95,-0.83,0.36,0.18,44.95
30885,751.91,754.60,752.34,746.29,751.29,-60.55,-909.18,417.97,1.32,-0.66,-0.75,46.43
30916,751.98,754.60,752.29,746.30,751.29,-62.01,-924.32,401.37,-0.91,-0.81,-0.61,44.95
30947,752.03,754.60,752.25,746.36,751.31,-60.06,-937.99,406.25,-0.64,1.36,-0.53,42.96
30978,752.02,754.56,752.31,746.32,751.30,-67.87,-928.71,415.04,-1.55,0.19,-0.33,45.50
31011,751.93,754.53,752.31,746.33,751.28,-63.96,-929.20,413.09,-0.52,1.41,0.17,45.75
31043,751.97,754.53,752.27,746.35,751.28,-67.38,-929.69,424.32,-1.86,1.61,0.25,44.44
31074,752.00,754.55,752.26,746.40,751.30,-68.36,-934.57,423.34,-0.47,1.62,-1.11,42.95
31106,751.96,754.58,752.32,746.36,751.30,-74.22,-933.11,408.20,-0.76,1.34,0.40,45.02
31137,752.00,754.60,752.37,746.39,751.34,-56.15,-935.55,409.67,1.50,0.18,0.04,45.63
31168,751.97,754.54,752.33,746.42,751.32,-69.34,-935.06,415.53,-0.80,0.60,0.12,44.69
31200,751.96,754.57,752.26,746.40,751.30,-63.48,-924.32,420.90,-2.03,-0.83,2.44,43.10
31231,751.96,754.55,752.27,746.37,751.29,-55.18,-920.90,428.22,-1.22,-0.21,-0.27,43.73
31263,752.01,754.62,752.30,746.36,751.32,-63.96,-923.34,418.46,-1.55,1.69,-2.06,44.04
31295,751.97,754.53,752.26,746.35,751.28,-69.82,-924.32,413.57,-0.69,-0.98,-0.35,43.97
31326,751.96,754.62,752.33,746.36,751.32,-67.38,-929.69,429.20,-1.83,0.33,0.11,44.91
31358,751.96,754.67,752.24,746.42,751.32,-62.99,-936.04,421.87,-0.79,-1.81,-0.03,41.26
31390,752.01,754.61,752.30,746.44,751.34,-60.06,-927.25,429.20,0.34,-2.08,-0.49,42.90
31422,752.01,754.60,752.33,746.38,751.33,-60.55,-928.22,408.20,-1.44,1.90,-0.97,44.50
31453,751.96,754.66,752.33,746.44,751.35,-62.01,-930.66,420.41,-2.05,1.34,-0.80,43.43
31485,751.90,754.59,752.31,746.43,751.31,-60.55,-939.45,417.48,-0.18,1.59,-0.44,43.86
31517,751.93,754.63,752.36,746.40,751.33,-63.96,-925.29,426.76,-0.13,-1.55,0.71,45.14
31548,752.01,754.60,752.35,746.38,751.34,-61.04,-934.57,416.02,0.50,-3.03,1.28,45.07
31580,752.01,754.68,752.36,746.44,751.37,-59.08,-931.15,422.36,-2.73,-3.77,0.80,43.83
31612,751.99,754.60,752.35,746.47,751.35,-62.01,-920.41,410.64,-1.41,0.37,-0.27,44.03
31644,751.97,754.65,752.32,746.41,751.34,-72.27,-929.20,413.57,-2.44,1.10,-1.11,43.86
31675,752.02,754.60,752.33,746.48,751.36,-56.64,-930.66,416.50,0.52,0.62,-1.57,43.20
31707,752.04,754.61,752.32,746.53,751.37,-68.36,-937.50,426.27,-0.66,1.47,-0.05,42.07
31739,752.06,754.59,752.30,746.55,751.38,-63.48,-930.66,414.55,-1.38,2.07,-0.07,41.44
31770,752.04,754.67,752.31,746.56,751.40,-74.22,-919.43,422.36,1.55,-0.50,-1.81,40.90
31802,751.96,754.63,752.33,746.51,751.36,-51.76,-931.15,418.46,-0.37,1.73,0.61,42.74
31834,751.97,754.64,752.38,746.50,751.37,-57.62,-934.57,417.48,0.60,-1.14,-0.27,44.01
31866,751.99,754.70,752.36,746.58,751.41,-64.94,-928.71,418.95,-1.19,-0.24,-4.11,41.63
31899,751.98,754.57,752.36,746.66,751.39,-55.18,-927.25,420.41,0.18,-0.37,1.54,41.60
31931,751.99,754.64,752.30,746.59,751.38,-48.83,-925.78,421.87,-2.14,0.10,-1.17,40.49
31962,752.06,754.69,752.28,746.55,751.39,-67.87,-927.25,422.85,-0.31,0.43,-1.99,40.01
31994,752.04,754.72,752.33,746.59,751.42,-58.59,-932.13,414.06,-0.55,0.94,-2.60,40.53
32026,751.92,754.69,752.38,746.60,751.40,-56.15,-934.57,405.27,-0.11,0.96,3.19,42.38
32057,751.98,754.71,752.31,746.61,751.40,-68.85,-931.15,422.85,-0.63,2.44,-1.08,40.09
32089,751.94,754.60,752.34,746.58,751.37,-72.27,-928.71,423.34,-0.31,-1.48,0.11,42.28
32121,751.95,754.59,752.36,746.55,751.36,-53.71,-928.71,412.60,0.23,-1.54,-1.63,43.21
32153,752.03,754.68,752.40,746.54,751.41,-66.41,-930.18,417.97,1.18,0.08,-1.02,43.30
32184,752.04,754.67,752.37,746.63,751.43,-58.11,-912.60,430.66,-1.91,0.16,-2.94,41.29
32216,752.01,754.69,752.38,746.61,751.42,-67.38,-934.57,414.55,-0.81,1.51,-0.66,41.71
32248,751.99,754.69,752.33,746.69,751.43,-64.45,-927.25,424.80,-0.64,1.00,-1.50,39.51
32279,752.05,754.70,752.29,746.62,751.41,-48.34,-938.48,419.92,-0.62,-2.59,-0.89,39.15
32311,752.01,754.66,752.29,746.58,751.39,-65.92,-942.38,426.76,1.42,-1.24,-0.63,40.28
32343,752.01,754.59,752.39,746.62,751.41,-67.38,-938.48,419.92,-2.79,0.39,-0.54,42.62
32374,751.95,754.64,752.37,746.66,751.41,-70.31,-921.39,410.64,0.06,1.63,-1.77,41.35
32405,752.00,754.65,752.42,746.65,751.43,-68.85,-927.73,414.06,-0.46,2.44,-2.66,42.56
32436,751.99,754.71,752.36,746.67,751.43,-62.01,-935.06,425.78,0.69,-1.16,-1.55,40.36
32467,752.01,754.61,752.38,746.72,751.43,-65.92,-934.57,422.36,-1.34,-0.63,0.24,40.81
32499,752.06,754.63,752.34,746.65,751.42,-50.78,-925.78,423.83,-0.33,-0.79,-1.85,40.57
32530,751.99,754.63,752.30,746.71,751.41,-61.52,-934.57,423.34,-0.11,-2.03,-2.35,38.88
32562,752.00,754.61,752.38,746.72,751.43,-64.45,-939.94,417.48,-0.82,-0.14,0.71,40.92
32593,752.03,754.63,752.47,746.75,751.47,-57.62,-924.80,419.43,-1.82,0.50,-1.16,42.43
32624,752.00,754.62,752.37,746.73,751.43,-72.27,-936.52,411.13,-0.01,0.88,0.93,40.33
32656,751.98,754.71,752.40,746.71,751.45,-52.73,-933.11,428.22,-3.01,0.06,0.34,40.80
32687,752.02,754.64,752.42,746.73,751.45,-62.50,-935.55,413.57,0.38,2.76,0.99,41.38
32719,752.05,754.62,752.32,746.73,751.43,-64.94,-936.04,407.23,-1.31,-1.83,1.36,38.93
32750,751.96,754.58,752.37,746.72,751.41,-75.68,-933.11,408.20,-0.60,-2.05,1.35,41.11
32784,751.99,754.60,752.35,746.66,751.40,-62.50,-935.06,414.55,-0.89,0.30,-0.59,41.17
32816,752.00,754.62,752.27,746.77,751.42,-64.45,-921.87,423.34,-1.85,-1.27,-1.61,37.43
32847,752.04,754.54,752.36,746.77,751.43,-73.73,-941.41,421.87,-1.13,-1.02,-0.54,40.10
32879,752.02,754.65,752.39,746.77,751.46,-73.24,-933.59,422.85,-2.44,0.64,1.00,39.95
32911,752.03,754.57,752.39,746.73,751.43,-50.78,-928.71,423.83,0.47,0.33,-0.26,41.16
32942,752.01,754.61,752.38,746.82,751.45,-70.31,-929.20,417.97,-0.28,0.37,-0.60,39.23
32974,751.95,754.60,752.37,746.76,751.42,-60.06,-931.64,420.41,1.71,-0.11,1.08,40.26
33006,751.91,754.66,752.44,746.82,751.46,-58.11,-917.97,414.55,-0.50,-0.21,-1.46,40.83
33037,751.99,754.64,752.39,746.77,751.44,-53.71,-934.08,422.36,0.43,-1.08,-1.09,40.12
33069,752.01,754.64,752.37,746.82,751.46,-63.48,-916.99,416.50,-1.62,-2.22,0.27,38.72
33101,752.03,754.59,752.39,746.80,751.45,-64.94,-936.04,416.02,-2.07,1.08,1.81,40.09
33133,752.05,754.60,752.43,746.81,751.47,-57.62,-912.11,433.11,-2.15,1.77,0.79,40.65
33164,752.08,754.62,752.38,746.79,751.47,-65.92,-933.11,417.48,0.60,1.22,0.08,39.37
33196,752.05,754.63,752.36,746.74,751.45,-61.52,-926.27,426.76,-0.60,-0.04,-2.05,39.64
33228,752.11,754.63,752.41,746.76,751.48,-49.80,-935.55,413.09,-0.47,-3.13,-0.46,40.53
33260,752.05,754.69,752.37,746.80,751.48,-56.64,-933.59,414.55,-1.84,0.10,1.09,38.53
33291,752.01,754.67,752.41,746.82,751.48,-64.94,-922.85,419.92,-0.88,0.11,-0.52,39.57
33323,752.12,754.65,752.35,746.82,751.48,-64.45,-933.11,414.06,-0.26,1.32,-4.13,38.03
33355,752.12,754.66,752.35,746.76,751.47,-60.55,-931.15,402.83,0.56,-0.93,-2.18,38.82
33386,752.11,754.72,752.37,746.80,751.50,-61.52,-922.36,415.53,-1.66,-0.46,-0.80,38.22
33418,752.05,754.68,752.39,746.84,751.49,-54.69,-944.82,415.53,-1.54,0.44,-3.56,38.59
33450,752.12,754.71,752.36,746.83,751.50,-60.06,-929.69,422.85,0.11,-0.38,0.04,37.58
33481,752.11,754.61,752.34,746.83,751.47,-62.99,-929.20,417.97,-0.30,-1.63,-0.60,37.75
33513,752.10,754.70,752.33,746.84,751.49,-60.55,-939.94,420.41,-2.92,2.20,2.73,36.77
33545,752.05,754.63,752.33,746.85,751.46,-57.62,-931.64,422.36,-0.19,-0.53,-0.15,37.29
33577,752.09,754.63,752.37,746.89,751.49,-56.15,-928.71,412.60,-1.40,1.73,-0.68,37.77
33608,752.03,754.57,752.40,746.86,751.46,-62.99,-924.80,414.55,0.53,-0.63,-0.31,39.58
33640,752.01,754.57,752.41,746.86,751.46,-56.64,-925.29,416.02,-0.50,-0.03,-0.93,40.04
33673,752.05,754.62,752.40,746.89,751.49,-62.01,-941.89,400.88,1.18,0.58,0.90,38.63
33705,752.06,754.62,752.35,746.88,751.48,-54.69,-924.32,414.55,1.01,1.79,0.50,37.54
33737,752.10,754.56,752.33,746.92,751.48,-59.08,-923.83,416.99,-0.63,-1.08,0.02,36.79
33769,752.10,754.64,752.34,746.87,751.49,-70.31,-924.32,419.43,1.44,1.66,-1.08,37.07
33800,752.08,754.65,752.33,746.90,751.49,-62.01,-933.11,421.39,1.26,0.27,1.11,36.40
33832,752.11,754.58,752.33,746.87,751.47,-66.89,-927.25,408.20,1.00,-2.44,0.87,37.22
33863,752.04,754.61,752.43,746.96,751.51,-61.04,-933.59,419.92,-1.18,-0.14,0.12,38.54
33894,752.06,754.69,752.36,746.87,751.49,-64.94,-925.78,413.09,-0.64,0.30,-1.08,37.22
33925,752.03,754.57,752.37,746.97,751.48,-65.43,-934.08,414.55,-0.99,-2.85,0.41,37.17
33957,752.12,754.70,752.31,746.96,751.52,-64.94,-934.57,416.02,-0.83,-0.26,-0.24,34.48
33988,752.11,754.70,752.38,746.87,751.52,-60.06,-929.20,414.06,-0.76,0.48,0.98,37.58
34019,752.12,754.72,752.39,746.90,751.53,-54.20,-924.80,399.41,-0.25,-0.69,-1.27,37.27
34051,752.12,754.68,752.40,746.94,751.53,-63.48,-928.71,412.60,-0.51,1.52,1.82,37.02
34082,752.15,754.71,752.37,746.93,751.54,-50.78,-935.55,425.29,-1.27,-1.05,1.47,36.16
34114,752.06,754.68,752.30,746.98,751.51,-46.39,-933.59,426.27,-1.66,-2.56,0.01,34.38
34145,752.08,754.70,752.33,746.94,751.51,-68.36,-917.48,414.55,1.01,-2.26,0.34,35.29
34176,752.13,754.67,752.30,746.98,751.52,-69.82,-930.18,411.62,-0.21,-1.76,-0.79,34.10
34208,752.02,754.70,752.31,746.89,751.48,-61.04,-925.29,420.90,0.30,0.38,-1.88,35.81
34239,752.05,754.71,752.41,746.89,751.51,-74.22,-951.17,416.50,-1.80,-1.32,-0.23,37.97
34271,752.10,754.69,752.39,746.88,751.52,-62.50,-933.59,417.48,-1.77,-0.27,-1.18,37.78
34303,752.12,754.70,752.32,746.96,751.52,-70.80,-944.34,418.46,-0.46,1.54,0.53,34.70
34334,751.98,754.67,752.34,746.94,751.48,-56.15,-934.57,412.60,-1.04,-0.85,1.43,36.20
34366,752.05,754.70,752.38,746.95,751.52,-60.55,-929.69,412.11,-0.92,-0.15,-0.98,36.58
34398,752.05,754.70,752.36,747.01,751.53,-60.55,-937.99,417.97,-1.27,-2.67,-1.28,35.25
34429,752.09,754.74,752.36,746.96,751.54,-63.48,-930.66,416.02,-0.40,0.85,-2.14,35.45
34461,752.00,754.71,752.38,747.04,751.53,-69.82,-932.62,415.04,0.82,-1.12,-0.63,35.49
34493,752.05,754.73,752.32,747.04,751.53,-62.01,-936.04,421.87,2.92,-3.70,-0.89,33.65
34525,752.08,754.67,752.36,746.94,751.51,-58.59,-931.64,414.55,-0.69,-0.31,-1.08,36.40
34558,752.07,754.72,752.34,747.07,751.55,-51.76,-941.89,405.76,-0.57,-0.98,-2.88,33.71
34590,752.10,754.72,752.31,747.00,751.53,-64.45,-932.62,430.18,0.15,1.22,-1.69,33.77
34621,752.08,754.70,752.40,747.00,751.55,-69.82,-928.22,421.39,0.02,-0.15,1.76,36.29
34653,752.03,754.66,752.33,747.06,751.52,-72.27,-937.50,421.87,-1.31,2.78,-3.54,34.26
34685,752.05,754.68,752.38,747.08,751.55,-47.85,-940.43,415.53,0.39,0.97,-0.53,34.86
34716,752.06,754.69,752.35,747.04,751.54,-59.08,-940.92,412.60,-0.41,3.01,-0.40,34.57
34748,752.02,754.69,752.35,747.16,751.55,-63.48,-930.66,421.39,-0.85,-0.95,-0.14,33.05
34780,752.04,754.69,752.33,747.06,751.53,-53.22,-938.96,410.64,-0.15,3.39,0.15,33.73
34812,752.01,754.70,752.38,747.06,751.54,-65.92,-924.80,405.27,-0.47,0.01,0.94,35.15
34843,752.04,754.71,752.37,747.03,751.54,-73.24,-937.01,416.50,-2.37,0.11,1.21,35.13
34875,752.10,754.69,752.41,747.16,751.59,-54.20,-934.08,419.92,1.47,-1.60,-1.00,34.16
34907,752.06,754.77,752.41,747.10,751.58,-46.39,-931.15,427.73,0.20,-2.15,-0.95,34.47
34938,752.12,754.78,752.33,747.11,751.59,-68.85,-922.36,409.18,0.39,1.31,-0.94,32.20
34970,752.08,754.78,752.39,747.05,751.58,-42.48,-933.11,410.64,0.79,-1.60,-1.61,34.60
35002,752.18,754.73,752.41,747.05,751.59,-63.48,-938.96,419.43,0.28,1.79,-1.44,35.02
35034,752.16,754.71,752.44,747.15,751.62,-63.48,-936.52,417.97,0.10,-0.63,0.20,34.63
35065,752.08,754.65,752.33,747.13,751.55,-62.99,-935.55,419.92,-1.26,-1.68,-0.37,33.13
35097,752.03,754.66,752.39,747.09,751.54,-67.38,-923.34,416.02,-0.98,1.52,0.36,35.07
35129,752.07,754.74,752.47,747.09,751.59,-58.59,-948.24,425.78,-0.61,-0.29,-1.42,36.29
35160,752.07,754.73,752.32,747.14,751.56,-55.66,-939.45,418.46,-0.05,-0.92,0.18,32.09
35192,752.11,754.71,752.32,747.08,751.55,-71.78,-925.78,412.60,-0.27,1.07,-1.44,32.79
35224,752.10,754.69,752.38,747.16,751.58,-71.29,-929.69,427.73,0.14,-1.72,1.34,33.39
35256,752.10,754.79,752.38,747.14,751.60,-64.45,-936.04,415.04,0.16,-1.36,-1.98,32.87
35287,752.06,754.73,752.37,747.07,751.56,-71.29,-925.29,416.50,0.40,-1.06,-0.09,34.37
35319,752.08,754.67,752.36,747.08,751.55,-59.08,-930.18,410.64,-0.95,-0.59,0.34,34.23
35350,752.17,754.72,752.34,747.11,751.59,-55.66,-932.13,414.06,-0.63,0.08,-1.54,32.72
35381,752.11,754.61,752.40,747.14,751.56,-73.24,-933.11,414.55,-2.08,0.03,-1.66,34.87
35412,752.13,754.70,752.37,747.19,751.60,-66.41,-937.99,430.66,-0.93,1.57,-1.07,32.51
35445,752.18,754.65,752.37,747.15,751.59,-65.43,-930.66,414.06,0.11,0.57,0.24,33.33
35476,752.12,754.59,752.34,747.14,751.55,-66.41,-934.57,418.46,-0.97,1.70,-0.74,33.39
35508,752.19,754.62,752.42,747.20,751.61,-58.59,-928.22,428.22,-2.89,-1.21,0.95,33.90
35539,752.08,754.68,752.35,747.19,751.57,-55.66,-935.06,428.22,1.08,1.67,0.29,32.25
35571,752.11,754.62,752.37,747.11,751.55,-67.38,-934.57,420.90,0.02,-1.76,0.51,34.41
35602,752.14,754.61,752.38,747.13,751.57,-65.92,-926.76,414.06,0.05,0.89,-0.69,34.23
35634,752.08,754.60,752.39,747.12,751.55,-64.94,-927.73,412.11,-0.83,0.23,1.24,35.01
35665,752.11,754.69,752.39,747.16,751.59,-75.68,-921.39,422.85,0.74,-0.01,1.08,33.76
35697,752.10,754.62,752.48,747.13,751.58,-72.27,-932.13,418.46,1.18,-1.35,-0.40,37.10
35728,752.09,754.67,752.40,747.12,751.57,-66.89,-944.34,420.90,-1.03,-0.91,0.69,34.68
35760,752.07,754.64,752.39,747.25,751.58,-70.80,-928.22,425.29,-1.57,1.73,-0.10,32.86
35791,752.16,754.62,752.35,747.20,751.58,-64.94,-922.36,424.80,1.72,0.41,-1.57,32.35
35823,752.05,754.65,752.41,747.26,751.59,-73.24,-936.04,416.02,0.05,-0.14,0.42,33.08
35855,752.09,754.66,752.38,747.18,751.58,-70.80,-935.55,411.62,0.47,-0.60,1.01,33.47
35887,752.10,754.51,752.39,747.24,751.56,-56.64,-933.11,429.69,0.42,0.29,-1.29,34.04
35918,752.04,754.65,752.38,747.22,751.57,-63.96,-927.25,422.36,-0.17,0.92,0.58,33.01
35950,752.16,754.66,752.40,747.23,751.61,-65.92,-933.59,408.69,0.26,-0.41,-0.37,32.94
35982,752.14,754.60,752.42,747.21,751.59,-70.80,-937.01,418.95,-0.84,-0.41,-0.59,34.18
36014,752.15,754.63,752.35,747.20,751.58,-60.55,-938.48,409.67,-0.23,-0.24,-3.02,32.26
36045,752.12,754.58,752.40,747.21,751.58,-67.87,-922.85,414.06,-0.67,-1.41,0.50,33.81
36077,752.09,754.59,752.39,747.27,751.58,-68.36,-926.76,422.36,-0.08,0.15,1.07,32.80
36109,752.14,754.57,752.38,747.21,751.58,-66.89,-923.83,429.20,1.09,-5.21,-1.56,33.47
36141,752.15,754.65,752.42,747.31,751.63,-65.92,-930.18,412.11,-0.43,-1.17,-0.11,32.24
36172,752.12,754.54,752.40,747.26,751.58,-58.11,-934.08,428.22,0.76,-2.48,0.11,33.59
36204,752.19,754.59,752.35,747.24,751.59,-57.62,-934.57,420.90,-1.38,-0.31,-1.06,32.12
36236,752.16,754.54,752.42,747.25,751.59,-56.15,-927.25,409.18,-1.75,0.63,-0.91,34.21
36268,752.16,754.59,752.38,747.20,751.58,-58.11,-934.57,422.85,-0.53,0.81,-0.66,33.40
36299,752.15,754.57,752.38,747.20,751.58,-74.22,-928.22,411.62,0.53,1.75,1.05,33.56
36333,752.18,754.57,752.38,747.30,751.61,-69.82,-934.57,424.32,0.60,-3.79,-1.50,31.96
36364,752.10,754.52,752.40,747.24,751.57,-67.38,-929.69,411.62,-1.42,0.38,0.37,34.11
36396,752.09,754.52,752.37,747.19,751.54,-60.06,-937.50,419.43,-2.21,-2.95,-1.73,34.13
36428,752.12,754.51,752.29,747.24,751.54,-63.48,-927.25,421.39,-1.59,-3.28,1.86,31.35
36459,752.10,754.54,752.35,747.25,751.56,-74.22,-939.94,418.95,1.54,-0.01,-1.22,32.45
36491,752.14,754.48,752.36,747.25,751.56,-73.24,-921.87,423.83,0.12,0.67,-1.43,33.20
36523,752.16,754.50,752.44,747.32,751.60,-65.43,-934.08,423.83,0.60,-0.69,-0.13,33.79
36555,752.10,754.52,752.40,747.28,751.58,-69.82,-926.27,411.13,0.23,-2.31,-0.91,33.57
36586,752.14,754.63,752.39,747.22,751.60,-65.92,-926.76,410.16,1.95,-0.10,-1.55,33.08
36618,752.16,754.51,752.36,747.30,751.58,-54.69,-928.22,406.25,-0.93,1.43,-2.34,32.18
36650,752.14,754.55,752.35,747.28,751.58,-58.59,-936.04,426.27,-2.14,0.53,-0.92,31.92
36681,752.19,754.48,752.38,747.32,751.59,-72.75,-932.62,420.90,-1.03,-0.50,0.44,32.34
36713,752.14,754.49,752.40,747.33,751.59,-70.31,-936.52,426.76,-0.21,1.62,-1.75,32.89
36745,752.07,754.51,752.35,747.37,751.57,-60.06,-927.73,409.67,-0.84,0.37,-2.03,31.18
36777,752.12,754.53,752.42,747.36,751.61,-49.32,-916.50,423.34,0.15,-0.67,-0.42,32.72
36808,752.11,754.60,752.46,747.27,751.61,-67.38,-922.36,409.67,0.58,2.85,-0.63,34.56
36839,752.15,754.55,752.40,747.36,751.62,-55.66,-940.43,408.20,-0.60,2.08,-1.20,31.89
36871,752.17,754.52,752.45,747.40,751.64,-57.13,-930.66,411.13,-1.08,0.69,0.83,32.78
36902,752.19,754.52,752.45,747.32,751.62,-69.34,-936.52,415.04,0.02,-0.38,0.56,33.75
36933,752.15,754.57,752.38,747.37,751.62,-71.78,-934.08,412.60,-0.53,0.37,0.50,31.15
36964,752.14,754.55,752.42,747.35,751.62,-65.92,-924.32,409.18,-0.33,-2.03,-1.82,32.46
36995,752.14,754.51,752.36,747.36,751.59,-58.11,-912.11,415.04,-0.73,1.48,-1.28,31.08
37027,752.14,754.60,752.39,747.36,751.62,-73.73,-932.62,402.34,-0.40,-0.19,1.22,31.28
37058,752.17,754.56,752.38,747.35,751.62,-59.57,-932.13,406.74,0.96,2.91,0.58,31.37
37090,752.16,754.52,752.40,747.32,751.60,-55.66,-931.64,415.53,0.05,-2.67,1.06,32.79
37121,752.15,754.49,752.39,747.36,751.60,-62.50,-932.62,423.34,0.73,1.63,-1.97,32.25
37153,752.14,754.56,752.43,747.40,751.63,-64.94,-928.22,427.73,-1.03,0.37,2.92,31.95
37184,752.07,754.60,752.46,747.49,751.65,-68.85,-935.06,411.13,1.27,-0.09,0.19,31.25
37217,752.12,754.56,752.39,747.41,751.62,-71.29,-916.50,415.53,-1.76,-0.29,-0.60,30.75
37249,752.13,754.59,752.41,747.45,751.64,-65.92,-933.11,407.23,-1.05,0.84,0.94,30.61
37281,752.16,754.53,752.45,747.48,751.65,-62.50,-922.85,420.41,-0.26,0.37,0.77,31.53
37312,752.18,754.58,752.36,747.49,751.65,-68.85,-934.57,412.11,-1.19,-0.43,-1.64,28.59
37344,752.13,754.51,752.36,747.46,751.62,-62.50,-930.66,401.86,-2.20,1.81,0.11,29.85
37376,752.12,754.54,752.40,747.51,751.64,-58.59,-939.45,416.50,1.14,-0.04,1.54,29.81
37407,752.14,754.57,752.43,747.46,751.65,-71.29,-933.11,412.11,-0.02,-0.14,1.38,31.05
37439,752.22,754.61,752.44,747.50,751.69,-54.69,-937.50,425.29,-0.21,-2.79,-0.38,30.15
37471,752.08,754.60,752.36,747.36,751.60,-55.66,-929.69,416.02,-0.04,1.76,-1.87,30.81
37503,752.15,754.52,752.44,747.48,751.64,-54.20,-928.71,426.76,-1.17,-0.29,0.23,31.38
37534,752.17,754.49,752.44,747.49,751.65,-66.89,-935.55,410.16,0.26,-2.21,0.21,31.29
37566,752.19,754.56,752.37,747.47,751.65,-54.20,-925.29,418.95,0.38,-0.69,-0.61,29.22
37598,752.15,754.57,752.41,747.54,751.67,-64.45,-930.18,413.57,-0.45,2.25,-0.47,29.29
37629,752.13,754.55,752.47,747.50,751.66,-62.50,-931.64,406.74,-1.62,1.26,1.27,31.62
37661,752.13,754.61,752.35,747.54,751.66,-56.15,-938.48,397.95,0.72,2.62,-1.98,27.58
37693,752.22,754.60,752.42,747.52,751.69,-67.38,-937.50,417.97,-0.27,-1.49,0.08,29.49
37724,752.10,754.62,752.49,747.55,751.69,-61.52,-938.96,417.97,-0.63,0.18,0.18,30.92
37756,752.15,754.56,752.39,747.52,751.66,-52.25,-937.99,424.80,-0.27,1.87,-0.32,29.29
37788,752.12,754.59,752.39,747.64,751.68,-60.06,-930.66,431.64,-2.37,2.15,-1.11,27.23
37820,752.15,754.53,752.45,747.47,751.65,-55.66,-935.55,416.02,-0.75,0.02,-0.75,31.60
37851,752.13,754.57,752.41,747.50,751.65,-61.04,-930.18,420.41,0.20,-0.15,-1.08,30.01
37883,752.16,754.58,752.45,747.61,751.70,-63.96,-932.62,422.85,0.73,0.48,0.43,29.21
37915,752.22,754.54,752.39,747.59,751.68,-63.96,-933.11,409.18,-2.86,2.31,-1.76,28.17
37946,752.12,754.59,752.45,747.52,751.67,-70.31,-942.38,422.36,-0.88,-1.65,1.62,30.72
37978,752.20,754.62,752.42,747.57,751.70,-58.59,-930.18,417.97,-0.95,1.73,1.63,28.70
38010,752.13,754.61,752.45,747.61,751.70,-64.94,-931.15,421.87,-0.60,0.94,0.20,29.05
38042,752.11,754.63,752.41,747.59,751.69,-64.94,-937.01,409.67,-0.69,1.53,-1.18,28.24
38073,752.12,754.54,752.50,747.59,751.69,-69.82,-933.59,416.02,-1.39,0.88,0.12,31.13
38107,752.16,754.59,752.42,747.58,751.69,-64.94,-932.62,423.34,-0.22,0.17,0.58,28.75
38138,752.19,754.54,752.41,747.60,751.69,-64.94,-928.22,424.32,0.24,-0.24,-1.73,28.38
38170,752.22,754.63,752.40,747.56,751.70,-54.20,-935.55,412.11,-1.21,-1.19,-0.08,28.04
38202,752.14,754.62,752.34,747.55,751.66,-62.99,-928.71,419.92,-2.25,-0.14,-0.11,27.00
38234,752.21,754.66,752.38,747.56,751.70,-77.15,-930.66,416.99,-0.31,-2.25,-1.95,27.39
38265,752.18,754.62,752.44,747.57,751.70,-65.92,-918.46,412.11,0.26,-0.59,0.11,29.10
38297,752.19,754.60,752.45,747.59,751.71,-57.13,-935.55,424.80,-1.40,-1.73,0.66,29.36
38329,752.13,754.62,752.45,747.58,751.69,-65.43,-928.71,429.20,0.13,-1.40,-0.32,29.36
38360,752.16,754.60,752.50,747.56,751.71,-56.15,-921.39,412.11,0.58,0.20,0.83,30.86
38391,752.13,754.64,752.46,747.53,751.69,-63.96,-932.13,413.09,-0.08,-0.44,-2.21,30.20
38422,752.12,754.69,752.48,747.65,751.74,-67.87,-937.01,410.64,-1.59,-0.63,-1.50,28.48
38453,752.15,754.67,752.45,747.53,751.70,-69.34,-924.32,420.90,0.56,0.70,0.67,29.78
38484,752.15,754.70,752.44,747.59,751.72,-67.38,-921.87,418.46,-0.05,0.98,-0.60,28.24
38516,752.14,754.63,752.49,747.58,751.71,-57.13,-932.13,422.36,-1.31,-0.24,-0.20,30.24
38548,752.21,754.70,752.41,747.62,751.73,-75.20,-937.99,411.13,-0.25,-0.20,1.75,27.04
38579,752.14,754.67,752.42,747.60,751.71,-54.20,-928.71,419.92,1.08,0.90,2.14,28.00
38611,752.16,754.64,752.38,747.60,751.70,-60.55,-932.62,417.97,-0.79,-0.15,-2.02,27.09
38642,752.18,754.68,752.43,747.69,751.74,-53.22,-917.48,420.90,0.51,-0.51,-0.73,26.62
38673,752.14,754.69,752.42,747.71,751.74,-69.82,-919.92,427.73,-0.11,2.34,-0.50,26.23
38705,752.20,754.71,752.51,747.69,751.78,-60.55,-929.69,419.92,0.04,1.49,-0.10,28.42
38736,752.11,754.74,752.44,747.63,751.73,-68.36,-921.39,419.92,-0.11,0.81,-0.70,27.52
38768,752.18,754.69,752.46,747.72,751.76,-63.48,-950.68,416.02,1.53,1.95,0.71,26.71
38800,752.13,754.71,752.46,747.64,751.73,-48.34,-935.06,419.92,-0.82,1.02,-0.02,28.07
38832,752.10,754.71,752.43,747.69,751.73,-70.80,-931.15,420.90,0.72,-0.27,-1.63,26.75
38863,752.14,754.64,752.40,747.66,751.71,-78.12,-931.64,424.80,1.26,-0.06,-0.50,26.92
38895,752.19,754.76,752.48,747.72,751.79,-59.57,-932.13,418.95,-1.98,-0.11,-0.05,26.74
38927,752.18,754.74,752.41,747.70,751.76,-63.48,-931.15,413.09,-1.39,0.95,-1.34,25.36
38958,752.17,754.71,752.48,747.65,751.75,-68.36,-922.85,425.78,0.48,-1.68,-0.34,28.43
38992,752.21,754.71,752.48,747.68,751.77,-59.08,-937.01,421.39,0.16,-0.30,-2.11,27.65
39024,752.19,754.67,752.44,747.70,751.75,-68.36,-925.78,421.39,2.13,0.39,-1.66,26.80
39055,752.21,754.70,752.49,747.67,751.77,-59.57,-928.22,417.48,-0.10,-0.18,1.96,28.21
39087,752.19,754.71,752.44,747.73,751.77,-58.59,-939.45,418.95,-0.59,0.31,-1.07,26.05
39119,752.13,754.66,752.44,747.73,751.74,-64.45,-935.06,423.34,-0.34,1.24,0.03,26.56
39150,752.18,754.70,752.33,747.76,751.74,-57.13,-933.11,423.34,-0.85,-1.63,-2.01,22.95
39182,752.14,754.69,752.41,747.79,751.76,-56.64,-944.82,424.32,-3.31,-1.28,0.44,24.67
39214,752.22,754.73,752.46,747.74,751.79,-62.99,-938.96,416.50,1.18,0.13,0.57,26.15
39246,752.14,754.72,752.39,747.75,751.75,-68.85,-935.06,415.53,-1.25,-0.45,-1.44,24.54
39277,752.08,754.80,752.53,747.73,751.79,-63.96,-937.50,413.09,-2.81,0.21,-0.31,27.79
39309,752.17,754.65,752.45,747.73,751.75,-75.20,-931.64,418.46,-0.88,0.33,1.15,26.90
39341,752.19,754.67,752.40,747.76,751.75,-56.64,-928.22,424.32,0.53,1.26,-1.46,24.84
39372,752.18,754.65,752.33,747.79,751.74,-71.29,-927.25,427.73,-0.32,0.38,-1.37,23.00
39404,752.15,754.65,752.49,747.84,751.78,-57.13,-930.18,414.55,2.71,0.17,0.76,26.32
39436,752.18,754.72,752.39,747.76,751.76,-49.32,-925.78,425.78,1.02,-0.32,0.02,24.33
39468,752.15,754.67,752.46,747.72,751.75,-62.99,-922.85,414.06,-1.77,2.39,0.03,27.19
39499,752.14,754.70,752.52,747.73,751.77,-66.89,-934.57,419.92,-0.95,-0.97,0.37,28.22
39531,752.10,754.76,752.50,747.76,751.78,-61.52,-925.29,426.27,-0.60,0.18,-0.11,27.03
39563,752.12,754.72,752.46,747.78,751.77,-80.57,-935.06,424.32,-2.52,-1.07,-1.36,26.04
39594,752.16,754.68,752.53,747.77,751.79,-55.66,-929.69,417.97,0.14,-0.04,-0.87,28.00
39626,752.12,754.73,752.47,747.71,751.76,-62.50,-921.87,426.76,2.50,0.71,0.73,27.11
39658,752.17,754.70,752.53,747.70,751.77,-75.20,-925.78,426.76,-1.53,-1.14,-1.79,28.86
39689,752.17,754.62,752.49,747.79,751.77,-57.13,-928.71,401.37,-0.40,0.37,-1.28,27.12
39721,752.15,754.65,752.48,747.76,751.76,-48.34,-935.55,422.85,1.01,-0.85,-1.35,27.26
39753,752.18,754.69,752.48,747.78,751.78,-70.80,-925.78,418.46,-1.11,0.21,1.06,26.62
39785,752.16,754.67,752.47,747.75,751.76,-56.64,-924.80,410.64,-0.50,1.52,0.56,27.03
39816,752.15,754.67,752.40,747.78,751.75,-58.59,-937.50,406.25,0.20,0.98,-1.69,24.64
39847,752.14,754.76,752.40,747.85,751.79,-61.04,-935.06,418.46,-0.21,-0.10,0.56,23.05
39880,752.17,754.68,752.51,747.76,751.78,-67.87,-926.27,421.39,-0.56,-0.36,-3.76,27.67
39911,752.13,754.81,752.47,747.73,751.79,-76.17,-938.48,421.87,-0.43,1.23,2.98,26.24
39943,752.15,754.80,752.49,747.81,751.81,-61.52,-917.97,435.06,-1.47,-2.91,-3.29,25.56
39974,752.10,754.79,752.40,747.86,751.79,-62.50,-932.13,405.76,-0.50,-1.56,-0.02,22.92
40005,752.11,754.76,752.48,747.84,751.80,-62.99,-928.71,421.39,0.97,1.30,3.38,25.35
40037,752.09,754.79,752.48,747.80,751.79,-68.36,-925.29,420.90,-0.44,-0.15,-1.85,25.74
40068,752.11,754.75,752.50,747.83,751.80,-61.52,-928.71,416.50,0.19,0.02,-0.18,25.93
40100,752.15,754.75,752.47,747.90,751.82,-62.01,-936.52,406.74,-0.19,2.18,-0.56,24.08
40131,752.15,754.77,752.47,747.84,751.81,-61.52,-929.69,407.71,-0.30,-0.74,-1.80,24.85
40162,752.12,754.81,752.43,747.82,751.80,-71.78,-929.20,418.95,-0.79,-0.35,-2.49,23.96
40194,752.25,754.75,752.52,747.82,751.84,-62.01,-947.75,422.36,-2.89,1.25,-0.60,26.16
40225,752.15,754.75,752.44,747.86,751.80,-65.43,-937.50,418.46,0.44,-1.10,-0.56,24.00
40257,752.16,754.81,752.45,747.82,751.81,-72.27,-928.71,418.46,-1.89,0.14,-0.53,24.28
40289,752.11,754.83,752.49,747.87,751.83,-67.38,-931.64,421.87,-2.05,1.59,-0.07,24.47
40320,752.17,754.80,752.51,747.83,751.83,-61.52,-927.25,411.13,-1.61,-0.85,0.44,25.81
40352,752.18,754.78,752.51,747.90,751.84,-64.94,-946.29,412.60,1.23,1.67,-0.94,24.61
40384,752.13,754.76,752.45,747.86,751.80,-61.04,-928.71,418.95,-1.24,2.66,-2.95,24.09
40415,752.14,754.73,752.53,747.86,751.82,-58.11,-934.57,413.09,-0.39,-0.36,-1.22,26.33
40447,752.20,754.72,752.42,747.88,751.81,-60.55,-926.76,425.29,-2.16,-1.82,0.21,23.28
40479,752.14,754.80,752.47,747.79,751.80,-41.99,-935.55,408.69,-0.53,-0.49,2.84,25.27
40511,752.15,754.75,752.45,747.84,751.80,-64.94,-933.59,416.50,-0.25,2.43,1.20,24.67
40542,752.11,754.76,752.47,747.90,751.81,-70.31,-933.59,404.30,-1.05,1.65,-0.09,24.33
40574,752.13,754.82,752.51,747.89,751.84,-66.41,-929.20,404.79,0.37,0.92,0.92,24.64
40606,752.13,754.79,752.49,747.90,751.83,-65.92,-930.66,414.55,-0.56,2.04,-0.63,24.37
40637,752.13,754.79,752.42,747.95,751.82,-67.87,-932.13,419.43,-0.02,-1.40,-0.06,22.00
40669,752.14,754.81,752.49,747.89,751.83,-59.08,-933.59,414.06,-1.40,0.43,-0.11,24.27
40701,752.10,754.86,752.49,747.89,751.84,-65.43,-923.83,416.99,1.57,-1.15,0.24,24.04
40733,752.21,754.81,752.49,747.83,751.84,-62.99,-929.20,412.60,-0.88,-0.44,1.89,24.75
40766,752.17,754.79,752.43,747.93,751.83,-59.57,-925.78,419.92,-1.68,3.16,-0.73,22.22
40798,752.19,754.78,752.50,747.92,751.85,-68.36,-937.99,419.92,0.57,0.20,-1.63,24.10
40829,752.11,754.85,752.53,747.92,751.85,-51.27,-933.59,415.53,-1.25,0.31,-0.56,24.62
40861,752.22,754.80,752.51,747.97,751.88,-61.04,-927.73,406.74,-1.02,-1.36,-0.98,23.45
40893,752.20,754.86,752.47,747.96,751.87,-59.08,-933.59,409.18,0.32,-1.66,-0.47,22.27
40925,752.17,754.87,752.49,748.03,751.89,-65.92,-931.15,422.85,-1.18,0.82,0.20,21.75
40956,752.19,754.80,752.48,748.00,751.87,-60.55,-934.08,424.32,-1.72,0.58,1.26,22.24
40988,752.21,754.80,752.47,748.06,751.89,-63.48,-921.39,415.53,0.90,2.24,-1.24,21.13
41020,752.15,754.78,752.50,747.99,751.86,-61.52,-930.66,415.53,-1.63,1.16,-0.68,23.33
41051,752.23,754.78,752.44,748.00,751.86,-51.27,-927.73,407.23,-0.92,-2.51,-1.05,21.39
41083,752.18,754.72,752.44,748.00,751.83,-60.55,-930.66,411.62,0.47,2.24,1.13,22.06
41115,752.17,754.77,752.45,748.05,751.86,-56.15,-937.01,418.46,0.06,-1.97,-0.94,21.26
41147,752.12,754.81,752.42,748.02,751.84,-71.78,-927.25,414.55,-2.47,-0.28,-1.46,20.64
41178,752.25,754.83,752.49,748.09,751.92,-60.55,-930.66,421.39,1.18,2.60,2.17,20.93
41210,752.17,754.77,752.48,748.04,751.86,-58.59,-939.45,415.04,-0.21,1.66,3.28,22.18
41242,752.19,754.80,752.49,747.95,751.86,-74.22,-938.48,423.83,-0.05,-0.77,-1.69,23.42
41273,752.25,754.76,752.49,747.94,751.86,-56.15,-931.15,424.32,-0.21,1.91,0.31,23.55
41305,752.19,754.80,752.51,748.00,751.88,-60.06,-934.08,418.95,-0.69,2.54,-0.71,23.15
41336,752.20,754.77,752.45,748.00,751.85,-73.73,-932.62,419.43,-1.04,0.92,-0.02,21.91
41367,752.13,754.80,752.42,748.05,751.85,-65.43,-929.20,435.55,-0.92,-0.18,0.17,20.13
41399,752.13,754.80,752.53,748.08,751.88,-54.69,-941.41,418.95,-2.35,-0.22,-0.91,22.64
41430,752.14,754.83,752.45,748.05,751.87,-56.64,-925.29,418.95,-1.04,1.61,1.11,20.72
41461,752.22,754.85,752.44,748.10,751.90,-59.57,-942.87,412.60,0.37,2.12,1.13,19.24
41492,752.16,754.79,752.46,748.09,751.87,-64.94,-931.64,423.34,-0.22,-0.05,-1.33,20.61
41524,752.19,754.81,752.48,748.06,751.89,-82.52,-926.27,419.92,1.99,-1.37,-1.76,21.41
41555,752.18,754.75,752.45,748.03,751.85,-58.11,-937.99,408.69,2.14,-0.08,-0.89,21.46
41587,752.11,754.79,752.53,748.11,751.89,-57.62,-933.59,418.46,-1.08,-0.29,-1.79,22.22
41618,752.16,754.71,752.49,748.02,751.84,-69.82,-942.87,419.92,2.05,-1.54,-1.31,22.95
41651,752.11,754.74,752.47,748.06,751.85,-70.80,-926.76,422.85,-0.24,-1.69,-2.31,22.05
41682,752.12,754.77,752.46,748.04,751.85,-55.66,-935.55,418.95,1.40,2.11,-0.40,21.57
41714,752.14,754.85,752.47,748.07,751.88,-71.78,-942.87,421.39,-1.08,0.68,-4.35,20.79
41746,752.09,754.88,752.43,748.10,751.87,-61.04,-927.73,414.06,-1.89,-0.03,-0.72,19.26
41777,752.09,754.74,752.52,747.99,751.84,-42.97,-937.99,411.62,-0.55,-1.40,-0.47,24.40
41809,752.14,754.83,752.51,748.08,751.89,-48.83,-933.11,422.85,-0.80,-0.92,-1.50,21.77
41841,752.09,754.82,752.42,748.12,751.86,-65.92,-931.64,429.69,-0.60,-0.10,1.00,19.24
41872,752.06,754.78,752.48,748.11,751.86,-65.92,-930.18,416.99,-0.71,-0.18,-0.50,21.21
41904,752.20,754.78,752.48,748.04,751.87,-58.11,-938.96,422.85,0.12,1.44,-0.32,21.91
41936,752.17,754.84,752.47,748.12,751.90,-60.55,-937.99,419.92,0.17,0.85,-1.25,20.14
41968,752.11,754.75,752.42,748.06,751.83,-63.96,-922.85,413.09,0.76,2.00,-1.83,20.82
41999,752.20,754.81,752.42,748.03,751.87,-64.94,-933.11,410.64,-0.31,1.63,-3.02,20.33
42031,752.17,754.83,752.45,748.12,751.89,-57.62,-936.04,418.95,0.27,0.89,-1.24,19.72
42063,752.15,754.81,752.40,748.12,751.87,-60.55,-921.39,412.11,1.05,1.46,-1.72,18.59
42094,752.12,754.83,752.49,748.13,751.89,-66.41,-924.32,416.50,-2.11,0.56,0.49,20.73
42126,752.22,754.80,752.50,748.08,751.90,-62.99,-929.20,416.50,-1.71,1.56,-2.05,21.56
42158,752.17,754.82,752.50,748.07,751.89,-61.04,-925.29,413.57,-1.02,1.11,0.15,21.85
42190,752.20,754.83,752.42,748.11,751.89,-66.41,-933.59,419.92,-2.16,-1.74,-1.02,18.81
42221,752.20,754.90,752.49,748.13,751.93,-55.18,-927.25,431.64,2.28,-2.27,1.23,19.82
42253,752.17,754.75,752.46,748.11,751.87,-64.45,-932.13,407.23,-2.75,1.76,0.36,20.63
42285,752.20,754.85,752.47,748.09,751.90,-75.20,-936.04,412.11,-0.83,-0.01,0.40,20.28
42316,752.19,754.83,752.46,748.07,751.89,-61.52,-926.27,410.16,-0.69,0.47,-0.20,20.54
42348,752.11,754.84,752.40,748.09,751.86,-57.62,-929.20,419.43,-0.90,1.18,-1.95,19.03
42380,752.16,754.86,752.48,748.17,751.92,-59.57,-934.08,425.78,-0.03,-0.79,-1.79,19.31
42412,752.22,754.84,752.48,748.16,751.92,-66.89,-927.25,421.87,-0.77,1.59,1.92,19.52
42443,752.16,754.76,752.48,748.11,751.88,-63.96,-930.66,410.64,0.91,1.55,-0.15,21.20
42475,752.17,754.83,752.42,748.12,751.89,-61.52,-929.69,406.74,-0.58,-0.35,-2.02,18.96
42507,752.24,754.79,752.50,748.17,751.93,-68.36,-929.69,406.74,1.07,0.25,-0.83,20.11
42540,752.15,754.84,752.47,748.17,751.91,-51.27,-937.50,419.43,-0.73,1.73,-0.43,19.40
42572,752.16,754.85,752.45,748.13,751.90,-64.45,-935.06,420.41,0.37,2.87,0.30,19.42
42603,752.15,754.73,752.49,748.18,751.89,-58.59,-929.20,412.60,1.85,-1.15,1.22,20.70
42635,752.16,754.88,752.48,748.22,751.94,-62.01,-937.50,424.32,0.07,0.36,-2.32,18.40
42667,752.20,754.80,752.46,748.19,751.91,-64.45,-930.18,422.85,-0.75,2.37,-1.77,18.95
42698,752.18,754.84,752.44,748.19,751.91,-76.17,-934.08,418.46,-0.73,0.89,-2.84,18.29
42730,752.20,754.82,752.49,748.13,751.91,-64.94,-931.64,408.69,-0.39,-1.68,-0.85,20.64
42762,752.19,754.76,752.52,748.15,751.91,-61.52,-932.62,420.41,-1.15,0.47,1.44,21.55
42794,752.21,754.80,752.57,748.15,751.93,-54.69,-937.50,411.13,-1.02,-0.36,0.79,22.34
42825,752.14,754.82,752.52,748.17,751.91,-49.32,-937.99,405.76,-1.51,-3.02,0.71,20.79
42856,752.24,754.74,752.46,748.12,751.89,-79.10,-942.38,413.57,-0.18,0.69,-1.34,20.36
42887,752.13,754.78,752.50,748.16,751.89,-60.55,-936.04,409.18,-1.71,-0.66,0.16,20.86
42918,752.20,754.78,752.51,748.16,751.91,-69.34,-932.62,419.92,0.05,0.08,0.97,20.80
42949,752.19,754.83,752.53,748.12,751.92,-63.96,-932.13,418.46,0.20,-0.63,0.24,21.73
42980,752.24,754.81,752.54,748.20,751.95,-67.38,-936.52,413.57,0.24,2.15,0.64,20.58
43012,752.19,754.81,752.48,748.16,751.91,-68.85,-933.59,422.85,-0.21,0.76,-1.12,20.12
43043,752.16,754.85,752.47,748.21,751.92,-61.04,-924.80,414.06,-1.10,1.05,-2.28,18.68
43075,752.25,754.88,752.47,748.20,751.95,-62.50,-926.76,424.32,-0.37,-0.97,-2.17,18.30
43106,752.18,754.85,752.53,748.18,751.93,-71.78,-923.83,417.48,-1.00,2.18,-1.49,20.38
43138,752.11,754.81,752.54,748.22,751.92,-65.92,-931.64,430.18,-1.31,0.64,-0.79,20.73
43169,752.21,754.87,752.53,748.17,751.94,-66.41,-924.80,420.90,-1.19,-0.15,1.12,20.32
43200,752.23,754.82,752.47,748.22,751.93,-66.41,-934.08,412.60,-1.80,0.32,-3.50,18.46
43232,752.18,754.91,752.48,748.21,751.95,-74.22,-939.45,415.53,-1.63,-0.76,-1.05,18.38
43264,752.23,754.90,752.48,748.22,751.96,-52.25,-931.64,419.92,0.22,-0.36,-0.06,18.22
43295,752.18,754.91,752.51,748.28,751.97,-52.73,-928.71,412.11,-0.07,1.27,0.69,18.04
43327,752.23,754.88,752.50,748.29,751.98,-69.34,-934.57,419.92,-0.68,2.05,-1.27,17.89
43359,752.25,754.89,752.41,748.28,751.96,-59.57,-938.96,420.90,-2.28,-0.31,1.53,15.60
43391,752.17,754.85,752.49,748.24,751.94,-71.29,-924.32,417.97,-2.11,0.53,0.90,18.60
43424,752.19,754.84,752.50,748.24,751.94,-58.59,-936.04,417.97,0.76,0.24,-0.68,19.11
43456,752.16,754.85,752.52,748.24,751.94,-60.55,-920.90,412.11,-0.11,-1.18,-0.96,19.57
43487,752.16,754.90,752.55,748.34,751.99,-63.96,-929.20,419.43,-0.99,-1.65,-1.85,18.34
43519,752.16,754.81,752.49,748.27,751.93,-65.92,-934.08,416.50,0.93,2.29,1.29,18.55
43551,752.19,754.94,752.46,748.28,751.97,-64.45,-935.06,416.99,-0.60,1.39,-0.40,16.56
43582,752.23,754.90,752.45,748.26,751.96,-67.38,-939.45,419.43,-0.15,-0.12,-2.12,16.70
43614,752.21,754.91,752.46,748.32,751.97,-62.01,-928.71,420.90,-0.81,0.61,1.40,16.27
43646,752.27,754.84,752.43,748.27,751.95,-77.64,-926.27,412.11,0.50,-0.31,1.46,16.49
43677,752.20,754.83,752.49,748.31,751.96,-59.08,-927.73,412.60,-1.11,-0.84,-1.54,17.72
43709,752.20,754.95,752.48,748.28,751.98,-65.92,-928.71,413.09,1.24,-0.19,-0.50,16.87
43741,752.21,754.89,752.46,748.31,751.97,-64.45,-937.50,419.92,-1.08,-0.21,2.02,16.38
43772,752.07,754.82,752.40,748.27,751.89,-60.06,-943.36,416.50,0.21,0.41,1.32,16.74
43804,752.19,754.90,752.47,748.26,751.96,-69.82,-918.46,422.85,0.25,-0.61,-1.46,17.32
43836,752.17,754.86,752.49,748.25,751.94,-68.85,-932.62,416.99,-1.45,0.24,1.26,18.50
43867,752.24,754.87,752.52,748.32,751.99,-64.94,-943.85,419.43,-0.14,-0.63,-1.21,17.95
43899,752.29,754.87,752.48,748.27,751.98,-60.06,-924.80,416.02,1.66,1.58,-0.66,17.46
