currTime,s1,s2,s3,s4,s,AccX,AccY,AccZ,GyroX,GyroY,GyroZ,GRF
27,773.80,781.51,763.77,771.17,772.56,-62.99,-886.72,521.48,2.14,1.18,0.82,-325.65
63,774.36,781.29,763.70,770.88,772.56,-17.09,-890.14,524.41,-0.87,1.32,0.71,-323.46
99,774.87,781.22,763.66,770.73,772.62,-29.79,-872.07,521.97,2.11,0.35,-0.50,-323.35
135,775.59,781.11,763.60,770.66,772.74,-31.74,-882.81,497.56,-1.24,1.25,0.67,-325.34
170,776.23,781.04,763.53,770.48,772.82,-30.76,-873.54,507.81,1.27,2.68,1.13,-326.28
206,776.61,780.90,763.43,770.36,772.83,-33.69,-903.32,516.60,-1.87,0.58,-1.22,-327.00
247,776.88,780.80,763.42,770.33,772.86,-27.34,-888.67,514.65,-0.92,2.12,-2.46,-327.05
283,776.99,780.85,763.52,770.21,772.89,-19.53,-881.35,520.02,0.66,-0.86,-0.21,-323.59
319,777.14,780.63,763.46,770.21,772.86,-27.83,-885.74,515.62,1.79,1.38,-1.74,-323.79
356,777.35,780.61,763.45,770.21,772.91,-22.46,-887.70,521.97,0.37,2.27,0.38,-324.59
392,777.37,780.68,763.40,770.14,772.90,-24.41,-882.81,494.63,-0.92,-1.60,-0.08,-325.36
428,777.46,780.55,763.41,770.05,772.87,-32.71,-872.56,513.67,-0.75,-2.31,1.25,-322.98
467,777.93,780.46,763.24,769.95,772.90,-28.32,-881.35,525.39,-0.41,-0.70,-1.35,-326.71
503,778.27,780.27,763.28,769.88,772.93,-32.23,-877.93,522.46,-0.25,-2.42,-0.15,-324.35
540,778.69,780.25,763.31,769.72,772.99,-42.48,-879.88,529.30,0.01,0.66,0.35,-322.73
577,779.02,780.17,763.22,769.67,773.02,-25.88,-876.95,525.39,-0.38,-0.53,-2.40,-324.72
613,779.31,780.06,763.14,769.54,773.02,-23.44,-871.09,525.39,-0.50,1.55,1.56,-324.75
649,779.62,779.97,763.14,769.39,773.03,-27.34,-885.74,522.46,0.49,0.49,0.10,-323.12
688,780.01,779.88,763.08,769.26,773.06,-29.79,-881.35,521.97,0.12,0.92,1.42,-323.06
724,780.29,779.89,763.09,769.37,773.16,-41.02,-885.25,514.16,-0.56,0.37,2.51,-325.56
760,780.65,779.81,763.08,769.17,773.18,-34.67,-880.86,522.95,-1.97,0.92,-0.45,-323.41
797,781.06,779.64,763.11,769.17,773.24,-20.02,-884.77,521.00,0.68,1.50,-1.61,-322.72
833,781.27,779.51,763.01,768.99,773.20,-35.16,-872.07,515.62,-3.32,2.69,0.76,-322.35
869,781.45,779.47,762.92,768.86,773.18,-32.23,-872.56,524.41,0.26,0.64,-1.80,-322.97
908,781.71,779.52,762.90,768.96,773.27,-29.79,-876.46,512.70,1.21,0.66,-0.13,-326.19
944,781.76,779.48,762.94,768.90,773.27,-25.39,-885.74,512.21,-3.21,1.37,0.11,-324.08
980,781.81,779.21,762.93,768.85,773.20,-20.51,-883.79,519.04,-0.31,-1.46,-0.61,-321.46
1016,781.83,779.28,762.88,768.87,773.22,-31.74,-888.67,514.16,-0.20,-1.42,-2.57,-323.94
1052,781.95,779.09,762.88,768.85,773.19,-31.25,-882.32,518.07,1.20,1.05,-0.34,-322.38
1091,781.99,779.01,762.84,768.71,773.14,-23.44,-882.32,516.11,0.78,-1.05,-0.30,-320.78
1127,782.07,779.04,762.86,768.68,773.16,-31.25,-890.14,527.83,-0.38,-1.59,-2.07,-320.57
1163,782.28,778.97,762.85,768.70,773.20,-29.79,-872.07,521.48,-1.76,1.18,-1.64,-321.06
1199,782.35,778.95,762.86,768.63,773.20,-16.11,-866.21,507.32,0.37,1.06,-0.66,-319.85
1236,782.40,778.69,762.75,768.56,773.10,-14.16,-891.11,528.81,2.37,0.98,0.17,-319.87
1272,782.50,778.69,762.83,768.58,773.15,-33.20,-882.81,507.81,0.28,-0.84,1.24,-318.41
1311,782.69,778.64,762.74,768.58,773.16,-13.67,-875.00,521.48,-0.15,-2.34,-1.11,-320.97
1347,782.91,778.54,762.75,768.73,773.23,-30.76,-887.21,515.62,-1.22,3.24,1.26,-322.65
1384,782.94,778.39,762.77,768.62,773.18,-16.60,-893.55,511.23,0.14,1.82,-1.39,-319.45
1420,782.73,778.32,762.72,768.57,773.08,-21.00,-874.02,520.51,-0.27,2.69,0.01,-318.71
1456,782.54,778.23,762.79,768.69,773.06,-43.95,-884.77,508.30,-1.51,-1.32,2.61,-317.38
1493,782.39,778.27,762.87,768.77,773.08,-24.90,-891.60,518.07,0.96,0.95,-0.73,-316.33
1532,781.97,778.27,762.87,768.97,773.02,-30.27,-875.00,528.32,-1.22,-0.15,-3.08,-317.88
1568,781.74,778.48,762.90,769.17,773.07,-24.41,-887.21,522.46,0.61,-0.15,-1.28,-321.04
1605,781.57,778.62,762.91,769.30,773.10,-23.93,-887.70,514.16,-0.76,0.98,0.31,-323.19
1641,781.03,778.78,763.04,769.44,773.07,-30.27,-878.42,520.02,0.01,1.30,2.42,-321.42
1677,780.66,778.98,763.10,769.62,773.09,-48.34,-884.77,519.04,-1.85,0.15,-1.32,-322.99
1714,780.28,779.08,763.12,769.77,773.06,-30.27,-849.61,572.27,0.18,-2.29,0.15,-324.09
2008,780.68,779.95,763.56,771.42,773.90,-35.16,-881.84,525.88,2.09,-1.05,0.43,-345.76
2267,778.37,782.11,764.43,773.97,774.72,-19.53,-866.70,520.02,-1.44,-0.39,0.94,-371.15
2539,776.26,782.89,765.04,775.75,774.98,104.00,-866.21,503.91,1.21,-2.21,1.81,-381.04
2811,775.80,782.86,765.10,775.82,774.90,-21.00,-881.84,529.30,-1.53,1.72,-3.31,-378.93
3073,775.34,782.31,765.04,775.41,774.52,-21.00,-879.39,517.58,1.04,1.82,-0.35,-368.19
3342,776.06,781.29,764.51,774.08,773.99,-32.71,-885.25,531.25,1.59,-1.82,-0.45,-356.07
3597,776.23,781.36,764.62,774.07,774.07,-16.11,-869.63,524.41,-1.02,0.75,0.16,-354.46
3633,776.29,781.37,764.60,774.22,774.12,-29.30,-874.02,531.74,-1.36,2.89,-0.34,-357.44
3670,776.21,781.46,764.63,774.35,774.16,-21.48,-879.88,534.18,-0.43,-0.29,-0.25,-359.09
3706,776.32,781.50,764.68,774.49,774.25,-27.34,-875.49,519.53,-1.89,1.98,-2.24,-360.71
3742,776.40,781.47,764.67,774.46,774.25,-18.55,-873.54,513.67,-1.66,-0.53,-0.79,-360.36
3778,776.53,781.62,764.71,774.41,774.32,-20.51,-889.65,533.20,-0.50,2.56,1.65,-360.31
3816,776.72,781.61,764.75,774.43,774.38,-29.79,-884.28,538.09,0.42,0.91,0.23,-360.36
3852,776.70,781.55,764.69,774.36,774.33,-21.97,-870.61,520.51,0.95,-0.21,-0.15,-360.05
3888,776.81,781.43,764.70,774.36,774.33,-27.34,-882.32,531.74,-0.52,1.26,1.49,-359.22
3924,777.03,781.39,764.66,774.34,774.36,-37.11,-889.16,528.81,0.42,0.40,-0.59,-360.31
3960,777.12,781.20,764.52,774.31,774.29,-23.44,-871.58,529.79,-1.13,-0.93,-0.97,-362.20
3996,777.22,781.18,764.73,774.17,774.32,-26.37,-869.14,538.57,-1.84,1.67,0.66,-355.16
4035,777.26,781.13,764.53,774.09,774.25,-18.55,-882.81,529.79,-1.65,-1.24,-1.36,-358.67
4070,777.32,781.07,764.58,773.94,774.23,-20.02,-871.09,541.02,-0.23,0.88,-0.60,-354.97
4106,777.65,780.98,764.43,773.82,774.22,-27.34,-871.09,527.34,0.56,-0.44,-0.56,-357.33
4142,777.96,780.79,764.42,773.65,774.20,-13.67,-879.39,518.55,-0.44,-0.89,-2.16,-354.68
4178,778.40,780.85,764.43,773.54,774.30,-18.07,-869.63,530.76,1.25,1.35,0.79,-354.86
4216,778.78,780.80,764.36,773.58,774.38,-25.39,-887.70,527.34,0.54,1.00,-0.95,-357.87
4252,779.13,780.79,764.37,773.52,774.45,-29.30,-877.93,534.18,1.36,-2.16,-0.82,-357.90
4288,779.40,780.90,764.35,773.56,774.55,-29.79,-875.00,531.74,0.56,0.79,0.31,-360.91
4323,779.71,780.95,764.33,773.66,774.66,-21.48,-881.35,533.69,1.14,2.37,1.43,-364.32
4359,780.27,781.07,764.40,773.78,774.88,-20.02,-866.70,534.67,0.52,0.78,0.66,-367.19
4395,781.20,781.21,764.46,773.96,775.21,-15.63,-868.65,527.34,2.26,0.11,0.33,-372.75
4435,782.01,781.34,764.48,773.89,775.43,-27.83,-869.14,523.44,1.28,0.18,-2.54,-375.01
4471,782.17,781.14,764.47,773.68,775.36,-31.74,-871.09,534.67,-0.52,-1.71,-0.63,-370.90
4507,781.87,781.07,764.42,773.50,775.21,-26.37,-867.19,536.13,-0.11,-0.77,-0.51,-367.99
4544,781.37,780.82,764.28,773.37,774.96,-30.27,-859.37,546.39,-5.27,3.31,0.92,-365.96
4580,780.75,780.74,764.31,773.27,774.77,-25.39,-867.68,536.62,-2.06,-1.37,-0.87,-361.10
4616,780.07,780.56,764.26,773.23,774.53,-17.58,-884.77,541.50,-0.21,0.76,-1.57,-357.72
4655,779.68,780.53,764.42,773.15,774.45,-24.41,-865.23,540.04,-0.44,-0.30,-0.29,-350.99
4690,779.86,780.61,764.33,773.24,774.51,-24.41,-868.65,536.62,1.76,0.46,-0.53,-355.84
4727,779.90,780.69,764.32,773.38,774.57,-39.55,-885.25,523.93,0.83,-1.98,1.29,-358.99
4763,780.36,780.66,764.37,773.51,774.73,-34.67,-874.02,528.81,2.60,-0.02,-0.92,-360.84
4799,780.52,780.78,764.46,774.00,774.94,-21.97,-865.72,552.25,-0.37,0.62,-1.47,-367.47
4835,779.70,780.89,764.62,774.52,774.93,-21.97,-885.74,537.60,-2.55,-2.08,1.08,-369.21
4874,777.38,780.53,764.59,774.33,774.21,-29.30,-874.02,551.76,-9.20,-0.97,0.17,-356.26
4910,773.95,780.09,764.60,774.10,773.18,-0.98,-862.79,512.21,-19.51,1.04,-2.29,-337.49
4945,768.37,779.10,764.50,773.20,771.29,-33.69,-889.65,491.21,-42.05,6.15,-3.56,-299.37
4982,761.31,776.54,763.87,770.12,767.96,-21.48,-957.03,449.71,-70.07,18.92,-13.30,-225.18
5018,755.95,772.51,762.57,765.26,764.07,-121.58,-1070.80,406.25,-58.92,5.41,-23.62,-135.11
5054,755.32,767.74,761.00,761.11,761.30,9.28,-989.26,443.85,-29.48,-26.74,-64.67,-72.85
5092,754.87,764.75,759.82,759.29,759.68,-85.94,-1166.99,312.01,-69.98,34.66,-66.76,-50.04
5129,754.95,763.28,759.03,758.69,758.99,-330.57,-662.11,412.60,-70.40,123.63,-43.62,-49.22
5165,754.92,762.64,758.85,758.44,758.71,-492.68,-937.01,434.08,33.98,181.80,17.15,-44.97
5200,754.75,762.14,758.90,758.38,758.54,-326.17,-666.50,314.94,10.20,203.97,10.27,-38.17
5237,754.54,761.86,758.84,758.38,758.41,-259.28,-841.31,322.75,0.28,190.88,-11.95,-36.75
5275,754.38,761.62,758.83,758.35,758.30,-124.02,-937.50,398.44,-24.37,165.20,-13.83,-34.05
5311,754.19,761.57,758.77,758.33,758.21,-38.57,-958.50,430.66,-21.83,155.05,2.04,-34.26
5347,754.13,761.46,758.77,758.30,758.16,133.30,-893.07,514.16,-19.50,139.08,-15.52,-32.74
5384,754.08,761.44,758.68,758.36,758.14,201.66,-910.16,535.64,-4.21,126.50,-33.76,-35.55
5420,754.86,761.68,758.70,758.29,758.38,324.22,-1259.28,757.81,37.38,81.76,-51.34,-38.49
5456,757.15,761.77,758.65,758.37,758.99,85.45,-1124.51,525.88,47.30,36.05,-65.44,-49.41
5500,773.17,764.23,758.97,759.64,764.00,439.94,-1452.15,492.68,137.73,-83.66,-57.34,-135.00
5536,787.27,767.03,759.55,763.04,769.22,-154.30,-1013.18,441.41,56.13,-19.54,-11.15,-241.35
5572,804.06,771.02,760.45,767.95,775.87,9.77,-867.19,562.99,24.98,-1.89,-6.32,-380.81
5608,819.43,775.61,761.55,773.12,782.43,1.95,-880.86,577.15,24.60,-6.32,-9.44,-518.98
5644,826.92,779.43,762.55,776.64,786.38,-12.70,-885.74,525.39,13.66,4.48,-8.50,-602.21
5680,829.99,783.02,763.41,779.53,788.98,-34.67,-877.93,518.07,6.24,4.95,-8.27,-662.78
5721,828.78,785.59,764.07,781.83,790.07,-12.70,-897.95,529.79,2.33,0.57,-2.43,-696.71
5757,824.10,786.51,764.42,782.62,789.41,-28.81,-895.51,524.90,0.23,1.53,-3.82,-690.75
5793,818.63,787.04,764.70,783.08,788.36,-26.86,-889.16,520.02,0.11,2.23,-2.78,-676.27
5829,814.25,787.45,764.85,783.05,787.40,-12.21,-870.12,530.27,1.18,5.90,-2.99,-660.12
5865,811.09,788.08,764.99,782.95,786.78,-21.00,-875.98,529.79,0.43,8.55,-3.44,-649.52
5901,809.58,788.88,765.10,783.06,786.66,-11.72,-876.95,521.48,1.34,6.30,-1.88,-649.48
5940,809.59,789.92,765.16,783.03,786.93,-0.98,-861.82,544.92,-3.20,8.01,-3.39,-656.14
5976,810.25,790.55,765.16,782.55,787.13,-21.97,-869.63,542.97,-2.11,8.02,-3.41,-656.14
6012,810.62,791.21,765.26,782.45,787.38,-66.41,-892.58,519.04,-5.62,9.45,-1.73,-658.81
6048,809.53,792.75,765.61,783.50,787.85,-59.57,-877.93,477.05,0.76,5.96,-2.98,-674.12
6084,804.99,795.03,766.35,785.79,788.04,-47.85,-897.46,511.23,-5.04,6.79,-5.82,-692.14
6122,798.50,798.43,767.78,790.98,788.92,-56.15,-946.29,479.00,9.22,-3.38,-5.05,-737.85
6158,789.24,801.41,770.15,798.18,789.74,-39.06,-919.92,488.77,-5.15,-5.00,-7.40,-776.91
6195,776.08,803.02,773.39,806.23,789.68,-38.57,-961.43,509.28,-30.02,1.07,-13.98,-782.47
6231,762.52,801.78,777.07,811.57,788.23,-53.71,-1031.74,487.79,-55.05,5.27,-22.14,-712.91
6267,754.59,792.38,779.25,804.74,782.74,-318.85,-1300.78,610.84,-70.31,-23.37,-35.45,-455.48
6303,753.43,776.85,779.70,787.28,774.32,-357.91,-1647.95,653.81,-40.15,-79.17,-124.08,-58.78
6342,752.87,766.87,773.70,771.92,766.34,-251.46,-1517.09,416.99,-28.73,-77.47,-221.05,99.76
6378,752.67,763.56,765.36,763.46,761.26,7.32,-1947.75,639.16,-87.03,-35.22,-250.14,43.68
6415,752.61,762.51,758.95,759.15,758.30,-302.25,-1557.62,464.84,-67.34,-2.44,-250.14,-43.91
6451,752.83,762.25,759.01,758.94,758.26,-480.96,-1043.95,169.92,130.02,62.76,-95.52,-37.96
6487,752.53,761.61,758.85,758.72,757.93,-634.28,-604.00,297.36,-29.74,100.42,-33.27,-32.37
6523,752.64,761.29,758.93,758.56,757.85,-645.51,-294.43,361.33,-47.04,97.66,71.27,-25.98
6562,752.58,761.14,758.87,758.44,757.76,-370.12,-248.05,515.62,-56.78,111.67,102.97,-24.43
6598,752.62,761.23,758.86,758.31,757.76,-351.07,-409.18,646.48,-49.92,153.05,136.44,-23.50
6635,752.62,761.29,758.92,758.19,757.75,-317.38,-514.65,749.02,-58.95,158.66,157.42,-20.67
6671,752.47,761.48,758.86,758.14,757.74,-134.77,-753.42,847.66,-48.82,125.61,167.83,-22.39
6707,752.44,761.67,758.93,758.17,757.80,172.36,-923.34,814.94,-32.89,123.77,178.71,-22.69
6746,752.26,761.83,758.83,758.18,757.78,560.55,-1125.00,765.62,-47.85,122.86,123.31,-25.95
6782,752.17,761.60,758.77,758.14,757.67,948.73,-1335.45,833.98,-73.11,99.21,62.14,-24.68
6818,752.15,761.31,758.70,758.12,757.57,1479.00,-1449.71,991.21,-59.85,84.79,66.99,-23.75
6854,752.70,761.71,758.45,757.95,757.70,165.53,-2000.00,-665.53,250.13,-99.29,0.88,-32.62
6891,766.87,761.83,758.68,757.98,761.34,525.39,-778.81,1444.34,-37.42,10.79,-95.44,-76.86
6927,791.85,762.58,758.67,758.16,767.81,179.20,-1061.52,957.03,86.85,-2.01,-98.65,-171.49
6966,799.18,765.57,759.08,760.06,770.98,384.77,-1560.55,623.54,25.32,-8.14,-61.50,-238.30
7002,811.92,770.93,760.20,763.69,776.68,-20.51,-927.73,480.47,35.37,12.47,-26.44,-350.61
7038,820.17,775.03,761.41,767.60,781.05,-22.46,-942.87,455.08,14.89,0.64,-10.22,-439.19
7074,823.56,777.48,762.91,771.62,783.89,-16.60,-888.18,515.14,12.70,-0.37,-2.79,-492.33
7110,825.93,778.54,763.98,774.67,785.78,-3.42,-879.88,531.25,0.41,1.08,-0.11,-527.13
7147,825.17,779.50,764.91,776.93,786.63,-40.04,-878.91,505.86,-3.31,3.09,-2.86,-542.14
7188,820.45,781.15,766.03,780.10,786.94,-35.16,-893.07,502.44,-2.34,0.98,-1.76,-558.11
7224,813.33,782.55,766.95,782.84,786.42,-31.74,-905.27,514.65,0.02,0.63,-4.56,-562.28
7260,805.53,783.21,767.74,784.40,785.22,-33.20,-880.37,514.16,-1.53,2.82,0.18,-544.02
7297,797.87,783.64,768.37,785.29,783.79,-22.46,-890.14,490.23,-5.27,2.54,-3.42,-518.64
7333,791.72,784.21,768.85,786.35,782.78,-30.27,-889.65,491.70,-7.25,6.53,-2.98,-505.78
7372,787.98,784.97,769.26,787.34,782.39,-16.60,-890.14,491.70,0.21,3.11,-2.07,-503.42
7408,787.33,786.10,769.55,788.08,782.76,-17.09,-882.32,513.67,4.43,3.82,-1.88,-514.03
7444,787.33,787.54,769.68,788.46,783.25,-19.04,-868.65,520.51,3.39,3.37,-7.51,-527.82
7480,787.05,790.12,770.16,790.12,784.36,-23.44,-938.96,466.80,-3.04,12.02,-4.47,-560.12
7516,785.88,793.83,771.30,794.45,786.36,40.04,-963.38,552.73,-26.59,20.50,-6.64,-620.99
7552,783.30,797.39,773.54,801.31,788.89,-48.83,-955.57,439.94,-0.68,3.52,-9.11,-685.91
7591,774.00,799.79,777.20,810.59,790.39,-77.15,-908.20,479.98,-11.41,5.09,-18.11,-718.67
7627,761.69,798.17,781.27,816.92,789.51,-78.12,-957.03,500.00,-26.78,8.53,-31.01,-655.04
7663,754.16,788.85,784.72,809.78,784.38,-277.34,-1199.22,669.43,-45.10,-64.92,-36.35,-363.66
7699,753.21,775.25,786.28,791.77,776.63,-261.72,-1583.01,651.86,-23.71,-73.76,-125.15,52.78
7735,752.75,767.20,781.72,775.54,769.30,-138.67,-1553.71,450.68,-14.77,-77.76,-200.92,244.24
7771,752.71,763.63,772.55,767.55,764.11,-100.10,-1477.05,564.94,1.18,-75.63,-250.14,161.88
7809,752.51,761.76,762.37,760.22,759.22,-106.45,-1750.00,770.51,-76.49,-27.12,-250.14,31.81
7845,752.40,761.45,759.06,758.68,757.90,-1271.48,-1389.65,513.67,19.10,-22.75,-250.14,-24.95
7882,752.49,760.91,758.99,758.46,757.71,-704.59,-803.22,361.33,14.86,117.47,13.95,-19.58
7918,752.43,760.42,758.84,758.36,757.51,-693.85,-299.80,28.81,0.82,55.18,62.15,-17.59
7954,752.44,760.16,758.80,758.27,757.42,-582.52,-392.58,110.84,-37.84,36.81,118.95,-15.31
7993,752.40,760.19,758.79,758.14,757.38,-410.16,-468.75,237.79,-44.88,56.18,187.39,-13.79
8029,752.32,760.25,758.79,758.12,757.37,-343.26,-730.96,382.81,-51.72,86.77,221.50,-13.44
8065,752.32,760.40,758.82,758.05,757.40,-226.56,-989.75,532.71,-51.73,100.97,237.82,-13.04
8102,752.21,760.68,758.83,758.03,757.44,-7.81,-1371.09,788.09,-50.95,111.35,208.57,-14.42
8138,752.09,760.99,758.93,758.09,757.53,348.14,-1666.50,893.55,-47.62,164.95,190.91,-14.95
8174,752.02,760.87,758.79,758.02,757.42,857.42,-1517.09,934.57,-88.84,170.35,106.01,-15.88
8213,751.98,760.50,758.66,757.92,757.27,1594.73,-1457.52,1325.68,-104.93,165.76,100.87,-14.59
8249,751.94,760.15,758.57,757.95,757.15,1669.92,-1167.97,1078.61,17.17,113.98,111.64,-14.47
8285,752.27,760.25,758.54,757.87,757.23,1224.12,-592.29,723.63,33.85,26.95,25.08,-15.99
8321,761.34,760.45,758.40,757.75,759.48,-2000.00,-1662.11,-245.61,-32.03,-57.29,-11.46,-50.41
8358,798.67,762.56,758.63,758.16,769.51,496.09,-829.10,1125.00,20.05,-141.63,-206.53,-195.68
8394,831.67,766.32,758.90,760.03,779.23,-156.74,-1083.01,398.93,36.24,5.69,-97.13,-359.87
8433,833.51,771.58,759.94,764.90,782.48,-142.09,-931.64,459.47,13.57,-4.44,-21.95,-454.12
8469,835.24,776.59,761.07,768.93,785.46,-71.29,-938.48,384.28,20.29,6.21,-12.69,-531.56
8506,836.81,780.62,762.34,772.99,788.19,-44.43,-924.32,452.64,18.55,7.70,-7.08,-597.46
8542,837.49,784.04,763.35,776.29,790.29,-23.44,-907.71,436.04,12.68,3.53,-7.47,-650.55
8578,835.14,785.91,764.21,778.45,790.93,-73.73,-976.56,410.16,4.85,2.45,-6.41,-667.88
8617,830.09,786.35,764.68,779.47,790.15,-34.67,-911.62,476.56,-1.94,5.55,-5.07,-657.14
8653,824.21,786.50,764.96,779.95,788.91,-36.13,-914.06,469.24,-0.65,2.74,-4.89,-638.39
8689,817.91,786.66,765.39,780.76,787.68,-30.76,-911.13,462.40,3.15,1.64,-2.31,-619.29
8725,812.08,787.59,765.88,781.90,786.86,-37.60,-924.32,465.33,9.39,2.47,-1.07,-611.44
8762,806.13,789.63,766.64,783.75,786.54,-20.51,-904.30,485.84,0.57,5.65,-6.21,-615.43
8798,800.68,792.39,767.71,786.14,786.73,-25.39,-907.71,470.70,3.03,3.82,-5.71,-627.62
8837,796.16,795.84,769.01,788.82,787.46,-17.09,-908.20,472.17,-4.13,6.52,-7.05,-646.58
8873,791.12,799.24,770.43,791.87,788.17,-19.04,-902.83,471.19,-11.82,8.44,-7.76,-666.31
8910,785.98,802.69,772.33,796.02,789.26,-23.44,-909.18,399.90,-9.20,12.49,-8.55,-689.79
8946,779.55,805.56,774.73,801.37,790.30,-36.62,-946.78,493.65,-6.00,7.37,-12.27,-709.91
8982,771.89,807.33,777.29,806.63,790.78,-10.74,-932.62,449.22,-15.79,12.22,-15.09,-711.50
9018,763.47,806.68,780.25,811.24,790.41,-22.95,-998.54,412.11,-5.88,6.24,-23.19,-671.31
9057,756.25,801.83,783.23,809.14,787.61,-59.08,-1004.39,496.58,-13.13,-11.72,-28.76,-502.72
9093,754.23,791.21,783.45,796.22,781.28,-31.74,-1092.77,655.76,0.69,-30.81,-54.15,-214.95
9129,753.53,777.21,780.48,779.93,772.79,-164.06,-1325.20,549.32,-34.19,-53.65,-87.95,65.46
9166,752.99,767.93,774.69,768.88,766.12,-121.58,-1488.77,358.40,-14.65,-60.60,-174.98,160.27
9202,752.64,763.54,766.42,763.43,761.51,24.41,-1654.30,395.51,-41.11,-39.99,-250.14,70.83
9241,752.59,762.60,759.57,759.09,758.46,116.21,-1615.72,422.85,-60.42,23.14,-250.14,-28.22
9277,753.18,762.16,758.79,758.78,758.23,-831.05,-1932.62,804.69,-25.78,193.39,-98.16,-41.48
9313,752.84,761.50,758.72,758.54,757.90,-1208.98,-8.30,-270.51,-38.70,157.47,23.74,-33.28
9349,752.94,761.19,758.68,758.32,757.78,-1054.69,-252.44,148.44,-117.07,76.06,156.46,-29.07
9385,752.82,761.19,758.66,758.24,757.73,-471.19,-538.57,549.80,-91.82,18.05,218.95,-27.78
9421,752.69,761.47,758.74,758.11,757.75,71.29,-611.33,961.91,-84.42,58.61,236.29,-25.71
9459,752.61,761.61,758.60,758.09,757.73,676.27,-1382.32,1253.42,8.34,181.93,153.28,-29.82
9496,752.34,761.29,758.64,758.07,757.58,1278.81,-1379.39,931.64,12.76,223.55,124.86,-24.96
9532,752.33,761.14,758.60,758.12,757.55,1999.94,-1336.43,1180.18,-9.60,186.34,15.00,-25.35
9568,753.11,761.38,758.47,758.04,757.75,1999.94,-1053.71,1999.94,-47.40,250.13,-50.33,-32.09
9604,765.87,763.24,758.71,760.60,762.11,-1243.65,-343.26,-1000.00,229.14,43.95,-32.93,-122.47
9640,790.97,772.89,760.00,766.35,772.55,379.39,161.62,1283.20,-37.11,107.52,-34.56,-338.62
9679,798.18,781.16,762.35,775.48,779.29,106.45,-817.38,572.75,22.23,18.60,-10.22,-505.42
9715,805.90,786.78,764.50,782.83,785.01,10.25,-848.63,556.15,15.19,7.66,-6.95,-631.67
9751,808.17,791.82,766.11,787.51,788.40,-18.07,-879.88,510.74,2.85,7.33,-8.81,-708.48
9787,805.93,795.24,767.46,790.26,789.72,-42.97,-891.11,510.74,-2.74,5.81,-7.87,-735.23
9823,801.49,796.19,768.02,790.90,789.15,-2.93,-893.55,513.18,-6.76,2.84,-5.51,-723.15
9862,796.42,795.79,768.17,789.99,787.59,-19.04,-883.79,515.62,-6.39,8.43,-5.52,-685.42
9899,792.95,795.01,768.02,789.16,786.29,-15.14,-879.88,507.32,-4.98,2.30,-4.38,-658.70
9935,790.54,794.97,768.15,788.94,785.65,-22.95,-893.55,494.14,-4.67,5.75,-2.66,-643.54
9973,790.04,795.56,768.36,789.13,785.77,-28.81,-873.05,528.81,0.58,3.28,-0.37,-644.22
10010,789.67,797.05,768.87,789.79,786.34,-9.28,-870.12,513.67,0.35,2.61,-4.15,-651.92
10046,788.94,798.62,769.81,791.29,787.17,-26.37,-904.79,489.26,-2.10,6.03,-3.92,-660.60
10084,787.20,799.90,771.06,793.48,787.91,-19.53,-909.18,491.21,-4.15,1.15,-4.15,-666.04
10121,784.74,800.58,772.12,795.32,788.19,-7.32,-896.97,509.77,-2.89,1.64,-5.82,-663.63
10157,781.01,800.84,773.21,797.52,788.14,-34.67,-921.87,501.95,-7.48,3.57,-4.92,-658.12
10193,775.45,800.81,774.73,800.01,787.75,26.86,-891.60,498.05,-14.69,3.65,-7.37,-637.80
10229,770.86,800.64,776.50,802.02,787.51,-13.67,-861.33,501.46,-12.83,1.41,-6.96,-605.93
10265,767.28,800.31,778.42,804.06,787.52,7.32,-920.90,481.45,-13.66,2.77,-6.48,-573.32
10304,764.61,799.62,780.30,806.42,787.74,-12.21,-874.02,464.36,-1.29,1.74,-9.39,-546.53
10341,762.47,798.83,781.73,808.25,787.82,-8.30,-916.02,500.00,-4.90,4.37,-5.83,-524.07
10377,760.02,797.66,783.21,809.58,787.62,0.00,-933.11,483.40,-12.76,5.16,-9.57,-488.94
10413,757.01,795.19,784.30,809.69,786.55,-2.44,-949.71,494.63,-19.49,0.60,-10.29,-433.29
10449,754.76,791.36,785.31,807.75,784.79,-33.20,-972.17,521.00,-16.16,-11.48,-11.37,-341.11
10485,753.72,785.94,785.74,803.15,782.14,-3.42,-994.63,569.34,-8.94,-26.92,-22.57,-215.78
10524,753.25,779.01,785.45,795.20,778.23,27.83,-977.54,546.87,-6.30,-35.95,-37.60,-48.83
10560,753.03,772.80,783.94,786.47,774.06,23.44,-1041.99,476.56,-7.51,-37.56,-52.55,92.72
10596,752.79,768.47,781.42,778.21,770.22,39.06,-1181.64,420.90,-0.45,-34.85,-79.38,187.13
10633,752.65,765.69,777.93,772.26,767.13,78.12,-1133.79,441.89,6.74,-33.14,-113.96,210.48
10669,752.47,763.93,772.78,767.34,764.13,61.52,-1274.90,628.91,8.52,-35.32,-148.08,169.32
10707,752.31,762.28,765.58,762.14,760.58,55.18,-1403.32,675.78,-6.24,-58.73,-188.25,80.08
10744,752.43,761.01,759.68,759.10,758.05,71.29,-1653.32,748.54,13.89,-56.16,-186.89,-12.18
10779,752.92,761.03,758.85,758.48,757.82,-7.81,-526.37,-4.88,27.03,-60.81,-47.40,-25.71
10815,752.63,760.66,758.72,758.36,757.59,-632.81,-494.63,303.22,45.42,0.37,103.50,-23.18
10851,752.70,760.44,758.65,758.29,757.52,-406.74,-271.00,316.89,29.82,-14.46,119.88,-22.35
10887,752.66,760.41,758.65,758.25,757.49,-283.69,-416.50,337.40,32.89,3.75,154.50,-21.57
10926,752.66,760.46,758.47,758.15,757.44,-229.49,-571.78,325.20,32.49,14.25,181.27,-24.73
10962,752.58,760.45,758.61,758.10,757.44,-173.83,-826.17,322.27,23.05,-20.30,207.01,-20.23
10998,752.48,760.44,758.49,757.98,757.35,51.76,-1182.13,384.77,12.05,-61.78,215.61,-21.09
11034,752.45,760.54,758.46,757.90,757.34,325.20,-1387.70,424.80,-0.30,-53.53,211.77,-21.29
11070,752.36,760.45,758.44,757.86,757.28,615.23,-1761.23,276.86,3.11,-74.30,187.73,-20.21
11106,752.38,760.35,758.42,757.91,757.26,762.21,-1569.34,35.16,-1.24,-126.11,168.11,-20.78
11145,752.30,760.54,758.31,757.94,757.27,1062.50,-1260.25,-198.24,-14.85,-138.21,119.18,-25.01
11181,752.35,760.74,758.38,757.79,757.31,959.96,-1087.89,-165.53,-66.45,-83.22,42.78,-22.93
11217,755.43,761.36,758.51,757.93,758.31,411.13,-934.57,761.23,34.21,-109.76,-48.08,-37.37
11254,773.55,764.01,758.82,759.32,763.92,-286.13,-1466.31,-1175.78,225.21,-54.20,-97.26,-133.50
11290,799.33,768.21,759.34,761.64,772.13,59.08,-729.49,1066.89,-17.24,8.68,-21.51,-276.74
11329,806.09,772.50,760.08,764.17,775.71,30.27,-931.15,621.58,2.05,5.04,-11.98,-353.25
11365,810.09,776.96,760.95,766.95,778.74,9.77,-849.12,601.07,4.92,2.71,-7.92,-421.86
11401,814.87,780.09,761.57,768.69,781.31,-5.37,-851.56,550.29,2.60,3.98,-4.85,-473.78
11438,823.80,782.07,761.89,769.79,784.39,-44.43,-874.51,538.09,1.56,-1.15,-0.74,-528.37
11474,831.99,783.37,762.12,770.66,787.03,-33.20,-865.72,550.78,-1.62,2.41,0.42,-573.95
11510,834.85,784.39,762.36,771.33,788.23,-41.02,-866.21,565.92,-3.50,-1.11,-2.89,-595.85
11549,834.98,785.25,762.55,772.25,788.76,-24.90,-876.46,530.76,-3.24,-1.72,-1.95,-612.08
11585,834.28,785.61,762.64,772.59,788.78,-26.37,-860.35,563.96,-2.44,0.33,-2.34,-615.21
11621,833.92,785.83,762.66,772.69,788.78,-33.20,-862.30,543.46,-4.58,2.27,-2.23,-616.76
11657,833.53,785.88,762.68,772.84,788.73,-32.23,-856.93,551.27,-9.14,0.46,0.66,-617.46
11694,831.87,785.81,762.70,772.89,788.32,-35.64,-874.02,537.11,-9.82,2.26,-0.62,-611.68
11730,830.13,785.71,762.77,772.97,787.90,-42.97,-868.16,547.36,-9.25,-2.15,1.16,-604.24
11769,828.39,785.76,762.66,772.97,787.44,-35.64,-867.68,528.81,-12.63,0.40,-0.98,-601.42
11805,825.64,786.13,762.76,773.39,786.98,-47.36,-877.44,545.90,-12.82,2.81,0.34,-598.65
11841,823.74,786.88,763.03,774.10,786.93,-42.48,-911.13,507.32,-2.86,-3.76,-3.30,-601.75
11877,820.37,787.15,763.13,774.55,786.30,-42.97,-877.44,518.07,-0.47,0.44,-1.21,-596.59
11913,816.47,787.15,763.34,774.78,785.43,-20.02,-879.39,526.86,-1.10,1.31,-2.52,-581.43
11952,812.76,787.21,763.44,775.06,784.62,-23.93,-864.75,522.46,0.18,-0.78,-2.11,-570.85
11989,810.05,787.01,763.42,774.99,783.87,-29.79,-876.46,520.02,0.60,-1.92,-2.29,-559.36
12025,809.26,786.44,763.29,774.39,783.34,-24.41,-864.75,528.81,-1.69,1.60,0.87,-546.26
12061,809.91,785.38,763.07,773.55,782.98,-33.69,-880.37,521.97,0.52,1.37,-0.89,-533.22
12097,809.80,784.23,762.88,772.75,782.41,-17.58,-877.44,537.60,-2.08,1.54,0.56,-516.69
12134,808.65,783.00,762.67,771.64,781.49,-30.76,-894.04,511.72,-2.31,2.40,-1.20,-491.64
12172,807.70,781.23,762.28,770.28,780.37,-40.04,-889.65,524.41,-0.80,2.18,0.14,-463.99
12210,808.84,779.35,761.81,769.00,779.75,-26.37,-894.53,515.62,0.84,-2.63,1.07,-445.70
12246,811.17,778.09,761.62,768.26,779.79,-44.43,-881.84,515.14,1.44,-1.66,0.11,-437.40
12282,812.18,777.21,761.46,767.79,779.66,-36.13,-883.79,511.23,2.22,-0.75,-0.10,-430.81
12318,814.12,776.75,761.43,767.36,779.91,-33.20,-876.46,532.23,1.79,0.75,1.27,-428.24
12354,815.00,776.04,761.21,766.71,779.74,-33.69,-883.30,526.86,-2.18,2.49,-0.05,-421.40
12393,814.09,775.29,761.04,765.83,779.06,-39.55,-875.49,514.65,-4.05,3.12,-2.09,-403.65
12429,812.14,774.26,760.80,764.85,778.01,-36.13,-882.32,516.11,-4.18,3.78,-1.07,-380.37
12465,809.74,773.38,760.66,764.11,776.97,-43.95,-887.21,521.97,-3.14,3.29,-0.05,-357.41
12502,808.08,772.61,760.53,763.58,776.20,-26.37,-896.97,509.28,-1.50,2.73,1.29,-340.86
12538,805.78,771.91,760.35,763.18,775.31,-62.99,-896.48,512.21,-1.96,2.08,0.24,-326.10
12574,804.37,771.23,760.33,763.00,774.73,-36.62,-876.46,514.16,1.96,-0.49,-1.22,-313.64
12613,804.08,771.02,760.21,762.92,774.56,-41.50,-869.63,512.21,2.66,0.40,-1.60,-312.79
12649,804.23,770.83,760.28,762.69,774.51,-52.25,-884.77,521.00,1.65,-0.50,-1.09,-306.57
12685,804.11,770.77,760.21,762.46,774.39,-49.32,-883.30,520.02,0.84,1.55,-1.07,-303.94
12721,805.19,770.55,760.11,762.15,774.50,-45.41,-871.58,506.35,1.82,2.41,-0.11,-304.01
12757,806.91,770.62,760.06,761.72,774.83,-48.34,-880.37,521.00,5.27,-0.59,0.16,-305.46
12795,808.93,770.44,759.95,761.30,775.16,-31.74,-885.74,517.58,3.83,1.15,-2.21,-307.36
12834,810.99,770.33,759.87,761.04,775.56,-40.04,-885.25,529.79,2.60,3.06,-0.02,-311.80
12870,811.84,770.27,759.90,761.11,775.78,-56.64,-882.81,509.28,2.61,-0.69,-0.33,-314.62
12907,812.66,770.46,759.88,761.12,776.03,-34.18,-892.58,525.88,-0.28,0.44,3.08,-319.44
12943,813.39,770.49,759.91,761.13,776.23,-45.41,-878.91,518.07,0.05,-0.68,-1.56,-321.62
12979,813.92,770.53,759.91,761.14,776.37,-50.29,-876.46,523.44,-1.49,-1.12,0.66,-323.80
13018,814.62,770.67,759.93,761.27,776.62,-40.53,-864.26,529.79,-0.35,-1.19,1.76,-328.89
13054,814.80,770.71,759.97,761.28,776.69,-42.48,-876.95,514.16,-1.79,-0.69,-1.93,-329.06
13091,815.63,770.78,759.93,761.32,776.91,-54.69,-898.93,504.39,0.32,0.56,-2.22,-333.88
13127,816.01,770.92,759.99,761.34,777.07,-31.25,-882.81,514.65,-1.22,0.54,0.13,-335.07
13163,816.86,770.89,759.99,761.37,777.28,-39.06,-874.02,515.14,0.55,-0.22,0.17,-338.18
13200,816.98,770.87,759.87,761.39,777.28,-37.60,-875.00,523.44,-1.74,2.23,1.85,-341.74
13239,817.10,770.72,759.90,761.45,777.29,-40.53,-873.54,514.16,3.85,-1.34,0.03,-341.19
13275,817.32,770.81,759.98,761.49,777.40,-32.71,-883.30,524.41,0.89,0.27,-1.41,-341.42
13311,817.46,770.83,759.88,761.57,777.43,-35.64,-885.25,523.93,-1.01,0.69,0.40,-345.43
13348,818.15,771.01,759.90,761.64,777.67,-51.76,-874.02,518.07,-0.52,-0.23,-0.83,-349.85
13384,818.42,771.16,759.87,761.82,777.81,-54.20,-876.46,525.88,-0.97,2.54,0.37,-355.28
13420,818.53,771.38,760.01,761.86,777.95,-42.97,-872.07,522.95,-0.74,3.18,-0.69,-354.69
13458,818.26,771.56,760.08,762.09,778.00,-37.60,-890.14,520.51,-3.14,-2.60,-0.09,-356.89
13494,818.01,771.91,760.12,762.52,778.14,-36.13,-875.98,539.55,-0.90,2.73,-1.19,-364.01
13530,816.78,772.13,760.21,762.91,778.01,-53.22,-884.28,514.65,-3.01,2.02,-1.02,-364.98
13567,816.12,772.43,760.34,763.18,778.02,-36.62,-865.72,533.20,-0.64,3.22,-1.28,-366.05
13603,815.29,772.69,760.41,763.45,777.96,-37.11,-872.07,518.55,-1.41,-0.38,2.05,-367.64
13639,814.56,772.79,760.48,763.74,777.90,-44.92,-889.65,508.79,0.93,-1.51,-0.92,-368.27
13677,813.57,772.92,760.54,763.88,777.73,-40.53,-875.00,521.97,-2.34,0.63,-2.75,-366.44
13714,812.91,773.01,760.51,764.07,777.63,-42.97,-885.74,510.74,-1.66,-0.52,0.08,-368.51
13750,811.98,773.13,760.61,764.30,777.51,-45.90,-890.14,506.84,-0.47,2.12,-3.18,-367.15
13786,810.17,773.27,760.62,764.44,777.13,-41.99,-900.88,516.11,0.52,-0.83,-3.04,-363.92
13822,808.78,773.42,760.69,764.61,776.88,-45.90,-874.51,521.97,-0.88,1.26,-0.20,-361.05
13861,807.43,773.40,760.68,764.84,776.59,-47.85,-887.70,508.79,-1.21,-2.03,0.18,-359.78
13897,806.51,773.36,760.72,764.94,776.38,-29.79,-877.93,514.65,-0.48,-0.60,-0.34,-356.87
13934,806.60,773.54,760.74,765.05,776.48,-28.81,-885.25,514.65,1.81,-2.03,-2.33,-359.79
13970,807.78,773.72,760.80,765.11,776.85,-50.78,-882.81,513.67,1.98,0.01,-0.27,-364.71
14006,808.80,773.64,760.69,764.92,777.01,-45.90,-889.16,521.00,0.91,0.27,-0.05,-367.46
14042,808.90,773.60,760.77,764.80,777.02,-41.02,-885.25,517.58,-2.61,1.73,-0.89,-363.79
14080,807.89,773.60,760.77,764.72,776.75,-44.92,-879.88,511.23,-2.46,0.89,-0.75,-359.01
14116,807.46,773.56,760.82,764.74,776.65,-33.69,-880.86,513.18,0.38,2.27,0.54,-356.32
14153,807.21,773.66,760.78,764.72,776.59,-39.06,-877.93,521.97,-0.40,0.60,-1.36,-357.13
14188,806.91,773.66,760.80,764.85,776.56,-46.39,-884.77,523.93,-0.66,-0.59,-0.47,-357.39
14224,806.77,773.86,760.83,765.08,776.63,-35.16,-879.88,518.07,1.13,1.50,-1.69,-361.31
14260,806.60,773.95,760.80,765.13,776.62,-34.67,-885.74,516.60,-0.38,4.79,-0.61,-362.86
14299,806.10,773.97,760.83,765.20,776.53,-37.60,-877.93,519.53,-1.69,0.24,-1.05,-361.62
14335,805.27,774.21,760.89,765.48,776.47,-45.41,-871.09,516.60,0.37,-1.93,1.45,-363.20
14371,804.76,774.45,761.01,765.83,776.51,-34.67,-878.42,518.55,-1.88,1.48,-1.23,-365.58
14406,803.80,774.96,761.14,766.25,776.54,-47.36,-887.70,527.83,-0.22,-0.24,0.44,-369.34
14442,802.59,775.36,761.27,766.71,776.48,-40.04,-881.84,507.81,-0.65,0.34,-0.93,-371.80
14478,801.20,775.88,761.30,767.11,776.37,-35.64,-865.23,511.23,-0.24,0.16,-2.40,-376.51
14517,800.04,776.32,761.47,767.60,776.36,-45.90,-866.21,520.51,0.56,-0.85,-1.31,-378.83
14553,798.99,776.79,761.62,768.11,776.37,-30.76,-891.60,517.58,0.92,5.28,-0.33,-382.85
14589,798.10,777.08,761.73,768.36,776.32,-37.11,-884.77,526.37,0.73,1.39,-2.50,-383.08
14625,797.56,777.34,761.65,768.65,776.30,-35.64,-870.12,517.58,-1.45,-0.55,-2.11,-389.70
14661,796.76,777.55,761.75,768.70,776.19,-41.50,-866.70,521.48,-2.01,1.00,-1.34,-386.84
14700,796.16,777.74,761.85,768.70,776.11,-35.16,-889.65,503.91,-0.69,-0.34,-1.02,-383.67
14736,796.52,777.81,761.89,768.79,776.25,-28.81,-883.30,516.60,1.95,0.80,-0.82,-385.78
14772,797.51,778.04,761.91,768.85,776.58,-37.11,-884.77,518.55,2.03,2.86,1.69,-391.38
14808,798.10,777.99,761.91,768.86,776.71,-32.71,-890.62,525.39,-0.30,-0.34,0.27,-393.27
14845,798.08,777.93,761.83,768.72,776.64,-39.06,-889.65,520.02,-0.44,-0.42,1.29,-392.86
14881,797.39,777.86,761.89,768.59,776.43,-20.51,-880.86,520.02,-1.95,-1.31,0.05,-386.35
14919,796.83,777.70,761.85,768.70,776.27,-26.37,-889.16,497.56,-2.57,-2.96,1.50,-385.66
14956,796.87,777.69,761.86,768.75,776.29,-27.83,-884.28,521.97,2.92,-0.78,-1.18,-386.21
14992,797.83,777.62,761.79,768.51,776.44,-23.44,-884.77,525.39,2.24,-0.15,-0.13,-387.10
15028,798.69,777.35,761.71,768.21,776.49,-34.67,-882.81,523.44,0.13,1.66,2.18,-385.40
15064,798.79,777.02,761.66,768.01,776.37,-42.97,-882.32,519.53,0.24,2.24,-1.09,-381.69
15100,798.73,776.90,761.60,767.74,776.24,-32.71,-875.00,523.93,-1.89,0.63,0.01,-378.09
15139,798.97,776.75,761.58,767.54,776.21,-43.95,-873.05,524.90,-0.29,1.05,-1.19,-374.99
15176,799.29,776.60,761.55,767.39,776.21,-28.32,-883.30,513.67,0.64,-1.79,1.01,-373.41
15212,799.87,776.53,761.51,767.35,776.32,-41.99,-880.37,515.14,0.46,2.11,-3.85,-375.35
15248,800.24,776.44,761.49,767.32,776.37,-35.64,-880.37,524.41,0.86,0.24,0.15,-376.03
15284,800.87,776.41,761.59,767.20,776.52,-41.99,-880.37,522.95,-0.43,3.24,-0.91,-373.59
15321,800.90,776.35,761.46,767.21,776.48,-33.69,-877.93,517.58,1.16,1.20,-0.47,-376.70
15359,800.70,776.29,761.49,767.13,776.40,-48.34,-885.74,522.46,-0.32,-1.47,2.28,-373.56
15395,800.52,776.13,761.44,767.12,776.30,-35.64,-882.32,524.90,0.32,-3.35,1.66,-372.64
15432,800.58,776.04,761.50,767.05,776.29,-30.27,-881.35,513.67,-0.08,3.64,0.95,-369.66
15468,800.94,776.00,761.36,766.93,776.31,-40.53,-879.39,518.55,0.76,0.13,2.38,-372.41
15504,801.30,775.95,761.41,766.85,776.37,-41.99,-878.42,522.46,-0.02,0.31,-2.66,-370.76
15540,801.56,775.85,761.33,766.72,776.36,-52.25,-883.79,522.95,-1.14,1.78,0.80,-370.90
15582,801.67,775.54,761.27,766.54,776.25,-35.64,-884.28,519.53,0.36,0.02,-2.76,-367.72
15618,802.02,775.24,761.25,766.35,776.21,-48.34,-880.86,517.09,0.93,1.83,1.21,-364.23
15654,802.43,775.00,761.17,766.16,776.19,-37.60,-889.16,527.34,0.13,0.69,1.34,-362.80
15691,802.98,774.76,761.14,765.91,776.20,-39.06,-880.86,524.90,0.15,-0.60,-1.09,-359.96
15727,803.32,774.58,761.07,765.63,776.15,-49.32,-889.16,524.90,-0.91,0.02,0.41,-357.33
15766,803.99,774.25,760.98,765.50,776.18,-46.88,-878.42,523.93,-1.09,-0.08,-1.09,-357.14
15802,804.35,774.15,761.01,765.37,776.22,-25.88,-880.86,532.23,0.12,-0.05,-3.44,-354.91
15838,804.76,774.21,761.00,765.24,776.30,-40.53,-875.98,514.65,-0.79,0.35,0.92,-355.34
15874,804.91,774.09,760.99,765.13,776.28,-40.04,-893.55,528.32,-4.02,2.82,-1.61,-353.28
15910,805.05,774.12,760.93,765.04,776.28,-39.06,-896.48,519.53,0.21,0.05,-0.63,-354.21
15947,805.09,774.01,761.03,764.99,776.28,-40.53,-878.42,526.86,0.31,1.71,-0.43,-350.34
15986,805.12,774.08,760.97,765.22,776.35,-45.90,-867.19,529.30,1.07,-2.24,-1.91,-355.79
16022,805.31,774.16,761.01,765.17,776.41,-46.39,-876.46,527.83,0.07,1.07,-1.90,-355.51
16058,805.28,774.12,760.96,765.19,776.39,-49.32,-881.35,506.35,1.09,-0.29,-0.76,-356.51
16094,805.13,774.27,760.95,765.19,776.39,-40.53,-881.84,525.88,-0.89,1.56,-2.18,-357.55
16130,805.14,774.18,760.96,765.25,776.38,-46.39,-876.95,521.97,0.30,0.02,-2.40,-357.50
16166,805.12,774.17,760.99,765.34,776.41,-38.09,-881.84,510.74,-1.05,-0.34,0.82,-357.86
16205,804.73,774.26,760.96,765.39,776.33,-41.50,-875.98,535.16,-0.47,-1.78,0.80,-358.64
16241,804.66,774.25,761.02,765.42,776.34,-43.95,-875.00,520.02,0.08,0.71,-1.18,-357.30
16277,804.42,774.19,761.07,765.46,776.29,-46.88,-882.81,521.97,-0.85,-1.92,-3.92,-355.20
16314,804.38,774.31,761.06,765.50,776.31,-41.50,-885.25,528.81,0.46,0.89,0.56,-357.04
16350,804.31,774.23,760.99,765.54,776.27,-41.50,-876.46,517.09,-1.36,-1.79,-1.05,-358.43
16386,804.26,774.25,761.06,765.59,776.29,-51.27,-888.67,522.95,0.34,-0.82,-1.57,-357.53
16426,804.19,774.43,761.04,765.62,776.32,-30.27,-879.88,519.04,-0.60,0.00,-0.39,-359.63
16462,803.89,774.50,761.14,765.73,776.31,-53.71,-885.25,512.70,0.11,-0.60,-1.56,-358.14
16498,803.73,774.53,761.11,765.70,776.27,-57.13,-889.65,519.04,0.30,2.71,0.08,-358.28
16534,803.50,774.63,761.19,765.76,776.27,-47.36,-880.86,510.74,0.37,-0.63,0.30,-357.26
16571,803.26,774.78,761.21,765.94,776.30,-45.41,-888.18,518.07,-0.03,-0.18,-1.37,-359.68
16607,802.88,774.90,761.20,765.97,776.24,-35.64,-886.23,519.04,-2.45,0.34,-4.78,-360.03
16646,802.53,775.08,761.18,766.15,776.23,-46.88,-878.42,520.51,0.69,-0.43,-1.56,-363.43
16682,802.15,775.16,761.26,766.28,776.21,-36.62,-877.93,513.18,0.54,1.02,0.68,-362.65
16718,801.52,775.25,761.22,766.40,776.10,-41.02,-882.32,510.74,0.53,0.06,-1.66,-364.02
16755,801.23,775.42,761.26,766.54,776.11,-40.53,-884.28,518.07,0.18,0.12,-0.24,-365.62
16791,800.97,775.47,761.31,766.65,776.10,-32.71,-879.88,521.00,0.19,-3.79,-1.17,-365.37
16830,800.95,775.54,761.38,766.57,776.11,-46.39,-872.56,516.11,-0.46,-0.67,-1.90,-362.89
16866,801.17,775.59,761.35,766.63,776.18,-34.18,-878.91,512.70,0.33,-0.61,1.45,-365.66
16903,801.48,775.65,761.37,766.63,776.28,-51.27,-879.88,507.81,-0.54,-1.40,0.32,-366.80
16939,801.96,775.66,761.28,766.60,776.37,-41.50,-890.62,519.04,-0.36,-0.82,-0.69,-370.09
16975,802.13,775.63,761.35,766.46,776.39,-40.04,-882.32,508.79,-0.64,-0.10,-1.29,-366.86
17011,802.52,775.65,761.38,766.40,776.49,-40.04,-880.86,512.21,-1.26,1.93,0.21,-366.67
17051,802.58,775.62,761.32,766.36,776.47,-28.81,-888.67,526.86,-1.05,-1.06,-1.06,-367.58
17088,802.68,775.64,761.34,766.40,776.52,-34.67,-892.09,517.58,-0.24,-0.73,-0.27,-368.13
17124,802.83,775.73,761.32,766.36,776.56,-33.20,-883.79,519.04,0.60,0.45,1.23,-369.22
17160,803.03,775.60,761.26,766.32,776.55,-41.50,-869.14,525.39,-0.72,-1.76,-1.28,-369.84
17197,803.35,775.57,761.29,766.24,776.61,-39.06,-891.11,515.14,1.79,-0.57,-0.44,-368.65
17233,803.67,775.46,761.25,766.17,776.64,-34.67,-875.00,512.70,-0.58,1.13,-0.98,-369.09
17272,803.79,775.37,761.31,766.06,776.63,-47.36,-886.23,521.97,0.48,-0.94,1.85,-365.58
17309,803.94,775.35,761.21,765.97,776.62,-37.11,-891.60,520.02,-0.05,0.85,0.39,-367.06
17345,804.07,775.37,761.21,765.94,776.65,-41.50,-877.44,519.53,-1.13,-3.24,-0.75,-367.05
17381,804.02,775.36,761.21,765.89,776.62,-33.20,-878.42,508.79,-0.74,-0.38,0.03,-366.15
17417,804.12,775.48,761.25,765.89,776.69,-29.79,-875.00,521.48,-0.76,1.34,-0.64,-366.67
17454,804.26,775.52,761.27,765.87,776.73,-50.29,-880.86,523.93,0.27,2.40,-0.54,-366.47
17493,804.50,775.59,761.30,765.85,776.81,-38.57,-885.74,515.14,-1.01,0.37,-0.82,-366.91
17528,804.92,775.73,761.18,766.02,776.96,-37.60,-886.23,521.00,0.66,-0.37,-0.62,-374.92
17565,805.29,775.96,761.22,766.02,777.12,-41.02,-873.05,513.18,0.27,-0.14,-0.03,-377.08
17601,805.18,775.94,761.24,766.01,777.10,-40.53,-873.54,521.97,0.38,-1.69,1.40,-375.83
17636,804.16,775.85,761.32,765.94,776.82,-39.06,-873.54,533.69,-3.42,0.70,0.76,-368.56
17676,803.10,775.86,761.31,766.00,776.57,-29.79,-878.91,514.16,-0.28,-3.37,-1.26,-366.22
17712,802.98,775.82,761.27,766.02,776.52,-46.88,-879.39,521.00,-2.45,0.56,0.50,-366.57
17748,802.81,775.75,761.32,766.12,776.50,-27.83,-880.37,513.18,0.17,0.47,-1.64,-365.69
17784,802.39,775.66,761.32,766.04,776.35,-35.64,-885.74,525.39,-0.15,1.73,0.08,-362.51
17820,802.08,775.64,761.29,766.14,776.29,-33.69,-876.95,517.09,-1.68,2.06,-0.73,-363.57
17856,801.41,775.64,761.32,766.17,776.13,-40.53,-886.23,517.58,-2.90,-0.95,-0.75,-361.00
17895,800.73,775.69,761.44,766.27,776.03,-32.23,-882.32,516.60,0.15,-1.52,-2.09,-357.42
17932,800.32,775.81,761.40,766.52,776.01,-44.43,-885.25,533.20,2.11,-1.13,-0.69,-361.72
17968,799.89,775.94,761.43,766.70,775.99,-48.83,-871.09,520.02,-1.08,1.63,1.41,-363.16
18004,799.42,776.15,761.50,766.96,776.01,-41.50,-880.37,524.41,-0.67,-0.83,-1.16,-365.31
18041,798.62,776.46,761.55,767.33,775.99,-28.81,-881.35,518.07,-0.10,0.79,1.06,-369.31
18078,797.59,776.73,761.64,767.52,775.87,-36.62,-891.60,524.90,-0.62,0.29,-3.87,-368.46
18117,796.69,777.05,761.72,767.78,775.81,-31.74,-869.63,520.02,1.34,-1.05,0.44,-369.59
18153,796.44,777.18,761.77,767.85,775.81,-37.60,-887.21,514.16,0.69,-0.27,1.78,-369.60
18189,795.42,777.26,761.83,767.97,775.62,-32.23,-878.42,522.95,-1.95,2.79,-0.13,-367.03
18226,794.71,777.36,761.87,768.06,775.50,-33.20,-886.23,507.81,-0.89,-0.70,-4.15,-365.84
18262,794.41,777.50,761.83,768.20,775.49,-37.11,-885.25,511.23,-0.45,0.65,-1.76,-368.97
18298,794.30,777.67,761.85,768.20,775.51,-29.30,-891.11,517.58,0.36,-0.16,-0.16,-369.55
18340,794.13,777.90,761.87,768.42,775.58,-38.09,-880.86,518.07,-1.85,-0.19,-0.02,-373.38
18376,793.84,778.00,762.01,768.64,775.62,-31.74,-890.14,509.28,-0.35,-0.75,2.04,-373.12
18413,793.31,778.12,762.03,768.70,775.54,-35.64,-883.79,505.86,-0.70,0.53,-1.64,-372.50
18449,792.97,778.10,762.00,768.74,775.45,-33.20,-887.21,513.18,-1.42,3.06,0.17,-372.63
18485,792.74,778.16,762.02,768.72,775.41,-34.18,-885.74,509.28,2.13,-0.84,-2.10,-371.33
18524,792.78,778.17,761.98,768.81,775.44,-33.20,-872.07,513.67,-0.02,0.31,1.53,-373.96
18561,792.75,778.19,762.05,768.79,775.44,-30.76,-892.09,534.18,1.04,-2.47,0.24,-372.01
18597,792.72,778.16,762.01,768.70,775.40,-49.32,-884.77,512.21,0.87,0.39,0.45,-371.31
18633,792.77,778.11,762.01,768.63,775.38,-37.60,-884.28,519.04,-1.66,-2.01,1.47,-370.27
18669,792.93,778.09,761.96,768.52,775.38,-33.20,-875.98,529.79,-0.25,-0.18,-2.04,-370.05
18706,793.00,778.03,762.00,768.52,775.39,-49.80,-867.68,521.97,-2.91,-1.11,-1.76,-368.91
18745,793.09,777.91,761.97,768.38,775.34,-33.20,-888.67,520.51,-0.57,-1.21,-2.57,-366.98
18781,793.28,777.88,761.95,768.34,775.36,-43.46,-900.88,517.58,-0.48,2.21,0.89,-367.15
18817,793.43,777.81,761.77,768.21,775.30,-30.76,-886.72,502.44,-1.60,0.68,-1.23,-369.71
18854,793.62,777.63,761.89,768.15,775.32,-21.48,-891.11,515.14,0.70,1.85,0.79,-365.16
18890,793.97,777.60,761.82,768.12,775.37,-47.85,-880.37,521.00,0.66,0.81,1.11,-367.27
18926,794.56,777.57,761.77,767.91,775.45,-43.95,-890.14,521.48,0.94,1.19,-0.15,-367.36
18965,795.16,777.26,761.79,767.72,775.48,-51.27,-883.79,521.48,-1.02,1.06,2.60,-363.68
19002,795.80,777.04,761.62,767.53,775.50,-40.53,-873.05,525.39,1.06,1.74,-0.24,-365.37
19039,796.33,776.87,761.70,767.39,775.57,-34.67,-894.53,516.60,-0.10,0.82,-1.32,-361.71
19075,796.95,776.74,761.59,767.28,775.64,-36.13,-891.11,516.11,1.36,0.71,3.36,-363.87
19111,797.57,776.57,761.52,767.02,775.67,-41.02,-884.77,521.48,0.24,-1.75,1.35,-362.52
19148,798.17,776.38,761.57,766.88,775.75,-32.71,-887.70,523.93,0.47,0.62,-4.06,-359.90
19187,798.84,776.18,761.42,766.66,775.77,-33.20,-870.61,534.18,-2.08,0.40,2.85,-361.24
19223,799.38,776.05,761.47,766.44,775.84,-31.25,-871.58,498.54,-0.65,1.08,0.95,-357.30
19259,799.94,775.83,761.40,766.25,775.86,-38.09,-876.46,514.65,0.08,-3.09,1.85,-356.42
19295,800.47,775.73,761.36,766.16,775.93,-29.79,-879.88,519.04,-1.89,1.20,0.98,-357.33
19332,800.78,775.60,761.28,766.02,775.92,-45.90,-877.93,524.90,0.31,1.89,-0.58,-357.31
19368,801.14,775.53,761.25,765.84,775.94,-33.20,-889.16,514.16,-0.23,3.72,1.27,-356.02
19407,801.41,775.53,761.27,765.93,776.04,-41.02,-877.93,520.02,-0.45,-0.20,-0.40,-357.59
19443,801.46,775.60,761.23,765.96,776.06,-32.71,-883.30,502.93,-2.76,5.31,-2.16,-359.83
19479,801.37,775.63,761.20,765.96,776.04,-44.92,-879.39,526.37,-2.36,2.50,0.82,-360.59
19515,801.05,775.85,761.32,766.11,776.08,-34.67,-879.39,520.51,-0.95,1.95,-1.31,-360.61
19551,800.41,776.05,761.34,766.24,776.01,-33.20,-880.86,522.46,0.40,-2.47,0.90,-361.36
19590,799.71,776.16,761.41,766.47,775.94,-33.69,-881.84,509.77,-2.82,-1.44,-3.13,-361.29
19626,799.23,776.32,761.41,766.51,775.87,-28.32,-880.86,517.09,-0.13,1.01,-1.85,-361.68
19663,798.85,776.43,761.46,766.69,775.86,-42.97,-885.74,522.95,-0.74,-0.14,0.30,-362.67
19699,798.27,776.60,761.49,766.84,775.80,-31.25,-880.37,524.90,-1.13,0.05,0.35,-363.44
19735,797.62,776.58,761.64,766.85,775.67,-43.95,-887.21,512.70,-1.08,0.91,0.37,-357.46
19772,797.36,776.61,761.53,766.91,775.60,-42.48,-887.21,522.95,-0.68,-0.37,-1.06,-360.44
19811,797.13,776.68,761.47,767.06,775.59,-41.50,-878.91,496.58,0.42,1.65,-1.50,-363.89
19847,797.02,776.66,761.50,767.11,775.57,-41.99,-900.88,514.65,-1.37,0.37,-1.99,-363.28
19884,796.80,776.67,761.59,767.12,775.54,-48.83,-890.62,521.48,-0.53,0.91,-0.38,-360.57
19920,796.75,776.72,761.56,767.14,775.54,-36.62,-879.39,515.62,-0.24,-0.34,-1.03,-361.80
19956,797.05,776.63,761.55,767.14,775.59,-32.23,-885.25,517.09,-1.46,0.29,0.31,-362.48
19993,797.45,776.59,761.55,767.06,775.66,-34.67,-882.81,522.46,1.26,-1.16,-0.96,-362.34
20032,797.94,776.48,761.48,766.89,775.70,-27.83,-884.77,526.37,-1.11,-2.76,-1.05,-362.43
20069,798.06,776.28,761.43,766.74,775.63,-39.55,-893.07,515.62,-0.50,1.50,-1.20,-360.18
20105,798.47,776.27,761.48,766.58,775.70,-39.55,-878.91,516.60,-0.16,-2.12,1.41,-357.98
20141,799.07,776.13,761.38,766.45,775.76,-34.67,-877.44,526.86,-1.03,3.24,1.60,-359.51
20178,799.78,776.06,761.32,766.32,775.87,-36.62,-883.30,525.39,-0.34,-0.35,-0.65,-360.76
20214,800.61,775.90,761.36,766.01,775.97,-20.51,-884.28,514.16,0.35,-1.52,-0.81,-356.90
20253,801.20,775.82,761.27,765.90,776.05,-39.55,-877.44,523.93,0.02,1.19,-0.68,-359.01
20290,801.45,775.63,761.21,765.69,775.99,-35.64,-880.86,519.04,1.04,0.44,-1.44,-356.62
20326,801.90,775.41,761.16,765.46,775.98,-43.95,-887.21,522.46,-1.68,-0.17,-0.03,-354.08
20362,802.55,775.28,761.14,765.20,776.04,-38.57,-876.95,521.48,-2.33,0.07,-1.91,-352.02
20399,803.46,775.24,761.05,765.08,776.21,-31.74,-871.58,529.79,-0.69,0.66,-2.47,-355.34
20438,804.47,775.13,761.05,764.83,776.37,-39.55,-883.30,517.58,-0.17,0.04,0.94,-354.34
20474,805.58,775.10,761.00,764.66,776.58,-36.13,-878.42,516.11,1.07,0.82,1.26,-356.42
20510,806.54,774.92,760.94,764.49,776.72,-41.50,-880.86,524.41,-0.38,1.97,1.38,-357.43
20547,806.92,774.84,760.93,764.38,776.77,-47.36,-882.32,512.21,-1.24,1.37,0.48,-356.75
20583,806.97,774.89,760.96,764.33,776.79,-44.92,-888.67,521.48,0.46,1.03,1.43,-355.87
20619,806.82,774.84,760.94,764.39,776.75,-35.16,-889.65,510.25,-0.33,0.34,0.31,-356.34
20659,806.62,774.93,761.06,764.48,776.77,-41.02,-888.67,511.23,-0.80,-1.73,2.27,-354.60
20695,806.25,775.19,761.04,764.79,776.82,-38.57,-886.72,513.18,-0.24,-1.70,0.93,-360.68
20731,805.78,775.37,761.01,765.03,776.80,-41.50,-875.00,506.84,-0.21,2.53,1.21,-364.75
20768,805.28,775.69,761.05,765.34,776.84,-39.55,-868.16,527.83,2.20,-0.08,-1.67,-369.03
20804,804.51,776.04,761.22,765.74,776.88,-44.43,-870.12,516.60,-0.45,1.40,-1.69,-371.02
20840,803.58,776.48,761.30,766.14,776.87,-33.69,-888.67,512.21,0.02,0.52,-0.98,-375.23
20879,802.67,776.88,761.45,766.43,776.86,-43.46,-883.30,518.07,-1.18,-0.47,-1.24,-375.81
20916,801.74,777.17,761.56,766.83,776.82,-36.62,-885.74,516.11,-0.42,-0.29,-2.08,-378.17
20952,800.61,777.62,761.62,767.16,776.75,-27.83,-889.65,510.74,-1.79,0.44,-0.98,-381.17
20988,799.28,778.07,761.77,767.58,776.67,-34.67,-882.81,504.88,-1.58,-2.21,-2.28,-382.69
21024,797.74,778.47,761.88,768.09,776.54,-32.71,-878.42,511.23,-2.63,-0.12,-1.64,-385.34
21061,796.23,778.82,761.98,768.52,776.39,-36.13,-872.07,522.46,-0.05,-1.84,-0.80,-386.72
21100,794.89,779.10,762.11,768.83,776.23,-33.69,-888.67,512.70,0.35,1.08,0.80,-385.83
21136,793.91,779.49,762.22,769.31,776.23,-29.79,-878.42,507.81,0.19,-1.20,-0.87,-389.84
21175,792.95,779.86,762.41,769.70,776.23,-46.88,-889.65,515.14,0.04,0.01,-1.63,-390.63
21211,792.22,779.99,762.43,769.86,776.12,-37.60,-870.61,511.23,-0.14,-2.02,0.55,-390.97
21247,791.60,780.13,762.43,770.11,776.07,-38.09,-877.44,518.55,-0.21,-1.73,-1.65,-393.78
21283,790.97,780.22,762.54,770.11,775.96,-46.88,-879.39,517.09,-0.63,0.35,0.08,-389.33
21322,790.65,780.18,762.57,770.18,775.89,-30.27,-878.42,520.51,0.02,2.20,-2.01,-388.31
21358,790.56,780.09,762.58,770.25,775.87,-29.30,-884.28,515.14,-1.45,1.33,-0.64,-387.90
21395,790.50,780.00,762.42,770.17,775.77,-23.93,-888.67,513.67,1.21,-2.60,-2.25,-390.03
21431,790.68,779.95,762.50,770.13,775.81,-44.43,-890.62,525.39,0.72,2.76,-1.11,-387.64
21467,790.85,779.73,762.40,770.05,775.76,-25.88,-882.81,512.70,-0.08,-2.60,1.30,-387.68
21506,791.24,779.47,762.38,769.77,775.72,-40.04,-881.35,521.00,-0.85,0.45,1.42,-383.19
21543,791.79,779.17,762.28,769.44,775.67,-30.27,-886.72,509.28,0.63,-2.31,1.58,-380.25
21579,792.46,778.67,762.10,768.99,775.56,-24.41,-887.21,525.88,-0.15,-2.15,-1.84,-376.46
21615,793.16,778.25,762.04,768.66,775.53,-30.27,-874.51,513.67,-0.01,-3.18,-0.53,-372.34
21652,794.00,777.99,761.93,768.25,775.54,-34.18,-872.56,532.71,0.54,-1.28,-1.63,-369.85
21688,794.97,777.57,761.78,767.87,775.55,-31.74,-882.32,521.00,2.78,-1.86,2.34,-367.88
21727,795.97,777.25,761.71,767.44,775.59,-29.79,-881.84,529.30,0.80,-0.81,0.79,-364.17
21764,796.55,776.99,761.71,767.22,775.62,-40.04,-879.88,522.46,0.04,-1.65,-1.38,-360.76
21800,797.02,776.74,761.60,767.10,775.62,-30.76,-882.81,523.44,-1.01,1.89,-0.42,-361.34
21836,797.58,776.54,761.59,766.97,775.67,-38.09,-889.65,524.41,1.05,-1.37,-0.70,-360.00
21873,797.83,776.38,761.48,766.79,775.62,-31.74,-884.28,526.37,-1.37,1.25,-0.03,-359.56
21909,798.03,776.26,761.54,766.66,775.62,-40.04,-874.51,520.02,0.24,2.48,-0.38,-355.94
21949,798.02,776.13,761.43,766.62,775.55,-44.92,-877.44,525.39,0.55,0.95,-1.67,-357.14
21985,798.22,776.05,761.38,766.60,775.56,-25.88,-880.86,509.77,3.32,-1.90,-1.05,-358.18
22021,798.36,775.99,761.41,766.66,775.60,-40.04,-877.44,522.95,1.15,0.46,-1.70,-358.18
22058,798.42,776.04,761.44,766.59,775.62,-41.99,-884.28,513.67,-0.66,-0.68,-0.60,-357.12
22094,798.52,775.98,761.36,766.53,775.60,-39.55,-880.37,527.83,-1.36,-1.16,-1.02,-358.16
22130,798.64,775.90,761.46,766.57,775.65,-31.25,-868.16,525.88,1.23,-0.32,-1.55,-356.03
22169,798.78,775.88,761.38,766.50,775.63,-43.46,-874.51,517.58,-0.51,-0.40,-0.73,-357.13
22206,798.90,775.96,761.34,766.55,775.69,-42.97,-880.86,518.55,0.95,1.78,-2.83,-359.77
22242,799.01,775.99,761.41,766.53,775.74,-35.64,-876.95,515.14,0.55,1.56,-1.63,-358.55
22278,799.33,775.98,761.39,766.55,775.81,-33.20,-875.49,521.00,0.22,2.90,-3.13,-360.51
22315,799.66,776.10,761.42,766.53,775.93,-41.99,-875.49,524.41,1.11,0.30,-1.49,-361.39
22354,800.00,776.14,761.46,766.48,776.02,-39.55,-875.98,525.88,0.06,4.35,-1.95,-361.17
22390,800.18,776.12,761.48,766.47,776.07,-41.50,-891.11,514.16,0.84,2.01,1.14,-360.86
22427,800.01,776.08,761.40,766.40,775.97,-41.99,-885.25,527.34,0.44,1.34,0.18,-360.99
22463,799.88,776.17,761.39,766.37,775.95,-41.50,-893.55,518.07,-1.34,-2.53,-0.84,-361.16
22499,799.85,776.06,761.31,766.29,775.88,-36.62,-870.61,523.93,-0.02,-0.99,-1.74,-361.01
22536,799.97,775.99,761.45,766.31,775.93,-46.88,-884.28,528.81,0.64,0.11,0.43,-357.43
22575,800.12,775.87,761.40,766.29,775.92,-33.69,-885.74,521.48,0.17,0.57,-0.45,-358.01
22611,800.36,775.83,761.30,766.16,775.91,-47.36,-878.91,524.90,-0.22,-0.26,0.34,-359.18
22647,800.45,775.82,761.45,766.17,775.97,-41.02,-879.88,506.84,1.89,0.98,-2.49,-355.81
22683,800.43,775.79,761.33,766.22,775.94,-42.48,-882.32,520.51,-0.93,1.11,-0.47,-359.21
22719,800.36,775.72,761.35,766.16,775.90,-44.92,-867.68,524.90,-0.41,-0.11,-1.58,-357.04
22756,800.23,775.73,761.35,766.23,775.89,-36.13,-875.49,515.14,0.31,-2.86,-2.50,-357.59
22795,800.12,775.82,761.43,766.28,775.91,-27.83,-878.42,517.09,3.42,-0.33,-1.65,-356.84
22831,800.09,775.79,761.40,766.36,775.91,-41.02,-875.98,519.53,-0.40,0.76,-2.12,-358.26
22867,799.95,775.85,761.41,766.37,775.90,-39.06,-880.86,513.18,-0.18,0.04,0.28,-358.25
22904,799.65,775.86,761.39,766.43,775.83,-32.71,-880.37,513.67,-1.40,-3.26,0.26,-358.87
22940,799.43,775.94,761.40,766.48,775.81,-37.60,-878.42,509.28,0.25,-0.15,0.28,-359.13
22976,799.30,775.95,761.35,766.48,775.77,-34.18,-869.63,521.48,-0.51,0.85,-1.05,-359.94
23015,798.90,775.99,761.41,766.55,775.71,-44.43,-888.18,519.04,-3.12,-2.10,0.46,-358.54
23051,798.49,776.04,761.51,766.66,775.67,-24.41,-881.35,512.70,-1.46,2.00,-1.69,-356.48
23087,798.10,776.18,761.55,766.85,775.67,-41.50,-885.25,526.86,0.36,0.37,-0.47,-358.12
23124,797.69,776.30,761.57,766.97,775.63,-35.16,-881.35,518.55,-0.98,-0.37,-1.02,-359.02
23160,797.22,776.55,761.60,767.13,775.63,-36.13,-886.23,506.84,-0.37,-1.08,-2.90,-361.10
23199,796.66,776.76,761.71,767.40,775.64,-26.86,-886.72,521.00,-1.85,0.31,-1.99,-361.94
23235,796.10,777.01,761.81,767.60,775.63,-33.20,-893.07,506.84,-1.13,-0.34,-1.02,-362.56
23271,795.70,777.25,761.78,767.77,775.63,-47.85,-875.98,521.97,0.11,0.25,-4.71,-366.20
23307,795.62,777.39,761.78,767.75,775.64,-34.67,-886.23,528.32,-2.69,0.56,0.30,-366.81
23343,795.58,777.44,761.73,767.75,775.63,-41.99,-872.07,513.67,-0.63,-0.93,-1.53,-368.22
23380,795.50,777.48,761.78,767.75,775.63,-38.57,-889.16,520.02,-2.56,0.58,-0.73,-367.29
23419,795.35,777.51,761.85,767.75,775.61,-32.71,-884.77,507.81,0.53,0.22,-0.64,-365.25
23455,795.37,777.57,761.83,767.69,775.61,-32.23,-885.25,522.95,-1.49,-1.45,2.03,-365.22
23491,795.27,777.61,761.80,767.71,775.60,-33.69,-888.18,506.35,0.21,-2.33,-0.75,-366.45
23527,795.49,777.51,761.80,767.58,775.59,-47.85,-877.93,523.44,0.43,0.59,-0.55,-364.33
23563,795.81,777.36,761.72,767.53,775.61,-37.60,-878.42,515.14,0.44,1.85,0.27,-365.71
23599,796.10,777.27,761.76,767.50,775.66,-50.29,-884.77,519.53,0.26,0.18,-0.93,-364.46
23638,796.32,777.14,761.78,767.50,775.68,-42.97,-880.37,521.48,-0.64,-1.44,-2.65,-363.56
23675,796.50,777.26,761.70,767.46,775.73,-42.48,-893.55,513.67,-1.93,1.38,1.76,-366.39
23711,796.46,777.06,761.67,767.39,775.65,-41.99,-888.18,511.72,-1.14,-1.93,0.85,-364.77
23747,796.22,777.03,761.71,767.43,775.60,-31.25,-890.14,524.41,-1.60,-0.69,0.58,-363.01
23783,796.14,776.93,761.63,767.37,775.52,-38.09,-885.25,525.88,1.16,1.76,-0.83,-362.91
23819,796.20,776.93,761.69,767.34,775.54,-45.90,-884.28,526.86,1.26,0.89,-2.47,-361.34
23859,796.51,776.86,761.68,767.24,775.57,-36.13,-885.74,516.60,-0.29,2.40,0.85,-360.73
23895,796.77,776.72,761.66,767.33,775.62,-25.88,-888.67,516.11,-1.51,0.58,-1.41,-362.29
23931,796.98,776.69,761.64,767.22,775.63,-32.23,-883.79,513.67,-1.25,-1.05,-0.44,-361.61
23970,797.08,776.54,761.59,767.20,775.60,-32.23,-898.93,504.88,-1.02,-0.20,2.92,-361.57
24006,797.27,776.43,761.55,767.17,775.61,-33.20,-880.86,521.48,-0.61,1.41,0.57,-362.09
24042,797.26,776.35,761.60,767.10,775.58,-29.79,-881.84,522.46,-1.00,0.21,-1.40,-359.18
24081,797.29,776.24,761.45,767.08,775.51,-41.02,-875.98,527.34,1.12,0.66,0.47,-361.77
24118,797.36,776.19,761.49,767.05,775.52,-25.88,-865.72,507.81,-0.45,0.44,-1.55,-360.16
24154,797.51,776.11,761.48,766.96,775.51,-45.41,-879.88,503.42,-0.63,0.74,-1.08,-359.04
24190,797.86,775.95,761.43,766.92,775.54,-41.99,-879.39,530.76,0.44,0.38,2.25,-359.54
24226,798.20,775.90,761.43,766.87,775.60,-41.02,-878.42,517.58,-0.66,0.59,-2.81,-359.33
24265,798.58,775.64,761.42,766.84,775.62,-35.16,-878.91,525.39,-1.31,-0.04,0.47,-358.69
24300,799.21,775.59,761.32,766.79,775.73,-25.39,-884.28,527.34,1.03,-1.50,1.40,-362.13
24337,799.72,775.55,761.43,766.72,775.85,-34.67,-874.02,529.30,0.48,-2.11,-1.00,-359.77
24372,799.97,775.63,761.36,766.66,775.90,-44.92,-869.14,522.46,1.52,-0.92,1.60,-362.00
24408,800.16,775.51,761.32,766.64,775.91,-35.64,-898.93,527.83,0.02,-0.18,-1.99,-362.62
24444,800.35,775.63,761.36,766.61,775.99,-33.69,-881.84,523.44,-0.18,0.74,-0.06,-362.71
24483,800.53,775.68,761.38,766.55,776.04,-36.62,-873.54,521.97,-2.03,-1.11,-2.79,-362.35
24519,800.54,775.63,761.46,766.59,776.06,-33.69,-876.95,510.25,-1.02,2.39,0.07,-360.58
24555,800.40,775.62,761.41,766.58,776.01,-42.48,-884.77,522.95,0.37,-1.11,-1.27,-361.07
24591,800.36,775.63,761.41,766.57,775.99,-41.99,-891.11,528.32,-0.93,0.44,-2.11,-360.95
24627,800.31,775.66,761.37,766.63,775.99,-43.95,-884.77,530.27,0.05,0.63,-2.04,-362.91
24663,800.10,775.61,761.46,766.54,775.93,-37.11,-876.46,515.62,-0.09,0.17,-0.51,-357.98
24702,799.82,775.58,761.45,766.55,775.85,-28.81,-875.49,520.51,-0.19,2.58,-1.36,-357.40
24738,799.63,775.58,761.35,766.50,775.77,-47.85,-884.77,521.97,-0.60,0.78,1.38,-358.60
24774,799.67,775.53,761.41,766.50,775.78,-40.04,-891.60,521.00,-0.35,0.27,0.53,-356.76
24810,799.59,775.45,761.35,766.47,775.71,-35.64,-870.12,512.21,-0.92,3.15,0.53,-356.68
24847,799.66,775.49,761.44,766.48,775.77,-30.76,-884.77,525.39,0.08,-3.90,-0.63,-355.34
24884,799.79,775.55,761.32,766.53,775.80,-39.55,-880.37,507.81,-0.47,1.54,-0.51,-359.77
24923,799.85,775.47,761.34,766.46,775.78,-43.95,-872.07,521.48,-0.69,1.02,-1.47,-357.83
24959,799.76,775.56,761.37,766.50,775.80,-30.76,-891.60,527.83,-1.37,0.92,-1.80,-358.06
24995,799.51,775.53,761.43,766.51,775.74,-53.71,-874.51,524.90,0.29,0.04,-2.84,-355.70
25031,799.29,775.51,761.43,766.57,775.70,-40.53,-884.28,525.39,-0.80,2.37,-0.18,-355.63
25068,799.35,775.50,761.37,766.51,775.68,-25.88,-877.44,518.55,0.59,0.14,-0.56,-356.56
25107,799.68,775.49,761.34,766.44,775.74,-38.09,-869.14,527.83,0.17,2.89,-0.16,-357.18
25143,800.10,775.37,761.31,766.39,775.79,-48.83,-876.46,514.16,1.15,0.56,1.29,-357.67
25179,800.38,775.27,761.30,766.31,775.82,-51.27,-873.05,520.51,-1.18,-0.24,-1.92,-357.03
25216,800.58,775.12,761.27,766.23,775.80,-45.90,-863.28,516.11,-0.63,0.07,0.26,-356.20
25252,801.03,774.97,761.26,766.16,775.85,-47.36,-875.49,512.21,-0.11,-1.00,0.69,-355.69
25288,801.22,774.95,761.29,766.21,775.92,-40.04,-882.81,525.39,0.21,-0.48,-0.08,-356.23
25327,801.55,774.87,761.19,766.11,775.93,-42.48,-884.77,526.37,0.80,0.67,-1.73,-357.61
25364,801.54,774.85,761.25,766.13,775.94,-54.20,-883.79,525.39,-0.38,1.58,-1.21,-356.18
25400,801.56,774.84,761.27,766.15,775.95,-39.06,-872.07,529.79,-0.38,2.35,-1.16,-355.97
25436,801.45,774.83,761.28,766.12,775.92,-43.46,-874.51,524.41,1.95,0.06,1.76,-354.81
25472,801.56,774.89,761.25,766.09,775.95,-39.06,-877.44,526.86,0.44,-0.83,-0.36,-356.02
25509,801.67,774.89,761.30,766.16,776.00,-44.43,-878.91,515.14,-0.59,-2.40,-2.05,-356.05
25548,801.58,775.06,761.31,766.35,776.08,-45.90,-878.91,521.97,0.28,-1.34,-2.18,-359.67
25584,800.98,775.25,761.31,766.43,776.00,-59.57,-871.09,513.67,-2.47,0.27,-0.94,-360.37
25621,800.52,775.40,761.49,766.55,775.99,-42.97,-880.86,525.88,-1.99,-0.09,-0.96,-357.29
25657,800.20,775.53,761.46,766.61,775.95,-49.80,-879.88,523.93,0.27,0.73,0.18,-358.80
25693,799.82,775.61,761.45,766.67,775.89,-39.06,-889.16,515.14,1.47,0.98,-1.33,-359.35
25730,799.95,775.62,761.42,766.65,775.91,-40.53,-883.30,517.58,-2.03,-1.35,-0.82,-360.24
25769,800.06,775.62,761.36,766.69,775.93,-44.43,-883.79,523.93,1.82,-1.16,-1.46,-362.91
25806,799.97,775.66,761.34,766.64,775.90,-45.41,-882.32,529.30,-0.32,-1.75,0.43,-362.65
25842,800.01,775.66,761.39,766.62,775.92,-20.51,-876.46,531.25,0.14,-2.46,-0.56,-361.11
25879,800.00,775.51,761.38,766.57,775.87,-37.60,-874.51,525.88,0.27,0.34,-2.17,-359.30
25915,800.08,775.47,761.42,766.53,775.88,-39.06,-891.11,524.41,-0.92,0.75,-4.94,-357.66
25951,800.28,775.44,761.34,766.41,775.87,-39.06,-872.56,519.04,0.73,0.80,2.42,-358.35
25990,800.57,775.37,761.37,766.50,775.95,-33.20,-884.28,516.11,-0.52,-1.15,-0.53,-359.40
26027,800.50,775.42,761.38,766.37,775.92,-36.13,-871.09,528.32,0.54,0.78,-0.96,-357.61
26063,800.41,775.36,761.41,766.47,775.91,-34.18,-886.23,515.62,-1.47,1.28,-0.89,-357.60
26099,800.21,775.37,761.40,766.41,775.85,-38.09,-891.60,528.32,0.49,0.47,-2.53,-356.11
26135,800.01,775.45,761.43,766.47,775.84,-40.53,-885.25,517.09,-1.68,-1.32,0.32,-356.05
26174,799.86,775.46,761.40,766.55,775.82,-46.39,-869.14,535.64,0.90,-2.18,-2.02,-357.89
26210,799.92,775.39,761.41,766.50,775.81,-25.39,-882.32,525.39,0.87,2.13,0.79,-356.55
26246,800.01,775.44,761.39,766.45,775.82,-31.25,-882.81,518.55,-2.14,1.45,-1.24,-357.03
26283,800.06,775.50,761.35,766.40,775.83,-36.62,-870.12,527.83,1.77,0.70,-2.34,-357.79
26319,799.95,775.39,761.39,766.42,775.79,-41.02,-879.39,523.44,0.66,-0.41,-0.89,-355.82
26355,799.71,775.46,761.38,766.44,775.75,-40.04,-877.44,513.67,-0.18,3.40,-0.08,-356.09
26394,799.48,775.58,761.41,766.49,775.74,-40.04,-888.67,517.09,1.93,0.04,-0.95,-356.43
26430,799.70,775.61,761.38,766.47,775.79,-38.57,-880.37,525.39,1.85,-0.84,-2.46,-357.84
26466,800.00,775.72,761.42,766.50,775.91,-38.57,-884.28,531.25,0.34,-0.02,-1.09,-359.10
26503,800.12,775.73,761.43,766.46,775.93,-37.11,-877.44,524.90,-1.26,-0.31,1.12,-358.55
26539,799.78,775.77,761.40,766.59,775.88,-36.62,-877.44,522.95,0.04,1.63,-1.70,-360.60
26575,799.56,775.79,761.42,766.62,775.85,-42.48,-875.49,520.51,-1.44,1.34,0.03,-360.04
26614,799.26,775.81,761.52,766.77,775.84,-29.30,-891.60,517.58,0.15,2.25,-0.89,-358.59
26651,799.02,775.96,761.48,766.88,775.84,-35.16,-874.51,522.95,0.55,-1.71,-0.85,-361.65
26687,798.64,776.23,761.55,767.13,775.89,-44.43,-890.62,558.59,1.15,0.69,-1.85,-364.42
26723,798.14,776.39,761.58,767.42,775.88,-30.27,-885.74,504.39,-1.55,-0.26,-1.48,-367.67
26760,797.33,776.66,761.72,767.55,775.82,-32.23,-876.95,519.53,0.35,-4.04,-3.51,-365.49
26799,796.41,776.89,761.72,767.80,775.71,-41.99,-875.00,513.18,-0.31,1.32,-1.16,-367.82
26838,795.85,776.97,761.73,767.93,775.62,-37.11,-880.86,527.34,2.01,-0.07,-1.73,-368.19
26875,795.73,777.17,761.83,768.04,775.69,-38.09,-887.21,520.51,-0.88,4.41,2.33,-368.67
26911,795.81,777.29,761.91,768.09,775.78,-43.95,-880.86,520.02,1.03,1.19,0.31,-368.43
26947,795.90,777.38,761.81,768.06,775.79,-46.88,-872.07,504.39,0.23,0.11,0.92,-371.67
26984,795.81,777.29,761.84,768.14,775.77,-31.25,-882.32,518.07,-0.47,-0.28,1.84,-370.88
27020,795.69,777.33,761.90,767.95,775.72,-37.60,-879.39,527.34,-1.05,-0.19,-1.88,-366.50
27059,795.66,777.31,761.82,767.89,775.67,-33.20,-872.07,524.90,-0.56,-0.03,-0.31,-367.43
27095,795.71,777.17,761.77,767.78,775.61,-48.83,-882.81,515.62,-1.04,1.76,1.41,-366.15
27131,795.60,776.98,761.80,767.65,775.51,-31.25,-882.81,521.48,-1.30,0.20,0.58,-361.57
27168,795.61,776.88,761.77,767.58,775.46,-43.46,-869.14,528.81,0.97,-2.81,-1.41,-360.66
27204,795.77,776.78,761.77,767.61,775.48,-36.13,-877.93,505.37,-1.21,0.80,0.65,-360.82
27243,796.09,776.82,761.64,767.65,775.55,-36.62,-891.60,514.16,0.34,-2.03,0.38,-365.86
27279,796.41,776.72,761.71,767.62,775.62,-26.37,-884.77,522.95,0.81,-1.50,-0.74,-363.86
27316,796.86,776.60,761.67,767.62,775.69,-34.18,-884.28,527.83,2.01,-1.50,-1.07,-365.42
27352,797.17,776.48,761.65,767.44,775.68,-46.88,-888.67,516.60,0.89,1.61,1.21,-363.61
27388,797.62,776.32,761.61,767.34,775.72,-35.16,-888.18,522.46,-0.21,-0.01,-2.27,-363.37
27424,797.98,776.20,761.51,767.08,775.70,-37.11,-875.00,522.46,-0.02,2.06,0.12,-362.29
27463,798.50,775.97,761.51,766.99,775.74,-34.18,-888.67,519.04,-0.44,-1.87,-0.25,-360.97
27500,798.90,775.90,761.46,766.87,775.78,-50.78,-881.35,513.67,0.28,1.10,1.73,-361.04
27536,799.27,775.79,761.41,766.65,775.78,-37.60,-878.42,528.81,-1.92,1.27,-0.05,-359.59
27572,799.72,775.70,761.40,766.61,775.86,-49.32,-887.70,517.58,1.29,2.53,-2.18,-360.05
27609,799.91,775.65,761.41,766.52,775.87,-42.48,-887.21,542.48,0.27,0.28,-0.62,-358.86
27645,800.16,775.63,761.38,766.56,775.93,-42.48,-878.91,512.21,0.56,0.27,-1.01,-360.81
27683,800.38,775.66,761.40,766.49,775.98,-30.27,-894.53,521.97,0.75,-2.22,-0.41,-360.20
27719,800.49,775.71,761.40,766.56,776.04,-39.55,-876.46,529.79,-1.18,2.08,1.95,-362.15
27756,800.48,775.69,761.33,766.50,776.00,-32.23,-888.18,519.04,-3.74,-0.86,-0.89,-362.66
27792,800.45,775.65,761.30,766.49,775.97,-41.02,-881.84,526.37,-1.75,-2.54,0.23,-362.90
27828,800.31,775.76,761.39,766.51,775.99,-33.69,-874.02,523.93,-0.11,0.20,0.82,-361.28
27864,800.18,775.85,761.44,766.54,776.00,-45.90,-881.35,515.62,-1.47,1.68,-1.75,-360.88
27903,800.04,775.78,761.42,766.55,775.95,-39.06,-875.00,519.04,-1.98,-1.83,0.92,-360.56
27939,800.03,775.88,761.34,766.60,775.96,-41.99,-887.70,512.21,0.95,1.17,-1.34,-363.85
27975,800.00,775.89,761.40,766.58,775.97,-46.39,-872.07,530.27,1.05,-2.82,-0.73,-362.06
28011,799.97,775.97,761.39,766.68,776.00,-50.78,-872.56,524.90,0.51,-0.92,-1.48,-364.46
28047,800.12,775.93,761.43,766.56,776.01,-28.32,-871.58,519.53,-1.04,0.04,-1.57,-361.74
28086,800.10,775.84,761.50,766.57,776.00,-40.53,-873.54,527.34,0.41,-0.15,-1.85,-359.57
28123,800.15,775.93,761.43,766.60,776.03,-27.83,-876.46,509.28,-0.85,-0.89,-0.19,-362.44
28159,800.12,775.89,761.46,766.58,776.01,-42.97,-886.72,520.51,-0.53,0.11,-0.61,-361.02
28195,800.26,775.81,761.48,766.59,776.03,-37.11,-868.65,523.44,0.37,0.02,-0.97,-360.63
28232,800.39,775.82,761.41,766.57,776.05,-23.44,-893.07,518.07,-0.13,0.60,-2.62,-362.39
28268,800.43,775.83,761.43,766.57,776.06,-38.09,-878.91,529.79,-0.10,-0.78,-3.43,-362.25
28307,800.43,775.89,761.40,766.48,776.05,-43.95,-875.49,518.07,2.11,-0.11,0.93,-362.18
28343,800.52,775.84,761.40,766.57,776.08,-33.69,-879.88,515.62,-1.00,-0.44,0.21,-363.35
28379,800.56,775.77,761.43,766.51,776.07,-33.20,-870.12,520.51,-1.01,-0.10,-2.54,-361.36
28416,800.53,775.82,761.41,766.59,776.08,-39.55,-872.56,516.60,-0.79,1.02,-0.76,-363.27
28452,800.54,775.83,761.45,766.56,776.09,-42.97,-873.54,513.67,-0.08,1.34,-1.63,-361.95
28488,800.43,775.90,761.43,766.58,776.08,-47.36,-877.93,519.53,-2.58,0.93,-0.98,-362.83
28527,800.42,775.84,761.49,766.58,776.08,-38.57,-882.32,520.02,-0.48,-0.12,0.21,-361.02
28563,800.14,775.93,761.53,766.70,776.08,-33.20,-883.79,535.64,0.16,-1.37,-0.21,-361.47
28600,800.04,775.84,761.42,766.68,776.00,-33.20,-875.98,526.86,1.30,0.44,1.64,-362.96
28636,800.08,775.90,761.47,766.73,776.04,-35.64,-880.86,526.86,-0.57,2.43,0.82,-362.83
28673,800.01,775.84,761.47,766.74,776.01,-46.88,-880.86,520.51,-1.76,1.18,0.60,-362.40
28709,799.98,775.80,761.49,766.79,776.01,-33.20,-874.02,521.00,0.08,-0.70,-1.09,-362.11
28749,799.76,775.92,761.48,766.74,775.98,-33.20,-881.35,523.93,0.77,-1.23,0.04,-362.00
28785,799.52,775.86,761.49,766.76,775.91,-39.06,-880.37,521.00,-0.98,-1.05,-1.92,-360.55
28821,799.35,775.82,761.48,766.74,775.85,-44.43,-875.00,523.93,-1.77,-0.21,-2.11,-359.79
28858,799.20,775.89,761.42,766.75,775.82,-29.30,-873.54,523.44,0.98,-2.36,-1.24,-361.28
28894,799.22,775.95,761.45,766.65,775.82,-36.13,-883.30,527.34,-1.59,1.04,-1.15,-359.62
28933,799.26,775.88,761.45,766.63,775.80,-39.55,-884.28,521.00,-0.49,-0.58,-0.11,-359.10
28969,799.26,775.88,761.44,766.62,775.80,-41.99,-887.70,523.93,1.34,0.97,1.08,-359.18
29006,799.24,775.82,761.49,766.67,775.80,-48.83,-881.84,525.88,-0.04,2.53,1.01,-358.04
29042,799.23,775.83,761.42,766.52,775.75,-44.43,-880.86,529.79,1.69,2.31,-1.58,-357.71
29078,799.23,775.78,761.44,766.66,775.77,-33.20,-875.98,526.37,-1.00,-0.18,-0.33,-358.76
29115,799.38,775.80,761.34,766.59,775.78,-40.04,-881.84,520.51,0.86,-0.51,1.96,-361.06
29154,799.40,775.73,761.42,766.49,775.76,-37.11,-878.42,523.93,0.02,0.63,-1.18,-356.86
29190,799.42,775.82,761.47,766.43,775.79,-39.06,-883.79,522.95,0.82,0.59,0.47,-355.53
29227,799.43,775.78,761.42,766.39,775.75,-41.99,-887.70,506.84,0.57,-1.09,-2.98,-355.82
29263,799.68,775.78,761.48,766.34,775.82,-28.32,-880.37,521.48,-1.23,3.01,-2.15,-354.70
29299,799.85,775.75,761.37,766.28,775.81,-41.02,-894.04,519.04,0.70,2.24,-0.77,-356.66
29336,799.87,775.74,761.41,766.29,775.83,-55.66,-876.95,520.51,-0.41,0.18,-0.05,-356.02
29374,799.92,775.69,761.48,766.27,775.84,-34.18,-880.86,523.44,1.30,2.01,0.04,-353.80
29410,799.89,775.73,761.47,766.35,775.86,-44.43,-871.09,530.27,-0.03,1.11,0.68,-355.30
29446,799.94,775.76,761.43,766.43,775.89,-40.53,-876.95,524.90,-0.15,-0.72,-1.34,-357.83
29482,799.98,775.74,761.42,766.35,775.87,-38.57,-874.02,517.58,-2.93,0.40,-1.76,-356.94
29519,800.07,775.68,761.45,766.29,775.87,-30.27,-880.86,528.81,0.11,1.86,-3.30,-355.11
29555,800.16,775.58,761.39,766.43,775.89,-45.41,-878.42,519.04,0.76,1.01,-0.19,-358.11
29596,800.16,775.63,761.27,766.43,775.87,-33.20,-878.91,522.95,-1.31,0.02,0.08,-361.50
29632,800.16,775.58,761.39,766.30,775.86,-34.67,-882.81,521.00,0.98,0.02,0.35,-356.27
29669,800.23,775.61,761.35,766.30,775.87,-35.64,-865.23,518.07,-0.18,0.08,0.18,-357.78
29705,800.27,775.56,761.40,766.32,775.89,-40.04,-876.46,521.48,0.05,0.44,0.05,-356.42
29741,800.17,775.53,761.46,766.31,775.87,-25.88,-886.23,516.11,0.89,2.10,-1.44,-354.36
29777,800.08,775.55,761.36,766.31,775.83,-44.43,-870.12,506.35,-0.03,0.11,0.19,-356.54
29816,800.01,775.52,761.41,766.32,775.82,-36.13,-884.28,521.97,0.98,0.56,-0.74,-354.99
29853,800.13,775.52,761.40,766.36,775.85,-38.57,-870.61,523.93,0.08,4.10,-2.11,-356.29
29889,800.09,775.57,761.39,766.36,775.85,-30.76,-881.35,523.44,2.31,-0.15,-1.79,-356.84
29925,800.09,775.54,761.38,766.35,775.84,-26.37,-880.37,528.32,0.66,-0.50,-0.66,-356.70
29961,800.21,775.48,761.40,766.32,775.85,-44.92,-885.74,523.44,0.34,0.94,2.12,-355.79
30001,800.45,775.48,761.36,766.39,775.92,-31.74,-871.58,534.18,0.07,-0.40,-0.44,-358.66
30037,800.42,775.59,761.37,766.36,775.93,-41.50,-885.74,528.32,-0.93,0.01,-0.33,-358.60
30073,800.27,775.52,761.35,766.32,775.87,-48.83,-896.97,531.74,-1.63,-0.33,0.02,-357.50
30110,800.45,775.56,761.36,766.33,775.93,-45.41,-881.35,524.41,-1.16,-0.69,-0.99,-358.28
30146,800.64,775.60,761.39,766.32,775.99,-23.93,-877.93,517.58,1.01,1.93,-2.67,-358.35
30182,800.76,775.58,761.39,766.24,775.99,-35.16,-883.79,517.09,0.77,-1.18,0.16,-357.48
30221,800.82,775.55,761.33,766.30,776.00,-42.97,-879.39,524.41,0.19,-0.45,-0.79,-359.81
30258,800.75,775.59,761.33,766.20,775.97,-42.97,-896.48,521.48,-0.66,1.68,-0.76,-358.38
30294,800.71,775.51,761.38,766.27,775.97,-25.39,-881.35,508.79,-1.34,0.21,-1.65,-357.46
30330,800.60,775.59,761.42,766.26,775.97,-26.86,-889.16,517.58,1.79,-0.01,-0.58,-356.66
30367,800.52,775.52,761.46,766.28,775.94,-47.36,-881.84,519.53,-1.76,-1.69,-1.56,-354.90
30403,800.50,775.62,761.37,766.30,775.95,-39.55,-879.88,523.93,-2.48,0.56,-0.54,-358.38
30442,800.35,775.53,761.40,766.29,775.89,-36.62,-873.54,521.00,-1.61,-0.51,-0.59,-356.08
30478,800.24,775.53,761.34,766.20,775.83,-38.57,-877.93,517.58,-0.69,0.59,-0.69,-355.91
30515,800.18,775.45,761.38,766.23,775.81,-41.02,-875.98,526.86,-2.92,-0.40,-2.63,-354.56
30551,800.07,775.46,761.35,766.25,775.78,-33.69,-881.84,521.00,-1.32,1.78,-2.50,-355.30
30587,800.05,775.57,761.46,766.21,775.83,-29.30,-873.05,511.23,-0.60,-0.72,-2.43,-352.96
30624,800.08,775.52,761.41,766.23,775.81,-41.99,-876.46,520.51,-0.20,-0.31,-0.51,-353.91
30663,800.17,775.46,761.34,766.18,775.79,-34.67,-878.91,521.97,-0.43,-0.33,-0.60,-354.76
30700,800.04,775.52,761.38,766.21,775.79,-40.04,-874.02,507.32,-2.41,-0.65,0.76,-354.24
30736,800.00,775.49,761.39,766.17,775.76,-26.37,-892.09,528.32,-2.57,-0.74,-1.18,-353.14
30773,800.16,775.48,761.42,766.19,775.81,-35.64,-884.28,517.09,-1.71,2.45,-3.11,-353.25
30809,800.09,775.48,761.42,766.18,775.79,-40.53,-885.25,519.04,0.89,1.15,-0.50,-352.83
30848,799.98,775.48,761.36,766.22,775.76,-31.25,-871.09,517.58,-0.50,-0.94,-1.03,-354.47
30884,800.07,775.57,761.37,766.25,775.82,-45.90,-878.42,518.07,-0.79,0.89,-0.52,-355.59
30921,800.05,775.51,761.36,766.21,775.78,-40.04,-886.23,518.07,-0.62,-1.05,-1.76,-354.64
30957,800.06,775.62,761.39,766.27,775.84,-37.11,-885.74,526.37,0.82,0.31,-1.05,-355.73
30993,800.02,775.61,761.38,766.33,775.83,-43.46,-880.86,510.74,1.47,-0.46,-0.29,-356.88
31030,800.07,775.68,761.48,766.35,775.90,-31.74,-885.25,515.62,0.63,-0.18,-0.94,-355.27
31068,799.94,775.75,761.43,766.38,775.88,-55.66,-877.44,526.86,-4.95,1.76,-2.61,-357.26
31134,799.79,775.91,761.46,766.44,775.90,-33.20,-890.14,516.60,0.27,-0.24,-0.32,-357.89
31170,799.62,775.96,761.47,766.50,775.89,-28.81,-859.86,513.67,-3.41,-1.27,-2.86,-358.58
31206,799.43,776.05,761.44,766.60,775.88,-39.06,-875.00,502.44,0.24,-0.95,1.55,-360.73
31242,799.23,776.13,761.55,766.58,775.87,-39.06,-874.02,522.46,-2.37,-2.29,1.01,-357.70
31277,798.96,776.24,761.58,766.78,775.89,-30.27,-891.11,521.00,-1.24,2.15,0.02,-359.90
31316,798.61,776.39,761.56,766.90,775.86,-37.11,-884.77,517.09,-0.20,1.66,-0.99,-362.07
31352,798.48,776.47,761.61,766.96,775.88,-36.62,-875.49,530.27,-0.79,0.24,-1.35,-361.73
31387,798.32,776.70,761.60,767.16,775.94,-24.90,-877.44,519.04,-0.50,1.07,-1.89,-366.36
31423,798.46,776.89,761.70,767.32,776.09,-44.43,-884.28,520.02,-1.92,0.53,0.31,-368.23
31459,798.17,777.05,761.70,767.40,776.08,-36.13,-870.61,515.62,-2.36,1.12,0.02,-369.67
31495,797.89,777.05,761.73,767.41,776.02,-33.20,-872.07,518.55,-1.39,-0.04,-0.18,-368.07
31533,797.62,777.03,761.71,767.34,775.93,-34.67,-876.95,515.14,-1.01,0.34,-2.49,-366.64
31569,797.20,776.96,761.73,767.39,775.82,-50.29,-896.97,528.32,-0.91,-1.09,-0.88,-364.90
31605,796.98,776.88,761.76,767.43,775.76,-41.02,-873.05,521.00,0.05,-2.98,0.00,-363.28
31641,797.17,776.77,761.71,767.51,775.79,-46.39,-882.32,524.90,-0.95,0.31,0.68,-365.53
31677,797.34,776.75,761.80,767.35,775.81,-37.60,-875.98,510.25,1.19,2.27,-1.41,-361.24
31716,797.10,776.57,761.70,767.33,775.68,-34.67,-879.39,533.20,-0.60,2.87,-3.08,-361.38
31752,796.96,776.48,761.71,767.17,775.58,-30.76,-878.91,519.04,-0.60,-1.30,-1.97,-357.45
31788,796.91,776.29,761.63,767.09,775.48,-39.55,-878.91,526.37,1.13,-0.94,2.04,-356.36
31824,797.40,776.18,761.64,766.83,775.51,-39.55,-882.32,528.81,-0.82,-0.73,-0.38,-353.29
31860,798.17,776.14,761.55,766.72,775.64,-32.71,-880.37,527.34,-1.40,-0.69,0.29,-356.16
31896,798.89,776.08,761.55,766.53,775.76,-44.43,-888.67,525.88,0.27,1.21,0.96,-355.31
31935,799.24,776.07,761.46,766.47,775.81,-45.41,-881.84,522.95,-1.41,0.73,-0.52,-357.81
31971,799.17,775.99,761.50,766.44,775.77,-32.71,-879.39,521.48,-0.84,0.27,-2.34,-355.31
32007,798.95,775.91,761.45,766.39,775.67,-39.06,-890.62,517.58,0.29,-2.35,1.33,-354.58
32043,799.00,775.86,761.54,766.34,775.69,-51.27,-877.44,511.72,-0.09,-1.16,0.34,-351.55
32079,798.96,775.88,761.52,766.38,775.68,-35.16,-883.30,533.69,-0.89,-0.77,-1.40,-352.45
32115,798.95,775.80,761.47,766.32,775.64,-41.99,-877.44,509.28,-0.77,-1.52,-0.85,-352.37
32154,799.15,775.87,761.50,766.33,775.71,-37.11,-879.39,512.70,-1.33,-1.46,-1.33,-352.82
32190,798.91,775.99,761.49,766.46,775.71,-29.79,-881.35,515.14,0.98,-0.18,-0.51,-355.28
32226,798.58,775.93,761.49,766.49,775.62,-31.74,-884.28,512.21,-0.82,-0.63,0.69,-353.95
32262,798.30,776.09,761.55,766.62,775.64,-45.41,-883.30,520.02,-1.17,-0.01,-0.58,-354.63
32298,797.92,776.29,761.59,766.72,775.63,-36.62,-875.98,505.86,-1.42,0.98,-1.53,-355.61
32334,797.87,776.23,761.56,766.72,775.60,-26.86,-888.18,532.71,-0.44,1.96,-2.23,-355.72
32373,798.10,776.28,761.56,766.77,775.68,-30.76,-887.21,514.16,-0.06,0.31,1.02,-357.51
32411,798.25,776.24,761.63,766.74,775.71,-38.09,-881.35,528.81,1.04,0.19,1.68,-355.38
32447,798.37,776.31,761.57,766.72,775.74,-36.62,-871.58,523.93,0.54,1.76,-3.45,-357.77
32483,798.42,776.30,761.57,766.78,775.77,-33.69,-888.18,509.77,-0.21,-0.67,0.46,-358.71
32519,798.55,776.28,761.56,766.68,775.77,-43.95,-877.44,530.27,-0.69,-0.40,-0.53,-357.75
32563,798.86,776.21,761.54,766.66,775.82,-21.48,-901.37,508.79,0.89,0.11,-0.56,-358.27
32599,799.26,776.05,761.50,766.42,775.81,-47.85,-870.12,542.48,0.46,-0.50,-1.14,-355.92
32635,799.69,775.84,761.47,766.31,775.83,-38.57,-887.70,517.58,1.60,2.75,-2.67,-354.99
32671,800.01,775.70,761.49,766.18,775.84,-30.76,-882.32,502.44,-0.53,0.17,-0.16,-352.63
32707,800.08,775.64,761.43,766.20,775.84,-21.00,-874.51,533.69,0.82,-1.15,-0.44,-354.03
32743,800.15,775.53,761.41,766.12,775.80,-43.95,-887.21,534.67,-0.71,1.66,-1.89,-352.86
32784,800.12,775.63,761.43,766.18,775.84,-36.13,-874.02,521.97,-0.11,-0.85,-0.98,-353.83
32820,800.02,775.60,761.40,766.15,775.79,-45.41,-872.56,519.04,-1.82,0.96,-0.94,-353.60
32856,799.97,775.60,761.36,766.12,775.76,-41.02,-882.32,524.41,1.98,0.53,0.00,-353.80
32892,799.92,775.67,761.40,766.14,775.78,-45.41,-874.02,521.97,-2.08,-0.81,-2.35,-353.60
32927,799.90,775.55,761.44,766.09,775.74,-37.60,-883.30,513.67,0.38,0.26,-1.69,-350.84
32964,800.01,775.60,761.43,766.08,775.78,-42.48,-878.42,510.25,0.87,-0.28,0.67,-351.80
33003,800.18,775.58,761.45,766.05,775.82,-47.85,-898.93,512.70,0.32,0.63,0.37,-351.19
33039,800.19,775.56,761.43,765.98,775.79,-39.06,-880.86,517.58,0.11,0.36,-1.50,-350.39
33075,800.22,775.49,761.41,766.00,775.78,-42.48,-882.81,517.58,0.75,0.95,-1.23,-351.01
33110,800.11,775.54,761.44,765.97,775.76,-51.27,-878.91,518.55,-0.09,-0.56,-0.48,-349.60
33146,800.22,775.55,761.43,765.97,775.79,-52.73,-867.68,515.62,0.80,-0.50,-3.06,-350.57
33182,800.13,775.56,761.35,765.93,775.74,-42.97,-884.77,521.00,-0.13,1.11,0.18,-351.51
33221,799.70,775.60,761.44,765.98,775.68,-41.50,-884.28,517.09,-0.33,-2.36,-0.48,-348.89
33257,799.00,775.65,761.45,766.19,775.57,-44.43,-879.88,522.46,-0.41,1.75,-1.81,-349.73
33293,798.58,775.84,761.47,766.35,775.56,-29.79,-894.53,512.70,-1.21,-1.34,-1.80,-351.77
33329,798.37,775.87,761.50,766.48,775.55,-41.02,-879.88,523.44,0.76,1.21,-1.40,-352.45
33365,798.30,775.92,761.55,766.53,775.57,-37.11,-891.11,506.35,1.43,1.85,0.37,-352.13
33401,798.07,775.86,761.52,766.66,775.53,-38.57,-870.61,523.93,1.63,1.69,-1.31,-353.50
33440,797.94,776.18,761.57,766.73,775.60,-35.64,-879.88,517.09,-1.31,-1.02,-3.31,-355.47
33476,797.75,776.21,761.67,766.75,775.59,-32.71,-870.61,519.53,-1.01,3.16,-0.97,-352.77
33512,797.56,776.33,761.62,766.78,775.57,-43.95,-889.16,519.04,1.08,1.95,-1.07,-354.63
33548,797.52,776.24,761.63,766.81,775.55,-39.06,-881.84,517.09,-0.11,-1.11,-1.03,-354.15
33584,797.59,776.29,761.59,766.84,775.58,-53.22,-882.81,523.44,-0.91,-1.97,-0.06,-356.32
33623,797.46,776.37,761.60,766.91,775.58,-36.13,-874.51,519.53,-1.09,-1.66,0.31,-357.08
33659,797.39,776.39,761.62,766.87,775.57,-38.57,-884.28,525.88,-0.79,-2.03,0.57,-355.87
33695,797.38,776.36,761.68,766.90,775.58,-33.20,-881.84,525.39,-1.21,0.42,-2.04,-354.59
33732,797.32,776.36,761.62,766.93,775.56,-41.02,-877.44,523.44,0.27,-1.18,0.70,-356.37
33768,797.43,776.30,761.73,766.98,775.61,-30.27,-875.00,514.65,1.05,-2.79,0.50,-354.26
33804,797.55,776.26,761.61,766.92,775.58,-50.78,-882.81,515.14,-1.33,-1.16,-2.57,-356.46
33843,797.62,776.17,761.62,766.92,775.58,-44.43,-880.86,528.81,0.09,0.54,-0.38,-355.57
33879,797.87,776.16,761.69,766.89,775.65,-40.53,-875.49,524.41,2.20,0.51,1.31,-354.42
33915,798.10,776.14,761.57,766.92,775.68,-41.99,-879.88,521.00,1.47,1.76,-1.53,-358.36
33951,798.39,776.25,761.61,766.94,775.80,-38.09,-879.88,509.28,0.11,1.43,0.87,-359.40
33988,798.47,776.15,761.56,766.87,775.76,-30.76,-877.93,515.14,-0.37,1.28,-2.45,-359.11
34024,798.37,776.19,761.63,766.99,775.79,-34.18,-882.81,524.41,-0.47,1.18,0.78,-359.20
34063,798.13,776.21,761.61,767.07,775.75,-36.13,-892.58,522.46,0.80,-0.01,-0.19,-360.35
34099,797.75,776.26,761.64,767.14,775.70,-31.74,-869.14,527.34,-2.13,1.17,-0.38,-359.66
34135,797.57,776.30,761.65,767.07,775.65,-32.23,-872.07,532.23,-0.71,-1.42,-1.07,-358.03
34171,797.26,776.35,761.66,767.18,775.61,-17.58,-875.49,512.70,-0.96,-1.03,-2.85,-358.78
34207,797.01,776.30,761.70,767.17,775.54,-28.32,-895.51,519.53,0.11,0.24,-0.56,-356.36
34243,796.87,776.42,761.69,767.17,775.54,-46.39,-888.67,517.09,-2.33,-0.30,-1.78,-356.98
34282,796.80,776.35,761.75,767.17,775.52,-44.43,-882.81,515.62,0.87,0.09,-1.40,-354.76
34318,796.90,776.41,761.68,767.18,775.54,-30.27,-874.51,521.97,-0.66,0.13,-0.24,-357.54
34354,796.94,776.38,761.66,767.21,775.55,-38.09,-874.51,518.55,1.85,1.73,0.37,-358.44
34391,796.94,776.33,761.68,767.18,775.53,-35.16,-864.75,520.02,0.78,0.34,0.09,-356.97
34427,796.84,776.39,761.65,767.21,775.52,-26.86,-868.16,515.14,-0.72,0.81,0.31,-358.50
34465,796.83,776.35,761.69,767.20,775.52,-40.04,-879.39,518.07,-1.10,-1.93,-0.05,-356.81
34501,796.72,776.37,761.67,767.26,775.50,-42.97,-880.86,511.72,2.11,-1.95,-2.05,-358.04
34537,796.53,776.44,761.70,767.30,775.49,-35.16,-867.19,525.39,-1.74,-1.95,0.34,-357.77
34573,796.45,776.48,761.73,767.30,775.49,-20.02,-878.91,525.39,-0.17,0.86,1.72,-357.13
34609,796.35,776.50,761.72,767.37,775.49,-35.16,-881.84,524.90,-1.68,-0.60,-0.90,-358.21
34645,796.20,776.55,761.78,767.36,775.47,-42.97,-883.79,513.67,0.27,1.69,-0.06,-356.43
34684,796.14,776.61,761.75,767.45,775.49,-41.50,-878.91,526.37,-0.56,-0.44,-0.50,-358.82
34720,795.89,776.73,761.80,767.57,775.50,-29.79,-877.93,522.95,-0.08,0.68,-0.15,-359.49
34756,795.62,776.88,761.86,767.65,775.50,-42.48,-881.84,522.95,-1.60,0.73,-0.03,-359.42
34792,795.33,776.99,761.92,767.70,775.48,-28.32,-879.39,523.93,-1.35,-0.82,-0.59,-358.41
34828,795.22,777.10,761.88,767.86,775.52,-41.99,-887.70,525.39,-0.58,-0.82,0.15,-362.34
34864,794.91,777.12,761.93,767.91,775.47,-38.09,-882.81,515.62,1.87,0.21,0.37,-360.84
34902,794.80,777.28,761.97,768.09,775.53,-32.71,-887.21,523.93,0.63,-0.02,-0.92,-363.36
34939,794.75,777.33,761.92,768.16,775.54,-49.80,-881.84,530.76,-1.09,1.45,1.18,-365.93
34976,794.57,777.43,762.00,768.26,775.57,-30.76,-881.35,510.25,-1.24,-0.34,1.40,-365.50
35012,794.37,777.52,761.97,768.26,775.53,-43.95,-864.75,511.23,-0.62,3.18,-1.15,-366.50
35048,794.29,777.59,762.00,768.35,775.55,-34.67,-880.37,518.55,-0.31,0.95,-0.79,-367.29
35084,794.26,777.66,762.04,768.33,775.57,-54.20,-875.98,521.00,-1.20,1.46,-0.38,-366.34
35123,794.25,777.67,762.07,768.38,775.59,-25.39,-880.37,515.62,-1.09,-0.31,0.60,-366.57
35162,794.25,777.67,762.03,768.38,775.58,-37.11,-882.81,515.62,1.64,0.98,-1.05,-367.45
35198,794.17,777.66,762.08,768.36,775.57,-45.41,-882.32,530.27,-0.04,2.63,1.30,-365.49
35234,794.24,777.58,762.07,768.39,775.57,-38.09,-887.70,512.21,-0.34,-1.40,0.68,-365.72
35270,794.19,777.66,762.00,768.36,775.55,-31.25,-891.11,518.07,0.78,1.09,-2.34,-367.52
35306,794.29,777.67,762.05,768.33,775.59,-44.43,-877.44,506.84,-1.40,0.89,-1.37,-366.30
35345,794.41,777.65,762.03,768.25,775.58,-40.53,-882.81,512.70,0.50,-2.27,1.05,-365.85
35381,794.47,777.66,762.05,768.28,775.62,-29.79,-879.39,507.81,-0.61,0.66,-0.88,-366.01
35418,794.62,777.62,762.00,768.30,775.64,-44.92,-872.56,526.37,-0.13,1.71,0.97,-367.86
35454,794.61,777.52,761.88,768.21,775.56,-28.81,-873.54,521.48,0.76,-1.85,0.35,-368.65
35490,794.70,777.40,761.98,768.17,775.56,-37.60,-874.51,517.09,0.82,-1.62,-0.54,-365.10
35529,794.72,777.49,761.97,768.17,775.59,-40.53,-875.00,520.02,1.18,-0.86,0.90,-365.99
35565,794.71,777.51,762.02,768.15,775.60,-38.09,-890.14,519.53,-0.22,1.05,0.01,-364.64
35601,794.63,777.49,761.94,768.17,775.56,-47.36,-888.18,519.04,-1.07,0.27,-3.70,-366.49
35637,794.31,777.52,762.00,768.19,775.51,-24.41,-877.44,511.72,-1.02,0.39,0.09,-364.43
35673,794.21,777.53,762.06,768.27,775.52,-26.86,-886.23,523.44,0.57,0.45,-2.89,-363.78
35710,794.09,777.59,762.04,768.32,775.51,-29.30,-883.30,551.76,-1.12,0.14,0.29,-365.13
35748,793.85,777.68,762.13,768.36,775.50,-30.76,-888.18,524.41,-0.11,-0.02,-0.14,-363.44
35785,793.68,777.67,762.10,768.45,775.47,-51.27,-892.58,506.84,-1.47,2.09,0.02,-364.66
35821,793.50,777.73,762.08,768.48,775.45,-33.69,-888.18,531.25,-0.88,1.02,-1.21,-365.55
35857,793.21,777.89,762.12,768.58,775.45,-32.23,-877.93,521.48,-0.28,1.98,-0.63,-366.43
35893,793.06,777.86,762.16,768.58,775.42,-27.83,-893.07,521.48,-3.09,-1.09,0.95,-364.68
35930,792.95,777.85,762.16,768.65,775.40,-36.13,-884.77,521.00,-0.02,-0.65,0.13,-365.14
35969,792.95,777.87,762.13,768.61,775.39,-30.27,-872.56,510.74,-0.69,-0.27,0.53,-365.34
36005,792.95,777.86,762.18,768.54,775.38,-38.57,-872.56,523.93,-1.04,2.73,-0.86,-363.16
36041,793.10,777.82,762.08,768.47,775.37,-11.72,-883.79,522.46,0.41,-1.09,1.64,-364.71
36078,793.21,777.73,762.04,768.40,775.34,-44.43,-886.23,529.30,-0.56,0.32,-1.13,-364.47
36114,793.33,777.70,762.11,768.39,775.38,-48.34,-880.86,527.83,-0.32,0.98,1.18,-362.78
36150,793.49,777.66,762.02,768.35,775.38,-32.71,-871.09,523.93,-1.12,2.53,-2.60,-364.52
36188,793.72,777.67,762.09,768.26,775.43,-36.13,-895.02,516.60,-2.27,1.42,-0.24,-362.48
36224,793.95,777.52,762.08,768.27,775.45,-33.20,-893.07,523.44,-0.69,0.39,-1.47,-362.46
36260,794.17,777.44,762.06,768.15,775.46,-42.48,-885.74,529.79,-1.61,1.90,0.07,-361.12
36296,794.42,777.43,761.99,767.99,775.45,-24.90,-877.93,522.46,-2.46,1.28,-1.60,-361.35
36332,794.67,777.34,761.96,767.86,775.46,-35.64,-895.51,519.53,0.70,1.14,-0.55,-360.32
36371,795.01,777.29,761.88,767.86,775.51,-41.50,-876.46,510.74,0.28,0.34,0.66,-363.00
36407,795.18,777.27,761.92,767.72,775.52,-39.06,-872.07,526.86,-1.00,-0.53,-1.24,-360.39
36443,795.48,777.12,761.86,767.69,775.54,-27.83,-878.91,513.18,-0.75,-0.05,1.67,-361.47
36479,795.74,777.16,761.90,767.60,775.60,-20.51,-875.49,511.23,1.73,0.65,-1.74,-360.09
36515,796.13,777.11,761.77,767.50,775.63,-40.53,-879.39,527.34,0.55,1.87,-0.34,-363.03
36551,796.57,777.13,761.85,767.45,775.75,-49.32,-918.46,530.27,-1.66,1.23,-0.03,-361.86
36590,797.10,777.15,761.81,767.13,775.79,-30.27,-895.51,515.62,-0.97,-0.10,-0.31,-360.15
36626,797.81,777.07,761.71,766.99,775.89,-38.09,-882.32,498.05,-1.19,1.86,1.03,-362.50
36662,798.73,777.25,761.76,766.86,776.15,-28.81,-883.79,509.28,-1.32,-0.74,-0.50,-363.88
36698,799.40,777.25,761.70,766.75,776.27,-46.39,-885.74,521.97,0.25,0.88,0.90,-365.87
36735,800.10,777.38,761.65,766.61,776.44,-44.43,-868.65,527.83,0.39,0.58,-2.66,-368.60
36771,800.69,777.50,761.60,766.53,776.58,-30.27,-878.42,522.46,-0.86,2.43,-1.13,-371.64
36810,801.46,777.64,761.54,766.30,776.73,-27.83,-877.44,521.48,-0.57,2.14,-0.44,-373.63
36846,801.89,777.61,761.61,766.16,776.82,-40.53,-893.07,519.04,-1.56,-0.05,1.61,-370.98
36883,802.35,777.69,761.53,766.22,776.95,-32.71,-888.18,497.07,0.56,3.23,-1.44,-376.08
36919,802.59,777.58,761.54,766.10,776.95,-42.48,-885.25,536.13,-2.77,0.89,-0.77,-374.02
36955,802.95,777.67,761.47,766.06,777.04,-44.43,-888.18,510.74,0.00,2.19,0.41,-377.03
36991,802.99,777.71,761.55,766.00,777.06,-40.04,-886.72,505.86,-1.83,-0.79,-2.66,-374.62
37030,803.24,777.59,761.50,765.99,777.08,-24.41,-877.44,524.90,0.44,1.64,-1.64,-375.79
37067,803.25,777.67,761.52,766.07,777.13,-49.32,-885.74,506.35,-3.53,1.11,-2.08,-376.99
37103,803.11,777.74,761.52,766.07,777.11,-40.53,-886.72,514.16,0.53,-0.99,-2.74,-377.17
37139,803.02,777.82,761.54,766.06,777.11,-45.90,-883.79,519.04,1.03,-0.86,0.30,-376.73
37175,803.10,777.76,761.58,766.08,777.13,-34.18,-885.74,511.23,-0.46,2.95,1.02,-375.88
37211,803.09,777.79,761.55,766.15,777.15,-34.67,-878.91,519.04,-1.79,0.39,-1.08,-377.85
37250,803.05,777.86,761.54,766.14,777.15,-25.88,-883.30,519.04,-1.34,0.86,-1.52,-378.33
37286,802.95,777.87,761.68,766.21,777.18,-36.62,-876.46,516.11,-0.92,-2.26,-0.25,-375.61
37322,802.78,777.94,761.54,766.18,777.11,-29.79,-882.32,509.77,-0.25,0.88,-0.45,-378.75
37358,802.66,777.91,761.56,766.19,777.08,-51.76,-881.84,524.90,0.68,2.03,-1.47,-377.79
37394,802.55,777.89,761.62,766.12,777.05,-35.16,-882.81,511.23,1.66,-2.94,-0.11,-374.74
37433,802.57,777.91,761.57,766.26,777.08,-43.46,-884.28,508.30,-1.92,0.60,-1.02,-378.33
37469,802.49,777.96,761.57,766.19,777.05,-36.62,-874.02,523.93,-0.31,0.27,-0.22,-377.27
37505,802.45,777.89,761.57,766.26,777.04,-41.02,-892.58,510.25,0.57,0.73,0.16,-377.67
37542,802.35,777.91,761.51,766.22,777.00,-33.69,-875.98,509.28,-1.18,1.50,1.12,-378.47
37578,802.28,777.97,761.56,766.23,777.01,-43.95,-890.62,517.58,0.17,0.25,-0.64,-377.40
37614,802.28,777.98,761.59,766.28,777.03,-37.11,-880.86,531.25,0.68,1.00,3.10,-377.48
37653,802.26,777.94,761.56,766.20,776.99,-45.41,-880.86,504.88,-0.63,-0.83,2.12,-376.76
37689,802.24,777.95,761.57,766.28,777.01,-29.30,-893.55,505.37,1.15,-1.55,-0.50,-377.86
37725,802.21,778.01,761.55,766.32,777.03,-48.83,-889.16,518.55,-0.33,-0.31,-0.24,-379.13
37761,802.14,777.98,761.58,766.26,776.99,-44.92,-875.98,519.53,0.50,2.19,-0.64,-377.07
37798,802.23,777.98,761.53,766.19,776.98,-26.86,-891.60,501.95,-1.58,2.60,1.04,-377.70
37834,802.17,777.92,761.54,766.21,776.96,-34.18,-875.00,519.04,-0.76,1.01,-0.79,-376.94
37873,802.21,777.87,761.56,766.17,776.95,-39.06,-890.62,528.32,0.58,2.93,1.10,-375.44
37909,802.37,777.85,761.49,766.19,776.97,-41.99,-886.23,513.18,0.29,1.34,0.10,-378.08
37945,802.42,777.81,761.47,766.25,776.99,-42.97,-900.88,511.23,-0.97,-1.17,-1.96,-379.28
37983,802.34,777.86,761.56,766.19,776.99,-46.88,-875.49,521.97,-2.45,-0.33,-0.77,-376.28
38019,802.27,777.86,761.54,766.19,776.96,-39.55,-885.74,525.39,-2.66,-2.87,-1.50,-376.49
38056,802.17,777.84,761.57,766.28,776.96,-51.27,-886.23,516.60,-0.03,-0.92,-0.68,-376.57
38094,802.04,777.87,761.47,766.23,776.90,-28.81,-881.35,509.77,1.27,-3.08,-0.45,-378.05
38130,802.06,777.87,761.53,766.32,776.95,-42.48,-869.14,516.11,-0.91,-1.81,-0.39,-378.07
38166,801.95,777.93,761.58,766.39,776.96,-36.62,-894.04,512.70,-0.04,0.55,1.18,-377.85
38202,801.80,777.97,761.59,766.35,776.93,-43.95,-885.25,515.14,-0.86,-2.15,-0.44,-376.69
38238,801.82,777.88,761.50,766.32,776.88,-39.55,-878.91,518.07,0.62,0.74,-1.02,-378.12
38277,802.00,777.80,761.49,766.32,776.90,-31.25,-894.53,515.62,1.61,0.55,-1.02,-378.16
38313,801.84,777.76,761.54,766.30,776.86,-44.92,-889.65,521.00,0.12,-1.42,-0.97,-375.88
38349,801.91,777.79,761.54,766.29,776.88,-37.60,-882.81,514.65,0.27,-0.11,-0.38,-376.09
38385,802.07,777.76,761.54,766.21,776.90,-37.60,-904.79,521.48,-2.27,1.66,2.79,-375.18
38421,802.27,777.66,761.57,766.19,776.92,-32.71,-898.44,512.21,-0.09,-0.57,-0.76,-373.96
38458,802.46,777.64,761.53,766.09,776.93,-42.97,-880.37,516.60,-0.81,0.36,-0.80,-374.12
38496,802.70,777.47,761.47,766.12,776.94,-32.23,-883.79,510.74,-0.71,-2.02,-1.11,-375.38
38533,802.73,777.46,761.43,766.09,776.93,-28.81,-880.37,516.60,0.79,-0.77,-0.56,-375.93
38569,802.89,777.38,761.46,766.03,776.94,-32.23,-882.81,508.30,0.72,1.07,-1.31,-374.24
38605,803.02,777.36,761.44,765.97,776.95,-41.99,-886.72,518.07,-1.13,1.02,-0.82,-374.18
38641,803.12,777.29,761.42,765.96,776.95,-43.46,-885.74,524.41,0.60,-0.10,-2.95,-374.55
38677,803.28,777.22,761.33,765.93,776.94,-17.58,-885.74,517.09,0.26,-1.64,0.05,-376.26
38716,803.42,777.16,761.44,765.90,776.98,-33.69,-882.81,522.46,0.93,-0.47,-0.06,-373.10
38752,803.51,777.12,761.30,765.77,776.93,-38.57,-894.53,508.30,-0.40,-2.01,-2.47,-374.53
38789,803.45,777.08,761.40,765.83,776.94,-39.06,-880.86,511.23,0.98,1.58,-1.22,-372.60
38825,803.38,777.01,761.37,765.79,776.89,-44.43,-891.11,523.93,-1.02,0.94,-1.55,-371.71
38861,803.44,777.04,761.39,765.85,776.93,-38.57,-890.62,513.18,0.04,1.52,-1.50,-372.59
38898,803.40,777.10,761.48,765.89,776.97,-39.55,-880.37,508.30,-2.18,-0.36,-1.91,-371.46
38936,803.29,777.19,761.42,765.89,776.95,-36.13,-882.32,514.16,-1.47,2.41,0.34,-373.17
38973,803.16,777.21,761.38,765.95,776.92,-38.57,-879.88,508.79,-1.45,-0.49,0.02,-374.73
39009,803.03,777.18,761.44,765.98,776.91,-35.64,-888.18,509.77,-0.89,1.56,-0.16,-373.18
39045,802.78,777.37,761.51,766.04,776.92,-43.46,-880.86,521.00,-1.14,-0.48,-2.47,-372.88
39081,802.58,777.51,761.54,766.21,776.96,-35.16,-879.88,513.67,-1.50,-1.85,-1.70,-375.07
39120,802.32,777.63,761.52,766.27,776.93,-46.39,-873.05,515.14,0.13,3.02,0.66,-376.55
39156,802.34,777.64,761.58,766.24,776.95,-25.88,-876.95,526.86,-0.36,2.41,-1.18,-374.54
39192,802.32,777.58,761.52,766.18,776.90,-38.57,-883.30,500.00,-1.00,-1.84,-1.76,-374.66
39228,802.36,777.56,761.55,766.21,776.92,-39.55,-888.67,521.48,-0.18,0.99,-3.46,-374.39
39265,802.37,777.54,761.47,766.21,776.90,-35.64,-876.46,515.62,0.02,0.48,0.53,-376.19
39301,802.42,777.50,761.46,766.12,776.87,-37.11,-883.79,519.04,0.50,0.41,-0.57,-375.10
39340,802.43,777.58,761.49,766.11,776.90,-30.76,-883.30,520.02,0.88,0.03,1.86,-374.88
39376,802.54,777.40,761.53,766.10,776.89,-39.55,-874.51,516.60,0.72,-0.18,-1.07,-372.62
39412,802.70,777.44,761.45,766.14,776.93,-32.23,-881.35,530.27,0.27,-4.09,0.78,-376.19
39448,802.69,777.42,761.50,766.09,776.92,-35.64,-888.18,513.67,-0.89,-1.97,-1.66,-373.84
39485,802.70,777.40,761.51,766.10,776.93,-36.13,-894.53,517.58,1.85,-0.22,-0.10,-373.60
39521,802.69,777.42,761.53,766.09,776.93,-33.20,-881.35,514.65,0.56,-0.02,-0.74,-373.16
39560,802.64,777.43,761.49,766.09,776.91,-37.11,-881.35,507.81,-1.76,-0.70,-1.15,-374.08
39596,802.68,777.41,761.46,766.19,776.93,-23.93,-886.23,512.70,-0.94,1.63,1.11,-376.15
39631,802.58,777.44,761.51,766.15,776.92,-44.43,-885.25,524.41,-0.50,0.42,-3.13,-374.34
39667,802.58,777.42,761.52,766.15,776.92,-32.23,-882.32,520.51,0.46,1.66,-1.23,-373.98
39703,802.49,777.44,761.50,766.18,776.90,-44.92,-875.49,524.90,0.74,0.44,-1.29,-374.79
39739,802.46,777.46,761.51,766.27,776.92,-28.32,-895.02,514.65,1.17,0.48,1.62,-375.84
39779,802.26,777.46,761.54,766.28,776.88,-38.57,-877.93,523.93,0.13,-0.73,-1.39,-374.65
39815,802.14,777.54,761.49,766.29,776.87,-40.04,-892.58,521.97,1.01,-2.79,0.31,-376.25
39851,801.95,777.50,761.43,766.27,776.79,-25.39,-890.62,518.07,-0.09,-0.05,-2.19,-376.53
39887,801.82,777.52,761.55,766.31,776.80,-42.97,-874.02,514.16,0.92,-2.08,1.01,-373.79
39923,801.74,777.57,761.46,766.34,776.78,-40.53,-887.21,521.48,0.28,-0.93,-1.54,-376.56
39959,801.75,777.55,761.53,766.36,776.80,-37.60,-884.77,525.88,0.03,-0.17,2.47,-374.93
39998,801.60,777.56,761.49,766.35,776.75,-38.09,-884.28,508.30,-0.24,0.33,-0.40,-375.37
40034,801.47,777.68,761.52,766.41,776.77,-43.95,-896.48,519.53,-0.85,1.91,-0.20,-375.99
40070,801.30,777.73,761.53,766.46,776.76,-35.16,-879.88,516.60,-2.36,2.28,0.02,-376.23
40106,801.15,777.76,761.60,766.43,776.74,-43.95,-882.81,504.39,1.15,1.91,0.19,-373.75
40143,801.21,777.78,761.55,766.43,776.74,-49.80,-894.53,513.67,-0.72,1.41,-0.47,-375.46
40182,801.14,777.78,761.54,766.44,776.73,-36.13,-888.18,521.48,-1.17,0.61,-0.66,-375.69
40218,801.10,777.87,761.57,766.50,776.76,-40.53,-874.02,510.74,0.67,1.13,1.92,-376.46
40254,801.10,777.90,761.55,766.52,776.77,-52.25,-891.11,519.04,0.42,0.98,-2.58,-377.42
40290,801.12,777.78,761.60,766.51,776.75,-34.18,-883.79,510.25,-1.16,-0.11,-0.35,-374.97
40327,801.05,777.84,761.53,766.54,776.74,-45.41,-883.30,510.25,-1.45,-0.32,0.38,-377.58
40363,801.09,777.90,761.61,766.58,776.79,-32.23,-889.65,520.51,-0.44,3.76,-2.04,-376.88
40402,801.06,777.87,761.60,766.50,776.76,-37.60,-893.07,507.81,-0.99,-0.76,0.75,-375.45
40438,801.10,777.86,761.60,766.47,776.76,-43.95,-900.88,510.25,-0.98,-0.85,-1.24,-375.07
40474,801.07,777.85,761.60,766.49,776.75,-34.67,-879.39,514.65,0.70,2.15,-0.10,-375.14
40511,801.12,777.88,761.62,766.56,776.79,-39.55,-891.60,502.93,0.45,0.76,-1.55,-376.02
40547,801.16,777.86,761.60,766.57,776.80,-36.62,-890.14,514.65,-0.77,2.81,-1.59,-376.89
40583,801.18,777.83,761.60,766.47,776.77,-32.71,-888.18,511.72,0.17,0.50,2.08,-375.17
40622,801.27,777.81,761.59,766.42,776.78,-40.04,-881.84,519.04,-0.08,-1.61,-1.17,-374.83
40659,801.44,777.76,761.60,766.43,776.81,-41.99,-876.95,521.48,-0.66,1.58,-1.46,-374.81
40695,801.84,777.64,761.48,766.41,776.84,-34.18,-884.28,526.37,0.53,-2.18,0.46,-378.03
40731,802.12,777.55,761.56,766.32,776.89,-44.43,-886.23,518.55,-2.57,1.63,1.50,-374.86
40771,802.21,777.60,761.58,766.23,776.91,-42.97,-893.55,505.37,-1.03,-0.47,1.44,-373.87
40807,802.58,777.48,761.55,766.17,776.94,-33.69,-886.23,511.72,-1.73,0.95,1.60,-373.82
40846,802.88,777.39,761.57,766.15,777.00,-32.71,-885.74,524.90,-0.57,-0.86,-0.21,-373.54
40882,803.15,777.36,761.47,766.06,777.01,-42.97,-875.98,513.67,-0.23,-0.43,-0.32,-375.39
40919,803.32,777.40,761.49,766.01,777.05,-41.02,-888.18,516.11,1.22,0.28,0.05,-375.04
40955,803.48,777.36,761.50,766.03,777.09,-31.25,-899.41,509.28,-0.48,1.36,-1.33,-375.18
40991,803.86,777.43,761.43,765.91,777.16,-41.50,-894.53,525.39,1.05,1.13,-1.75,-377.05
41030,804.11,777.38,761.43,765.92,777.21,-33.69,-894.04,525.39,-1.96,-1.04,-1.59,-377.64
41066,804.26,777.33,761.47,765.89,777.24,-33.69,-878.91,522.46,-0.82,1.01,-0.60,-376.44
41102,804.38,777.38,761.51,765.94,777.30,-39.06,-885.25,509.28,-2.51,-1.09,-0.20,-376.94
41138,804.30,777.38,761.45,765.92,777.26,-48.83,-870.61,487.30,1.98,3.53,-2.15,-377.92
41175,804.48,777.40,761.48,765.96,777.33,-48.83,-895.02,499.02,-1.05,2.02,-1.37,-378.49
41211,804.55,777.42,761.46,765.88,777.33,-24.90,-880.37,496.58,-1.11,-2.40,-1.84,-378.15
41249,804.47,777.35,761.47,765.97,777.31,-36.13,-877.93,525.39,-0.75,0.23,-0.58,-378.59
41285,804.16,777.49,761.51,766.09,777.31,-43.95,-884.77,534.18,0.11,0.98,4.18,-379.22
41321,803.64,777.63,761.52,766.13,777.23,-36.62,-896.97,521.00,-3.60,-0.83,0.05,-379.08
41357,803.20,777.79,761.50,766.29,777.20,-38.57,-898.93,552.25,1.71,-1.85,0.11,-381.52
41393,803.12,777.81,761.53,766.30,777.19,-30.27,-887.70,483.89,-0.57,-0.44,-1.07,-380.91
41429,802.89,777.80,761.56,766.25,777.13,-38.57,-882.81,545.41,-2.15,-1.39,1.02,-378.43
41468,802.80,777.72,761.49,766.15,777.04,-28.32,-879.88,541.02,-0.93,0.31,0.79,-377.80
41504,803.00,777.62,761.46,765.99,777.02,-44.43,-877.44,482.91,-0.50,0.54,-1.28,-376.08
41540,803.41,777.62,761.44,765.94,777.10,-30.27,-885.74,506.84,1.00,1.42,-1.32,-377.29
41576,803.83,777.48,761.43,765.86,777.15,-25.88,-874.02,494.14,-0.22,-1.45,0.27,-376.55
41612,804.28,777.36,761.39,765.67,777.18,-27.34,-896.00,517.58,-0.69,1.76,-0.63,-375.35
41648,804.68,777.32,761.42,765.67,777.27,-43.46,-892.09,507.32,-0.90,2.11,-0.23,-375.88
41686,804.82,777.44,761.36,765.66,777.32,-38.09,-889.65,511.72,0.27,1.16,-1.21,-378.65
41723,804.91,777.38,761.40,765.66,777.34,-30.27,-891.60,524.90,-0.05,-0.33,0.48,-377.32
41759,804.73,777.56,761.48,765.88,777.41,-44.43,-880.37,520.02,-1.05,0.49,-2.02,-379.54
41795,804.23,777.71,761.42,766.06,777.35,-31.74,-889.65,513.18,-0.79,-0.58,-1.72,-383.23
41831,803.05,778.11,761.52,766.50,777.29,-48.83,-891.60,504.39,-0.59,-0.61,-2.69,-386.26
41870,801.18,778.57,761.60,766.84,777.05,-41.99,-874.02,509.77,-1.31,2.26,-1.59,-386.43
41906,800.09,778.97,761.78,766.96,776.95,-35.64,-887.21,512.21,-1.76,-0.93,-0.30,-383.34
41943,799.66,779.20,761.72,766.96,776.88,-43.46,-887.70,515.14,-2.90,-0.30,0.63,-384.95
41979,799.80,779.07,761.72,766.70,776.83,-28.32,-895.51,503.42,-2.19,2.12,-1.78,-380.72
42015,800.47,779.09,761.67,766.57,776.95,-28.81,-878.42,505.86,2.44,-0.07,-1.84,-382.44
42051,800.79,778.99,761.80,766.63,777.05,-31.74,-875.98,518.07,-0.97,-0.16,0.89,-380.50
42090,800.80,779.11,761.72,766.70,777.08,-30.76,-887.21,514.16,-0.69,3.46,-1.17,-384.49
42126,800.92,779.03,761.73,766.69,777.09,-42.48,-892.58,495.61,0.34,0.27,-0.72,-383.74
42162,800.98,779.08,761.74,766.66,777.11,-54.20,-886.72,507.81,0.15,-1.72,0.11,-383.58
42198,801.11,779.12,761.76,766.61,777.15,-40.04,-887.70,521.97,0.02,-2.44,-1.37,-383.29
42234,801.36,779.12,761.74,766.55,777.19,-60.55,-875.49,517.58,-1.72,1.14,2.40,-383.96
42270,801.46,779.17,761.70,766.52,777.21,-55.66,-886.72,499.51,0.66,-0.15,-0.45,-385.07
42309,801.39,779.25,761.73,766.57,777.23,-35.16,-886.72,509.28,1.07,0.52,0.92,-385.55
42345,801.47,779.29,761.81,766.63,777.30,-36.62,-881.84,519.04,-0.28,-0.06,-2.21,-384.79
42381,801.47,779.46,761.80,766.66,777.34,-39.06,-870.12,510.74,-0.79,2.23,-1.87,-387.00
42417,801.67,779.50,761.83,766.58,777.39,-44.43,-875.98,515.62,-1.79,0.85,-1.56,-386.20
42453,801.67,779.60,761.81,766.59,777.42,-46.88,-892.58,515.62,-1.48,-0.44,-1.51,-387.65
42489,801.82,779.60,761.77,766.53,777.43,-34.18,-894.53,511.23,-0.69,1.20,-0.27,-388.04
42528,802.37,779.46,761.76,766.39,777.49,-25.88,-878.42,512.70,2.83,-0.02,-3.15,-387.02
42564,803.01,779.24,761.72,766.40,777.59,-50.29,-881.84,543.95,0.52,2.69,0.80,-388.65
42600,803.53,779.23,761.66,766.35,777.69,-50.78,-896.97,488.77,-0.08,0.60,0.08,-391.04
42636,803.94,779.18,761.65,766.32,777.77,-44.92,-887.21,509.77,1.76,0.63,-0.59,-391.90
42672,804.07,779.10,761.70,766.37,777.81,-31.25,-884.77,518.55,0.08,-1.33,-2.04,-391.19
42709,803.90,779.17,761.79,766.48,777.84,-26.86,-878.42,509.77,0.31,0.67,3.10,-390.58
42748,803.65,779.24,761.72,766.52,777.78,-45.41,-893.07,511.72,-1.81,-2.69,-1.24,-392.55
42784,803.38,779.24,761.68,766.52,777.70,-40.53,-886.23,530.27,-0.03,0.24,-1.70,-392.59
42820,803.46,779.23,761.73,766.49,777.73,-36.13,-893.55,528.32,-1.35,0.76,-0.15,-391.14
42856,803.49,779.14,761.79,766.45,777.72,-28.81,-879.88,514.65,-2.45,0.56,1.09,-388.37
42892,803.40,778.91,761.73,766.44,777.62,-37.11,-877.93,510.25,0.43,4.06,-1.50,-387.72
42930,803.48,778.79,761.72,766.29,777.57,-46.88,-892.09,520.51,-1.63,1.02,2.27,-385.03
42966,803.52,778.66,761.65,766.33,777.54,-33.69,-890.14,517.09,-1.63,-1.13,0.62,-386.50
43002,803.62,778.65,761.67,766.29,777.56,-41.50,-886.23,528.81,-0.27,-1.22,-0.03,-385.66
43038,803.40,778.53,761.61,766.31,777.46,-39.06,-878.42,509.28,-0.06,-0.34,-1.15,-385.74
43074,803.22,778.47,761.71,766.38,777.45,-28.81,-900.88,516.11,-2.12,1.55,0.38,-383.07
43110,802.96,778.56,761.65,766.48,777.41,-28.81,-883.30,512.70,-0.59,1.11,-1.08,-386.01
43148,802.98,778.62,761.66,766.47,777.43,-38.57,-884.77,509.28,0.42,0.96,-2.44,-386.15
43184,802.80,778.61,761.72,766.44,777.39,-37.11,-884.77,514.16,-1.30,-1.81,0.39,-383.64
43220,802.63,778.61,761.72,766.42,777.34,-32.71,-883.30,514.65,1.25,3.49,0.86,-382.62
43256,802.61,778.67,761.70,766.34,777.33,-45.41,-875.00,513.18,0.01,1.15,0.09,-382.43
43292,802.63,778.60,761.68,766.34,777.31,-37.11,-874.51,520.02,0.13,2.57,-0.99,-382.32
43328,802.75,778.53,761.67,766.35,777.33,-56.64,-899.90,510.74,-0.08,-1.15,0.15,-382.73
43366,802.97,778.50,761.61,766.29,777.34,-41.99,-885.74,531.74,2.19,3.60,-1.69,-383.79
43402,802.96,778.53,761.60,766.30,777.35,-36.62,-877.93,474.61,0.71,-1.00,0.56,-384.27
43438,802.94,778.53,761.71,766.30,777.37,-34.67,-871.58,475.59,0.79,-0.81,-0.63,-381.66
43475,802.79,778.56,761.69,766.40,777.36,-36.13,-896.97,523.93,1.15,-1.06,-0.31,-383.07
43511,802.48,778.56,761.64,766.47,777.29,-29.79,-888.18,507.32,-0.47,-1.45,-1.37,-384.32
43547,802.36,778.51,761.65,766.49,777.25,-33.20,-896.97,525.88,0.44,-0.73,1.40,-383.56
43589,802.02,778.53,761.70,766.49,777.18,-41.02,-892.09,522.95,2.17,0.13,-1.38,-381.42
43625,801.88,778.53,761.72,766.56,777.17,-35.16,-887.21,518.55,-1.67,0.53,-1.51,-381.43
43661,801.86,778.57,761.70,766.59,777.18,-51.76,-882.81,517.58,-1.66,-1.99,-2.98,-382.81
43697,801.84,778.61,761.73,766.62,777.20,-34.18,-886.23,521.00,-0.34,0.98,-3.02,-382.75
43734,801.64,778.75,761.74,766.68,777.20,-34.18,-885.25,510.25,-1.08,1.17,-2.88,-383.71
43773,801.78,778.89,761.86,766.71,777.31,-44.43,-884.28,515.14,0.99,-1.66,-1.20,-382.76
43809,801.61,778.94,761.67,766.80,777.26,-49.32,-880.37,523.44,0.54,0.33,-2.37,-388.70
43845,801.72,778.88,761.80,766.73,777.28,-38.09,-885.25,516.60,-2.26,-1.44,-0.75,-384.34
43881,801.40,779.03,761.79,766.83,777.27,-33.20,-893.07,522.95,-0.11,-0.98,-1.35,-386.06
43917,801.34,779.07,761.74,766.84,777.25,-45.41,-890.62,518.07,0.22,-0.33,-0.14,-387.55
43953,801.76,779.24,761.87,766.83,777.42,-28.32,-876.95,510.74,1.15,0.79,-1.26,-387.01
43992,802.36,779.25,761.75,766.83,777.55,-40.04,-884.77,521.48,0.42,1.73,0.24,-391.98
44028,802.18,779.11,761.76,766.71,777.44,-35.64,-862.30,497.56,-1.76,0.89,-1.66,-388.51
44064,802.05,779.08,761.73,766.74,777.40,-40.53,-885.25,517.58,-2.49,-0.19,-2.14,-388.95
44101,802.17,779.12,761.76,766.82,777.47,-50.78,-898.44,519.53,1.14,-0.60,-1.02,-390.20
44137,802.12,779.23,761.87,766.89,777.53,-22.95,-886.72,517.58,-1.27,0.95,-0.63,-389.15
44173,801.89,779.31,761.87,766.94,777.50,-36.13,-887.21,506.35,-0.89,-2.57,-1.29,-389.65
44212,801.77,779.36,761.86,767.00,777.50,-39.06,-892.58,518.07,1.02,0.84,-0.79,-390.72
44248,801.65,779.36,761.87,767.02,777.48,-33.69,-889.65,515.14,-0.50,-1.89,-1.79,-390.33
44284,801.44,779.46,761.91,767.07,777.47,-34.67,-879.88,520.02,1.64,-0.78,-2.34,-390.28
44320,801.37,779.42,761.86,767.15,777.45,-39.06,-884.28,510.74,-0.46,-0.18,0.17,-392.06
44357,801.35,779.48,761.93,767.17,777.48,-33.20,-877.44,503.42,0.35,-0.98,1.61,-391.05
44393,801.44,779.50,761.86,767.18,777.49,-35.64,-880.37,522.46,1.35,-0.79,-0.64,-393.29
44432,801.43,779.48,761.87,767.18,777.49,-41.02,-875.00,504.88,1.22,1.38,-3.04,-392.98
44468,801.31,779.46,761.81,767.22,777.45,-45.41,-878.42,513.18,0.43,2.72,-0.39,-394.40
44504,801.33,779.36,761.94,767.14,777.44,-43.46,-890.14,517.58,-0.80,0.83,-0.66,-389.25
44541,801.58,779.35,761.84,767.09,777.46,-38.57,-880.86,515.14,1.10,2.22,-1.91,-392.01
44577,801.81,779.37,761.86,767.07,777.53,-42.97,-887.21,506.84,-0.43,-1.39,-2.59,-391.91
44616,801.89,779.30,761.82,767.05,777.51,-27.83,-888.18,513.18,-0.90,2.96,1.27,-392.50
44653,801.94,779.26,761.90,767.09,777.55,-37.60,-897.46,513.18,1.31,0.56,-2.98,-390.75
44689,801.90,779.26,761.85,767.04,777.51,-31.74,-895.02,517.09,1.90,2.03,1.95,-391.36
44725,802.01,779.28,761.76,767.08,777.53,-23.93,-893.07,517.58,1.92,1.06,-0.57,-394.58
44761,802.07,779.17,761.78,766.99,777.50,-37.11,-892.58,514.65,-2.63,0.62,-1.57,-392.04
44797,801.92,779.28,761.86,766.91,777.49,-43.95,-879.88,509.77,-0.52,-1.13,-0.36,-389.26
44836,801.98,779.15,761.91,766.95,777.50,-38.09,-879.39,500.49,-0.46,-0.63,-0.08,-387.90
44872,802.14,779.18,761.89,766.98,777.55,-44.92,-891.60,517.09,-0.49,-0.50,1.82,-389.59
44908,802.15,779.09,761.85,766.92,777.50,-42.97,-882.32,514.16,-0.89,0.61,-1.02,-389.06
44944,802.10,779.12,761.82,766.91,777.48,-43.46,-893.07,507.32,1.02,-2.38,-0.67,-389.66
44980,802.04,779.08,761.83,766.89,777.46,-27.83,-883.30,521.00,0.26,-4.70,-0.62,-388.60
45016,802.14,778.98,761.81,766.85,777.44,-40.53,-877.93,504.39,1.03,0.96,0.42,-387.91
45055,802.19,779.07,761.84,766.79,777.47,-41.50,-885.74,507.32,-1.58,2.47,-0.43,-387.24
45091,802.22,779.05,761.86,766.91,777.51,-41.99,-874.51,513.67,-1.78,0.79,0.57,-388.48
45127,802.14,778.99,761.82,766.90,777.46,-40.53,-888.67,509.77,0.63,-1.15,0.01,-388.47
45164,802.22,778.93,761.87,766.89,777.48,-35.16,-882.32,530.76,-0.73,0.26,-2.40,-387.10
45200,802.29,778.97,761.80,766.86,777.48,-35.16,-878.42,510.74,0.53,0.99,-1.01,-388.80
45236,802.28,779.01,761.78,766.87,777.48,-34.67,-888.18,524.90,0.04,0.46,0.18,-389.87
45275,802.39,778.83,761.81,766.80,777.46,-33.20,-876.46,510.74,1.68,1.86,1.96,-386.79
45311,802.55,778.84,761.80,766.73,777.48,-39.55,-892.09,517.09,0.37,0.54,0.40,-386.59
45348,802.77,778.80,761.74,766.61,777.48,-36.62,-878.91,527.34,1.08,0.56,-1.73,-386.93
45384,802.89,778.65,761.66,766.54,777.44,-42.97,-875.98,517.09,0.03,-1.18,3.91,-387.23
45420,803.10,778.59,761.71,766.53,777.48,-33.20,-898.93,510.25,-0.57,-1.24,-1.76,-385.85
45456,803.29,778.44,761.75,766.47,777.49,-32.23,-883.30,518.55,0.18,-0.04,0.92,-383.37
45496,803.50,778.37,761.72,766.42,777.50,-36.62,-886.72,516.11,-3.16,-0.75,-0.08,-383.65
45532,803.63,778.22,761.64,766.37,777.47,-31.74,-897.46,514.16,-2.48,1.31,-0.67,-384.16
45568,803.81,778.23,761.68,766.35,777.52,-38.57,-892.09,515.62,0.69,1.22,-1.84,-383.57
45605,803.94,778.15,761.68,766.28,777.51,-36.62,-886.23,520.51,-1.26,0.82,-4.07,-382.34
45641,804.01,778.11,761.69,766.22,777.51,-28.81,-894.53,520.02,0.57,0.14,-0.44,-381.01
45680,804.07,778.07,761.66,766.30,777.52,-37.60,-896.48,497.56,-0.24,0.25,0.57,-383.09
45716,804.03,778.15,761.65,766.26,777.52,-38.57,-879.88,516.11,-0.33,1.06,-0.56,-383.18
45753,804.10,778.16,761.63,766.32,777.55,-31.74,-881.35,516.60,-0.99,0.31,1.59,-384.95
45789,804.09,778.22,761.67,766.30,777.57,-41.50,-888.18,500.98,1.01,-0.39,-1.66,-383.85
45825,804.05,778.23,761.68,766.33,777.57,-45.41,-888.18,513.18,0.97,1.28,0.15,-384.17
45861,803.92,778.29,761.65,766.42,777.57,-37.11,-881.35,515.62,0.38,0.61,-3.56,-386.15
45900,803.86,778.35,761.74,766.41,777.59,-33.69,-882.32,506.84,0.08,-1.03,-1.02,-384.01
45936,803.69,778.42,761.72,766.41,777.56,-35.16,-877.44,521.00,2.44,-0.25,0.73,-384.53
45973,803.77,778.45,761.71,766.44,777.59,-34.18,-887.21,515.14,-0.60,-1.37,0.30,-385.99
46009,803.69,778.46,761.74,766.49,777.60,-39.55,-884.28,522.46,-1.44,-0.73,1.63,-385.59
46045,803.57,778.40,761.66,766.54,777.54,-37.11,-873.05,521.00,0.35,0.46,-1.10,-387.46
46081,803.52,778.51,761.75,766.54,777.58,-45.41,-885.74,518.55,2.01,-1.37,0.11,-385.90
46120,803.46,778.47,761.74,766.55,777.56,-42.48,-881.84,520.51,-1.95,-0.09,-0.84,-385.84
46156,803.47,778.49,761.71,766.49,777.54,-41.02,-882.81,517.58,1.36,0.55,-2.17,-385.91
46192,803.52,778.41,761.77,766.41,777.53,-35.64,-884.77,516.11,-0.10,-0.39,-0.10,-382.80
46229,803.64,778.32,761.66,766.37,777.50,-37.60,-874.02,508.79,-1.79,0.44,-0.17,-384.55
46265,803.79,778.31,761.60,766.32,777.50,-41.50,-891.60,513.67,1.34,-1.73,-0.96,-385.77
46301,804.06,778.18,761.65,766.27,777.54,-39.55,-883.30,506.84,1.07,1.66,0.05,-383.66
46342,804.23,778.03,761.64,766.23,777.53,-23.93,-876.95,516.11,0.40,-1.02,-1.02,-382.63
46378,804.40,777.98,761.62,766.06,777.52,-46.88,-872.56,507.32,-3.24,1.21,0.72,-380.75
46414,804.85,777.88,761.67,765.96,777.59,-55.18,-891.11,516.11,-1.82,0.03,-0.97,-378.97
46450,805.33,777.76,761.61,765.89,777.65,-20.02,-875.98,508.79,1.75,2.49,2.07,-379.95
46486,805.80,777.63,761.55,765.82,777.70,-38.09,-873.54,505.86,-0.08,0.04,0.56,-381.12
46522,806.25,777.49,761.45,765.67,777.71,-41.50,-887.21,506.35,-1.72,0.10,0.34,-381.77
46561,806.79,777.33,761.41,765.51,777.76,-36.13,-871.58,531.25,-0.31,-0.03,-1.77,-381.03
46597,807.27,777.18,761.38,765.43,777.81,-47.36,-891.60,525.88,-0.14,3.69,-1.62,-380.99
46633,807.59,777.03,761.43,765.33,777.85,-45.90,-890.14,519.04,0.69,0.65,-0.80,-378.17
46669,807.90,776.95,761.40,765.22,777.87,-41.50,-872.56,511.72,1.09,-1.72,0.58,-377.69
46705,808.16,776.89,761.37,765.19,777.90,-29.79,-884.28,513.18,0.11,-0.09,1.69,-378.47
46744,808.32,776.86,761.31,765.14,777.91,-47.36,-888.18,514.16,-0.69,-0.26,-2.25,-379.39
46780,808.39,776.76,761.32,765.09,777.89,-29.30,-876.95,513.18,0.15,-3.46,0.22,-377.78
46816,808.52,776.59,761.29,765.04,777.86,-33.69,-875.00,522.95,-0.57,0.63,0.32,-377.01
46853,808.57,776.59,761.23,764.99,777.84,-36.62,-893.07,510.25,-0.56,-0.95,-0.82,-377.94
46889,808.69,776.64,761.28,764.95,777.89,-47.85,-899.90,528.81,0.35,2.50,-0.98,-376.97
46925,808.76,776.65,761.28,764.91,777.90,-49.32,-887.70,511.72,-2.44,3.17,-1.47,-376.69
46964,808.78,776.60,761.26,764.90,777.89,-46.88,-882.32,504.88,-0.67,0.40,-2.17,-376.79
47000,808.83,776.69,761.26,764.97,777.94,-36.62,-871.09,508.30,-1.28,2.11,-1.78,-378.71
47036,808.70,776.85,761.21,764.99,777.94,-36.13,-889.16,503.42,-2.63,-0.71,-0.82,-380.94
47073,808.56,776.78,761.21,764.96,777.88,-30.27,-885.74,506.35,0.11,-3.36,1.73,-379.44
47109,808.57,776.88,761.37,764.98,777.95,-37.60,-886.23,512.70,0.04,1.47,-1.92,-376.66
47145,808.70,777.08,761.32,765.09,778.05,-56.64,-867.19,493.65,-5.37,2.08,-3.20,-381.57
47184,808.68,777.37,761.32,765.06,778.10,-43.95,-888.18,505.37,-1.95,1.33,-2.33,-383.33
47220,808.61,777.55,761.37,765.10,778.16,-52.25,-871.58,512.70,-1.82,1.74,-0.74,-383.88
47257,808.66,777.78,761.31,765.18,778.23,-31.25,-874.51,530.27,0.31,0.66,0.58,-388.54
47293,808.71,777.96,761.29,765.15,778.28,-36.62,-896.48,511.72,0.21,-1.37,-2.98,-390.43
47329,808.75,778.14,761.37,765.10,778.34,-26.37,-900.88,520.51,1.47,-0.35,-0.24,-389.05
47365,808.85,778.36,761.32,765.08,778.40,-52.25,-879.88,496.58,-1.56,-0.20,-1.92,-392.09
47404,808.77,778.31,761.24,764.94,778.32,-38.57,-907.23,501.95,-0.17,0.95,-0.05,-391.36
47440,808.92,778.28,761.26,764.83,778.32,-37.11,-882.32,516.11,0.04,0.40,1.85,-389.74
47476,809.22,778.23,761.24,764.65,778.34,-56.15,-874.02,512.21,-1.08,-2.20,-1.02,-388.20
47513,809.57,778.22,761.10,764.38,778.32,-31.25,-890.14,505.86,-1.24,-0.28,0.21,-388.58
47549,810.05,778.04,761.02,764.19,778.32,-27.83,-880.86,510.74,0.05,0.41,-1.15,-388.16
47589,810.38,777.92,761.03,764.20,778.38,-44.92,-883.30,500.98,-0.11,-1.53,0.21,-388.06
47625,810.80,777.92,761.06,764.15,778.48,-46.39,-895.51,497.07,-3.48,2.98,1.08,-388.26
47661,810.85,777.99,760.98,764.16,778.50,-36.13,-888.18,494.14,0.55,0.89,-0.62,-390.99
47698,810.81,778.01,761.10,764.27,778.55,-20.02,-881.84,488.77,-0.53,-0.48,-2.42,-389.77
47734,810.72,778.13,760.94,764.42,778.55,-42.97,-882.32,514.16,1.12,-0.73,0.79,-396.45
47770,810.53,778.25,761.13,764.57,778.62,-41.02,-888.67,502.93,-0.76,2.48,-0.82,-394.27
47809,810.43,778.29,761.18,764.59,778.62,-33.69,-895.51,510.74,-0.63,0.48,0.26,-393.41
47846,810.43,778.43,761.18,764.59,778.66,-46.88,-889.16,503.42,-0.96,-2.53,0.73,-394.42
47882,810.46,778.45,761.18,764.72,778.70,-35.64,-880.37,502.93,-0.47,0.66,1.68,-396.51
47918,810.50,778.62,761.16,764.81,778.77,-35.64,-884.28,509.28,-0.61,0.44,-1.32,-399.87
47954,810.53,778.65,761.21,764.90,778.82,-43.95,-884.28,509.77,-0.67,1.72,-2.44,-400.48
47991,810.34,778.71,761.19,764.93,778.79,-42.97,-896.97,498.54,-0.45,-0.04,-1.22,-401.23
48030,810.17,778.75,761.22,764.92,778.77,-47.36,-883.30,512.21,-0.32,-0.64,1.11,-400.16
48066,810.12,778.79,761.22,764.93,778.76,-48.34,-882.81,511.72,-0.45,0.73,-2.13,-400.34
48102,810.05,778.98,761.31,764.94,778.82,-41.99,-870.12,507.32,0.44,1.34,-0.37,-399.48
48138,809.91,778.91,761.26,764.98,778.76,-32.71,-893.07,511.23,0.94,0.57,-1.50,-400.30
48174,809.69,779.05,761.32,765.15,778.80,-41.02,-893.55,497.56,0.45,0.53,-1.53,-401.63
48211,809.32,779.18,761.32,765.19,778.75,-35.16,-859.37,511.23,1.30,2.53,-0.11,-402.20
48250,808.86,779.21,761.36,765.27,778.67,-48.34,-909.18,500.49,2.37,-0.01,-2.27,-400.86
48286,808.32,779.24,761.45,765.40,778.60,-43.95,-899.41,510.25,-0.34,2.05,-0.37,-399.01
48322,808.02,779.21,761.47,765.52,778.56,-36.13,-893.55,504.88,0.18,-2.09,1.22,-398.98
48358,807.74,779.40,761.39,765.65,778.55,-50.29,-884.28,496.58,0.31,-1.82,-0.08,-403.30
48394,807.33,779.45,761.43,765.79,778.50,-33.20,-892.58,502.93,-0.63,-3.07,0.32,-403.37
48430,807.04,779.43,761.47,765.97,778.48,-42.48,-894.53,504.88,1.92,1.84,-0.98,-403.96
48469,806.45,779.45,761.43,766.12,778.36,-43.95,-884.77,502.44,-0.97,-0.89,-1.53,-405.44
48506,805.84,779.50,761.44,766.14,778.23,-38.57,-899.90,520.02,-0.51,-1.96,-1.79,-403.53
48542,805.25,779.56,761.52,766.27,778.15,-35.16,-883.79,529.79,0.09,1.48,-1.48,-402.04
48579,804.92,779.53,761.51,766.38,778.09,-39.06,-902.83,507.81,-1.49,0.02,-1.38,-402.36
48615,804.50,779.56,761.53,766.36,777.99,-29.79,-894.04,470.70,-2.53,2.39,-2.96,-400.38
48654,803.90,779.68,761.55,766.57,777.92,-40.53,-888.67,479.00,0.02,-1.24,0.79,-402.10
48690,803.19,779.90,761.65,766.76,777.87,-38.09,-888.67,517.09,3.25,-1.39,-3.86,-401.66
48727,802.33,780.12,761.77,766.99,777.80,-43.95,-884.28,504.88,0.39,-0.33,-1.76,-400.97
48763,801.31,780.28,761.80,767.22,777.65,-52.73,-892.09,504.88,-0.21,-2.19,-0.47,-401.23
48799,800.50,780.47,761.80,767.42,777.55,-33.20,-873.05,514.65,-2.03,1.06,-1.10,-402.86
48836,799.85,780.63,761.89,767.62,777.50,-34.18,-881.84,503.91,0.68,-3.30,-1.43,-402.62
48875,798.90,780.91,761.96,767.86,777.41,-41.50,-893.07,508.30,-0.63,0.85,0.18,-403.40
48911,797.93,781.28,761.99,768.07,777.31,-30.27,-876.95,505.37,-0.32,-0.36,-2.22,-405.44
48948,796.98,781.57,762.07,768.38,777.25,-37.11,-886.72,514.65,0.47,2.69,-0.60,-407.18
48984,796.08,781.94,762.24,768.77,777.26,-36.62,-887.21,499.02,0.55,0.37,-1.08,-408.56
49020,795.06,782.38,762.26,769.07,777.19,-41.99,-883.30,506.35,0.69,1.28,-1.92,-412.41
49056,794.06,782.87,762.43,769.47,777.21,-35.64,-887.70,511.23,-0.24,-1.49,-1.08,-414.46
49096,792.91,783.46,762.58,769.97,777.23,-31.25,-887.21,521.00,-0.17,3.69,-1.70,-419.09
49135,791.56,784.33,762.79,770.45,777.28,-37.60,-878.42,501.95,-0.28,-0.84,-2.21,-423.31
49171,790.48,784.90,762.92,770.93,777.31,-24.41,-897.46,504.88,-0.21,-0.79,-0.27,-427.76
49207,789.66,785.42,763.04,771.07,777.30,-23.44,-893.55,513.67,0.76,-0.72,-2.77,-428.30
49244,789.34,785.69,763.13,771.35,777.38,-21.00,-893.55,502.44,0.18,-2.09,-1.51,-431.12
49280,788.83,786.00,763.22,771.55,777.40,-37.11,-890.62,507.81,-0.99,0.49,-1.70,-432.68
49319,787.89,786.29,763.30,771.79,777.32,-26.37,-886.72,509.77,0.11,1.18,-0.01,-433.18
49355,787.16,786.43,763.33,771.95,777.22,-20.02,-890.62,503.91,-2.57,1.77,0.49,-433.54
49392,786.81,786.56,763.39,772.12,777.22,-35.16,-896.00,493.16,-0.33,1.57,-0.74,-434.37
49428,786.39,786.85,763.49,772.24,777.24,-15.63,-899.90,500.00,0.63,-1.22,-1.95,-434.52
49464,786.10,787.04,763.45,772.31,777.23,-32.23,-876.95,504.39,0.55,0.82,-1.50,-437.15
49504,785.73,787.09,763.53,772.28,777.16,-37.11,-883.79,497.07,-1.19,-0.69,-1.77,-433.71
49540,785.46,787.21,763.47,772.35,777.12,-36.13,-880.37,509.28,-0.65,0.85,-3.58,-436.54
49577,785.14,787.42,763.56,772.34,777.12,-34.18,-901.37,484.37,-2.85,-0.89,-1.47,-434.52
49613,784.88,787.63,763.66,772.40,777.15,-30.27,-883.30,511.23,-0.38,2.63,-0.94,-433.90
49649,784.52,787.72,763.66,772.35,777.06,-38.57,-888.18,500.00,-0.13,1.75,-1.09,-432.43
49686,784.49,787.77,763.65,772.33,777.06,-40.53,-884.28,502.44,0.58,1.72,-0.92,-432.71
49725,784.50,787.82,763.59,772.26,777.04,-25.39,-876.95,497.56,1.19,1.84,-1.02,-433.69
49761,784.47,787.84,763.65,772.14,777.02,-27.34,-887.70,503.91,1.03,0.02,0.20,-430.45
49797,784.45,787.88,763.63,772.13,777.02,-27.83,-894.04,497.56,-2.31,-0.33,0.29,-430.89
49833,784.55,787.74,763.61,772.04,776.98,-34.18,-899.41,485.84,-1.94,0.00,0.08,-429.35
49869,784.44,787.65,763.65,772.13,776.97,-41.99,-906.25,507.81,0.34,2.18,1.56,-428.75
49905,784.15,787.65,763.68,772.14,776.90,-20.51,-878.42,476.07,-1.89,2.51,-0.02,-426.99
49945,784.05,787.57,763.66,772.21,776.87,-41.99,-888.67,502.44,-1.18,0.63,1.92,-427.55
49981,783.80,787.50,763.68,772.25,776.81,-35.64,-896.48,506.35,-0.31,-1.40,1.49,-426.19
50017,783.48,787.53,763.72,772.28,776.75,-31.74,-885.74,504.88,-1.46,0.44,-0.72,-424.93
50053,783.25,787.41,763.59,772.37,776.66,-36.13,-875.49,498.54,0.44,-2.35,-0.19,-427.78
50089,783.19,787.33,763.64,772.33,776.62,-27.34,-892.58,502.93,-2.05,-1.95,0.98,-424.96
50125,783.29,787.32,763.45,772.20,776.56,-34.18,-904.79,499.51,1.85,-1.90,0.92,-428.03
50164,783.45,787.18,763.62,772.13,776.59,-27.83,-886.72,503.42,-1.09,1.44,-0.74,-422.33
50200,783.92,786.99,763.54,771.92,776.59,-35.64,-893.07,505.37,1.26,-1.89,0.31,-421.32
50236,784.25,786.78,763.48,771.72,776.56,-29.30,-894.04,508.30,1.34,1.06,0.86,-419.30
50273,784.61,786.65,763.47,771.61,776.59,-29.79,-886.23,501.46,1.32,0.29,0.83,-418.14
50309,784.87,786.49,763.36,771.52,776.56,-31.25,-886.23,513.67,0.56,-3.44,-0.59,-419.20
50348,785.19,786.47,763.46,771.44,776.64,-14.16,-893.55,485.35,-1.38,-0.18,-3.16,-416.45
50385,785.31,786.34,763.30,771.32,776.57,-22.95,-886.72,487.30,-0.49,0.86,-1.09,-418.00
50421,785.57,786.41,763.40,771.26,776.66,-34.67,-901.86,511.23,0.62,3.05,-0.41,-416.16
50458,785.91,786.39,763.30,771.07,776.67,-32.23,-880.37,509.77,-0.89,-0.41,-0.65,-416.75
50494,786.49,786.13,763.22,770.99,776.71,-31.25,-881.35,520.51,-1.26,-1.98,-0.63,-417.37
50530,786.81,786.04,763.26,770.73,776.71,-35.16,-888.67,497.07,0.49,0.89,2.19,-413.05
50570,787.46,785.92,763.13,770.54,776.76,-35.64,-876.95,506.84,0.85,-2.76,-1.66,-414.60
50606,788.13,785.77,763.09,770.41,776.85,-26.37,-897.95,502.93,0.98,0.49,1.07,-414.95
50642,788.81,785.60,763.02,770.18,776.90,-36.62,-897.46,492.68,0.44,-2.27,1.20,-414.26
50679,789.33,785.45,763.02,770.03,776.96,-38.57,-898.44,517.09,-1.19,1.77,-1.27,-412.62
50715,789.85,785.25,762.98,769.95,777.01,-35.16,-891.11,519.04,1.99,-1.60,0.08,-412.57
50751,790.36,785.25,762.97,769.84,777.10,-30.27,-880.86,508.79,-0.75,-2.11,-0.96,-412.99
50790,790.55,785.08,762.93,769.63,777.04,-40.53,-890.14,504.88,-3.04,1.06,-0.37,-410.26
50827,790.87,785.04,762.86,769.53,777.08,-32.23,-895.02,503.91,-0.35,-0.17,-1.20,-411.32
50863,791.03,784.94,762.84,769.39,777.05,-32.71,-882.81,512.70,-1.29,-0.11,0.77,-409.38
50899,791.08,784.95,762.82,769.32,777.04,-35.64,-908.20,516.11,-0.08,2.02,-0.04,-408.99
50936,791.27,784.85,762.73,769.42,777.07,-37.11,-899.90,499.02,-0.47,-1.54,0.81,-412.52
50972,791.47,784.86,762.78,769.25,777.09,-44.92,-890.14,514.65,0.22,-0.79,-0.67,-409.67
51011,791.57,784.78,762.70,769.25,777.08,-24.41,-877.44,499.51,-1.03,1.57,-2.46,-411.25
51047,791.79,784.77,762.82,769.27,777.16,-51.76,-886.72,514.16,-0.36,0.71,-0.48,-409.42
51083,792.41,784.77,762.77,769.16,777.28,-30.27,-885.74,501.95,0.51,0.42,-0.22,-411.04
51119,792.93,784.66,762.73,769.03,777.34,-34.18,-888.67,512.70,-0.77,2.27,0.32,-411.06
51155,793.10,784.39,762.68,768.97,777.28,-30.27,-885.74,498.05,2.28,0.76,3.87,-409.91
51192,793.25,784.17,762.65,768.84,777.23,-52.25,-877.44,503.42,0.49,-0.92,-0.40,-407.64
51231,793.65,783.88,762.64,768.72,777.22,-27.83,-891.11,504.39,-1.93,1.45,0.33,-405.01
51267,794.49,783.54,762.45,768.48,777.24,-31.25,-883.79,508.30,-0.02,-2.24,-1.01,-406.39
51303,795.23,783.28,762.49,768.35,777.34,-41.99,-893.07,509.77,1.63,1.82,-1.09,-403.89
51339,795.84,783.16,762.40,768.23,777.41,-34.67,-889.16,509.28,1.76,2.69,-0.89,-405.49
51375,796.27,782.97,762.27,768.16,777.42,-36.62,-889.16,502.93,-0.57,0.81,-0.20,-407.57
51415,796.46,782.81,762.32,768.08,777.42,-42.97,-889.65,506.35,-0.58,-0.70,0.11,-404.75
51451,796.57,782.62,762.33,767.97,777.37,-38.09,-875.98,510.74,-0.03,-2.23,1.18,-401.61
51487,796.73,782.54,762.27,768.01,777.39,-41.02,-888.18,505.37,1.52,0.13,1.48,-403.67
51523,797.03,782.40,762.31,767.80,777.38,-24.41,-883.79,503.91,-0.54,1.39,-0.45,-399.60
51559,797.35,782.21,762.17,767.85,777.39,-45.90,-894.53,516.11,0.34,2.65,1.56,-403.36
51596,797.57,782.05,762.21,767.74,777.39,-22.95,-888.18,501.95,-2.19,-2.37,-1.30,-400.13
51634,797.88,781.90,762.13,767.62,777.38,-29.30,-889.65,501.95,-0.81,-1.79,-0.59,-400.08
51671,798.12,781.77,762.16,767.55,777.40,-39.06,-889.65,514.65,-0.84,-1.12,-0.16,-398.22
51706,798.28,781.65,762.15,767.46,777.39,-34.67,-878.42,506.84,-2.37,-0.34,-0.38,-396.63
51742,798.55,781.53,762.15,767.42,777.41,-29.30,-906.74,509.77,-2.48,-0.99,-2.30,-396.20
51778,798.95,781.39,762.09,767.29,777.43,-23.93,-886.23,503.91,-0.18,1.40,0.69,-395.96
