currTime,s1,s2,s3,s4,s,AccX,AccY,AccZ,GyroX,GyroY,GyroZ
23,789.31,782.04,758.96,766.48,774.20,-22.46,-871.58,517.58,-0.14,0.18,-0.63
54,789.28,782.10,758.99,766.49,774.21,-21.97,-894.53,514.16,-1.48,-2.28,0.09
84,789.38,782.13,758.91,766.52,774.23,-20.02,-886.72,515.14,-0.01,-0.77,-1.50
115,789.47,782.18,758.97,766.60,774.31,-27.83,-882.32,510.25,-0.55,0.93,-0.55
146,789.56,782.18,759.01,766.59,774.33,-29.79,-879.88,509.77,-1.47,0.89,-0.51
176,789.58,782.14,758.98,766.58,774.32,-26.37,-885.74,505.86,-0.85,0.18,-1.08
209,789.59,782.18,758.98,766.55,774.32,-27.34,-891.11,496.09,0.32,-0.22,-0.24
241,789.57,782.13,758.97,766.59,774.32,-49.32,-875.98,508.30,0.71,1.95,0.94
272,789.62,782.13,759.05,766.54,774.33,-17.58,-880.86,516.60,0.02,-0.44,0.25
303,789.67,782.15,758.98,766.55,774.34,-22.46,-878.91,515.14,-0.84,-1.73,1.14
333,789.67,782.17,758.97,766.51,774.33,-24.90,-874.51,508.79,-0.03,-1.80,-2.43
365,789.64,782.14,758.96,766.49,774.31,-20.51,-892.09,512.21,-1.21,-0.53,-1.42
396,789.57,782.15,759.00,766.46,774.29,-26.86,-895.02,515.14,0.32,0.48,1.33
427,789.49,782.13,758.92,766.50,774.26,-39.55,-876.46,525.88,-0.38,0.02,1.24
457,789.46,782.10,758.95,766.57,774.27,-21.97,-881.84,514.65,-0.64,-0.87,0.76
489,789.38,782.09,758.92,766.55,774.23,-31.25,-884.77,504.39,-0.27,0.66,0.69
520,789.27,782.17,759.00,766.56,774.25,-33.69,-875.00,516.60,0.63,1.34,0.69
551,789.19,782.07,758.94,766.60,774.20,-35.64,-881.35,522.46,0.50,0.96,-0.27
581,788.99,782.10,758.94,766.55,774.14,-27.34,-884.77,510.74,-0.85,2.56,-0.62
613,788.81,782.06,759.00,766.61,774.12,-19.53,-884.77,511.72,-0.78,-2.15,-1.18
644,788.78,782.00,759.01,766.71,774.13,-30.27,-876.46,507.81,-0.13,-0.57,-0.24
675,788.71,781.99,758.99,766.63,774.08,-37.60,-890.62,515.14,1.14,-3.91,-0.59
705,788.60,781.98,759.02,766.77,774.09,-24.41,-888.18,521.48,1.52,1.08,-0.73
737,788.08,781.98,759.09,766.80,773.99,-19.53,-822.27,509.28,-4.85,4.28,2.14
768,787.86,781.90,759.04,766.93,773.93,-60.06,-879.39,474.61,-0.11,-1.79,-1.24
799,788.15,782.02,759.14,766.98,774.07,-36.62,-874.02,500.49,0.43,1.65,0.86
829,787.91,781.86,759.10,767.09,773.99,-27.34,-886.72,528.81,-3.53,1.30,1.88
861,787.76,781.84,759.15,767.21,773.99,-31.74,-887.70,515.14,-1.41,-0.47,0.17
892,787.44,781.84,759.16,767.16,773.90,-28.81,-883.79,503.91,-1.76,1.17,1.34
923,787.04,781.82,759.13,767.24,773.81,-33.20,-885.74,513.67,0.58,0.53,-0.24
953,786.98,781.82,759.12,767.30,773.81,-24.41,-892.58,501.46,0.50,3.57,0.32
985,786.83,781.73,759.14,767.31,773.75,-38.57,-891.11,511.23,1.06,-0.31,-1.90
1016,786.83,781.77,759.18,767.31,773.77,-18.55,-871.09,517.58,-1.63,-0.13,-1.55
1047,786.93,781.80,759.17,767.23,773.78,-30.27,-887.21,518.55,0.81,-0.18,0.15
1077,786.92,781.83,759.19,767.20,773.78,-28.81,-891.60,506.84,-1.19,2.80,1.66
1109,786.98,781.72,759.14,767.08,773.73,-32.23,-870.61,508.30,-0.87,0.43,-0.47
1140,787.27,781.77,759.14,766.99,773.79,-30.27,-879.88,512.70,1.53,-0.83,-1.92
1170,787.41,781.72,759.13,766.94,773.80,-34.67,-890.14,512.21,-0.66,0.31,0.59
1201,787.70,781.70,759.06,766.83,773.82,-38.57,-885.25,502.44,-0.21,0.85,-1.32
1233,788.06,781.72,759.11,766.75,773.91,-24.90,-896.48,512.70,0.90,2.07,-0.21
1264,788.16,781.73,759.07,766.58,773.88,-31.74,-875.00,513.67,-1.59,1.22,-0.26
1294,788.18,781.73,759.06,766.65,773.90,-28.81,-890.14,518.07,-1.80,1.69,-1.58
1325,787.94,781.72,759.03,766.47,773.79,-32.23,-887.70,514.16,-1.39,0.43,-0.17
1357,787.66,781.73,759.03,766.49,773.73,-31.25,-886.72,519.53,-0.20,-1.08,-3.37
1388,787.22,781.67,759.02,766.49,773.60,-40.53,-873.54,515.14,-0.35,0.57,1.93
1418,786.73,781.61,759.07,766.40,773.45,-23.44,-877.44,508.79,-1.85,0.20,-0.96
1448,786.14,781.61,759.05,766.34,773.28,-28.81,-883.79,508.30,-2.89,0.89,-1.90
1479,785.78,781.61,759.03,766.33,773.19,-26.86,-887.21,506.84,-1.56,0.89,-3.00
1509,785.57,781.54,759.05,766.29,773.11,-27.34,-893.07,493.16,-2.21,-0.05,-1.26
1540,785.35,781.54,758.93,766.25,773.02,-24.41,-881.35,506.35,1.19,-1.93,0.79
1570,785.14,781.49,758.98,766.25,772.97,-16.60,-889.16,506.84,-0.56,-1.08,-0.69
1601,784.96,781.57,758.95,766.18,772.92,-22.95,-896.97,511.72,0.94,0.71,-1.39
1632,784.91,781.46,758.96,766.19,772.88,-23.93,-892.58,500.49,-0.54,0.10,1.13
1662,784.82,781.49,758.97,766.19,772.87,-26.86,-889.65,520.51,0.38,1.06,1.44
1693,784.68,781.49,758.92,766.13,772.80,-21.00,-889.65,496.09,0.38,2.37,-2.73
1724,784.59,781.51,758.93,766.09,772.78,-14.65,-899.90,509.77,1.16,-1.66,-1.12
1754,784.55,781.45,758.95,766.10,772.76,-21.97,-883.79,505.86,0.75,-1.11,1.52
1785,784.61,781.45,758.92,766.00,772.75,-27.34,-888.67,518.55,1.35,1.46,-0.49
1816,784.62,781.46,758.92,766.04,772.76,-19.04,-881.35,499.02,-0.98,-0.32,1.03
1847,784.58,781.43,758.95,766.01,772.74,-29.30,-886.72,514.65,1.44,1.17,-0.18
1878,784.58,781.53,758.97,765.99,772.77,5.37,-941.41,515.62,1.42,-0.08,0.60
1909,784.50,781.41,758.98,766.01,772.73,-38.09,-885.74,511.72,1.73,0.35,-0.48
1940,784.41,781.43,758.91,766.01,772.69,-35.16,-890.62,510.74,-0.17,-0.04,0.60
1971,784.49,781.50,758.94,766.00,772.73,-20.02,-908.20,509.77,2.47,1.68,1.51
2002,784.46,781.47,758.99,765.93,772.72,-37.11,-880.86,509.77,1.02,-0.87,-0.48
2033,784.48,781.42,758.95,765.97,772.70,-28.81,-879.39,514.65,0.63,4.43,-1.73
2064,784.58,781.43,758.92,765.98,772.73,-30.27,-886.72,529.30,0.46,0.60,2.14
2095,784.54,781.47,758.98,765.95,772.73,-21.48,-888.67,517.58,-0.30,-1.05,-0.53
2126,784.61,781.56,758.94,765.96,772.77,-31.25,-863.28,481.93,4.72,1.34,-0.71
2157,784.67,781.62,758.88,765.99,772.79,-22.46,-892.09,507.32,4.07,2.73,1.61
2188,784.70,781.57,758.93,765.98,772.80,-47.36,-881.35,515.62,1.43,1.29,3.02
2219,784.82,781.64,758.95,766.00,772.85,-31.74,-890.14,521.97,-1.11,-1.46,-0.82
2250,784.94,781.62,758.91,765.96,772.86,-23.93,-893.55,505.86,0.35,0.72,-1.73
2281,785.10,781.60,758.91,765.93,772.89,-21.00,-868.65,530.76,0.52,-1.04,1.24
2312,785.12,781.61,758.90,765.99,772.91,-53.71,-874.51,522.46,-2.95,-5.50,3.26
2343,785.16,781.63,758.90,765.95,772.91,-22.46,-899.41,507.81,0.09,-1.43,-2.00
2374,785.34,781.66,758.90,766.00,772.97,-19.53,-887.70,506.84,1.33,-2.60,-2.27
2405,785.40,781.71,758.95,765.97,773.01,21.97,-862.79,519.53,-2.65,-1.42,0.50
2436,785.39,781.71,758.94,765.93,772.99,-12.70,-891.60,521.00,1.75,0.57,0.30
2467,785.52,781.75,758.89,765.84,773.00,-26.86,-882.81,507.81,1.95,2.49,-3.03
2498,785.59,781.71,758.90,765.94,773.03,-26.37,-880.86,514.16,2.02,1.93,-0.50
2529,785.69,781.81,758.96,765.89,773.09,-24.41,-872.56,513.18,1.15,1.70,1.19
2560,785.71,781.81,758.93,765.80,773.06,-30.76,-887.21,504.88,0.70,-0.43,-1.18
2591,785.68,781.82,758.88,765.88,773.07,-25.88,-866.21,517.09,2.05,1.16,1.62
2622,785.83,781.82,758.90,765.87,773.10,-38.57,-877.44,527.34,1.01,-1.29,1.24
2653,785.77,781.88,758.88,765.76,773.07,-32.71,-879.39,515.14,-1.35,1.98,1.79
2684,785.80,781.82,758.88,765.73,773.06,-33.69,-872.56,529.30,-1.09,1.53,-2.37
2715,785.80,781.85,758.87,765.74,773.07,40.53,-916.50,483.40,-0.07,0.66,0.34
2746,785.77,782.03,758.92,765.86,773.14,-566.89,-638.18,529.79,18.07,17.73,39.01
2777,785.66,781.94,758.95,765.80,773.09,-29.30,-890.62,502.44,-6.24,9.13,-1.31
2808,785.89,781.97,758.94,765.82,773.15,-45.41,-894.04,518.07,-2.62,3.21,-0.40
2839,785.87,781.94,758.89,765.74,773.11,-34.18,-876.46,520.51,-2.00,-2.73,0.31
2870,785.85,781.88,758.94,765.64,773.08,-56.64,-864.26,527.34,-1.11,-1.89,-0.76
2901,785.72,781.87,758.94,765.66,773.05,-30.27,-882.32,521.00,-0.60,-2.85,-0.37
2932,785.45,781.81,758.92,765.56,772.94,-37.60,-867.19,516.11,-0.66,0.71,-1.33
2963,785.21,781.73,758.86,765.66,772.86,-42.48,-870.12,529.79,-4.19,-0.56,-1.05
2994,784.93,781.59,758.91,765.65,772.77,-6.35,-858.89,499.51,-5.34,-18.01,-17.45
3024,784.38,781.46,758.88,765.51,772.56,-36.13,-873.05,502.93,-6.17,-0.79,-1.02
3054,784.16,781.35,758.96,765.53,772.50,-48.34,-860.35,527.83,0.53,9.74,-3.58
3085,783.94,781.25,758.96,765.49,772.41,-17.58,-904.30,473.14,-2.04,1.76,-1.37
3115,783.83,781.21,758.97,765.35,772.34,-21.00,-887.21,497.56,-2.07,-4.61,-0.37
3146,783.91,781.17,758.97,765.34,772.35,-29.30,-878.42,513.67,-1.24,-1.01,0.18
3176,783.70,781.02,758.94,765.27,772.23,-23.44,-880.86,511.23,-1.71,-0.87,-1.44
3207,783.71,781.06,758.89,765.24,772.23,-20.51,-883.79,507.32,-0.29,0.59,-0.17
3238,783.41,780.93,758.94,765.23,772.13,-37.11,-891.11,512.21,0.03,1.39,-2.06
3269,783.18,780.82,758.93,765.13,772.01,-38.57,-875.00,506.84,-0.31,-0.92,0.37
3300,783.06,780.82,758.92,765.07,771.97,-29.79,-881.84,514.16,-2.11,1.15,1.17
3330,783.06,780.69,758.85,764.98,771.90,-38.09,-878.42,506.35,0.68,-1.82,-0.23
3361,783.29,780.71,758.83,764.94,771.94,-28.81,-887.70,505.37,-1.32,-1.56,-0.33
3391,783.24,780.51,758.90,764.90,771.89,-21.00,-892.09,496.58,-0.76,1.32,0.05
3422,783.38,780.54,758.83,764.90,771.91,-29.30,-891.11,505.37,0.78,0.54,0.21
3453,783.87,780.54,758.79,764.97,772.04,-25.39,-878.42,503.42,-0.49,4.01,1.55
3484,784.63,780.52,758.86,764.88,772.22,-36.62,-894.04,499.51,1.50,2.03,0.15
3515,785.35,780.58,758.76,764.94,772.41,-21.97,-890.14,493.65,0.69,-0.53,0.00
3546,786.23,780.61,758.71,764.92,772.62,-33.20,-881.35,519.53,2.90,-1.15,-2.05
3577,787.45,780.64,758.80,764.93,772.96,-36.62,-877.93,510.74,1.04,-1.75,-0.30
3608,789.45,780.76,758.67,765.03,773.48,-22.95,-885.74,517.58,3.89,-2.15,3.46
3639,792.16,780.96,758.71,765.08,774.23,-32.71,-896.48,499.02,2.47,-2.50,1.69
3670,795.11,781.13,758.73,765.16,775.03,-21.48,-878.42,515.14,1.19,-1.62,0.15
3701,798.28,781.52,758.76,765.33,775.97,-29.79,-893.07,514.65,1.20,-0.40,-1.85
3732,801.88,782.05,758.83,765.67,777.11,-31.25,-872.07,517.09,0.92,1.85,-2.37
3763,806.03,782.98,759.03,766.15,778.55,-30.76,-879.39,518.55,2.21,-0.60,-2.85
3794,810.55,784.14,759.34,767.17,780.30,-46.39,-895.02,495.12,2.54,1.40,-2.96
3825,815.02,785.18,759.76,768.28,782.06,-28.81,-891.60,509.77,3.37,3.02,-4.12
3856,819.66,785.95,760.19,769.23,783.76,-31.25,-883.30,534.67,5.89,-2.82,-1.34
3887,824.24,786.56,760.53,769.82,785.29,-34.67,-877.44,537.11,3.50,-2.37,-1.13
3918,828.82,787.13,760.61,769.98,786.64,-21.00,-877.44,533.69,-0.82,-1.26,-2.84
3949,833.16,787.45,760.54,770.03,787.79,-29.79,-879.39,537.60,-0.11,-1.96,-3.40
3980,836.81,787.48,760.52,769.86,788.67,-18.07,-871.58,533.20,1.44,0.90,2.04
4011,839.31,787.46,760.57,769.57,789.23,-19.53,-883.30,519.04,-1.62,-1.59,0.17
4042,841.11,787.28,760.45,769.35,789.55,-37.11,-871.09,508.79,-0.63,0.44,0.61
4073,842.58,787.03,760.33,769.09,789.76,-26.37,-886.23,520.51,-1.81,-2.91,2.71
4106,844.47,786.66,760.27,768.97,790.09,-23.44,-882.32,517.58,-0.31,-5.45,1.12
4137,846.39,786.30,760.22,768.98,790.47,-24.90,-866.21,524.90,1.49,-1.75,5.05
4168,848.74,785.83,760.18,768.80,790.89,-29.30,-871.09,525.88,1.37,-2.88,2.53
4199,851.13,785.40,760.08,768.79,791.35,-24.90,-878.42,520.51,3.11,-2.72,4.66
4230,853.00,784.98,760.11,768.69,791.69,-30.76,-875.00,525.88,2.10,-1.02,2.95
4261,854.46,784.62,760.06,768.75,791.97,-22.46,-883.79,529.79,1.29,-3.95,4.93
4292,856.20,784.15,759.99,768.52,792.22,-37.60,-887.21,526.37,2.76,-1.73,3.16
4323,857.78,783.80,760.04,768.59,792.55,-27.83,-871.09,518.07,4.61,-5.63,3.06
4354,859.09,783.35,759.92,768.29,792.66,-35.16,-867.19,528.81,3.27,-3.62,3.74
4385,860.33,782.90,759.89,768.12,792.81,-41.99,-878.42,525.88,3.38,-1.56,4.58
4416,861.23,782.48,759.80,768.06,792.89,-26.37,-872.07,527.34,3.08,-0.32,0.21
4447,862.57,782.00,759.77,767.94,793.07,-35.64,-866.21,525.39,3.95,-1.98,2.59
4478,864.26,781.58,759.65,767.70,793.30,-25.39,-866.70,546.87,3.18,-3.18,-0.76
4509,865.46,781.14,759.62,767.64,793.46,-37.11,-868.16,546.39,1.87,-0.63,3.59
4540,867.20,780.82,759.56,767.66,793.81,-40.53,-876.95,553.71,0.78,-3.51,2.39
4571,868.16,780.38,759.57,767.80,793.98,-49.80,-862.79,539.55,4.50,-1.90,2.69
4601,867.28,779.90,759.55,767.46,793.55,-41.02,-852.54,543.46,0.99,-0.92,1.18
4632,864.42,779.21,759.21,766.38,792.31,-17.09,-874.51,550.29,-1.23,-0.36,1.17
4662,858.89,777.89,758.43,763.90,789.78,-32.71,-877.44,541.99,-7.60,-0.53,4.15
4692,847.71,775.24,757.53,760.36,785.21,-45.41,-897.46,521.00,-27.80,3.69,12.62
4723,832.66,771.43,756.86,757.93,779.72,16.11,-1051.27,413.09,-56.89,-7.41,51.83
4753,811.91,768.49,756.72,757.49,773.65,49.32,-1014.65,919.43,-27.73,-34.34,153.60
4784,786.21,767.43,756.58,757.45,766.92,-388.18,-1548.83,-160.64,69.54,-57.77,180.92
4815,770.05,767.35,756.39,757.31,762.78,-268.07,-1464.36,-167.48,123.88,-115.04,158.24
4846,759.16,768.12,756.24,757.38,760.23,169.43,-984.37,-229.49,152.73,-184.09,162.73
4876,756.36,768.02,756.28,757.30,759.49,-2.44,-991.70,-106.93,-162.20,-188.48,103.80
4907,756.05,767.98,756.30,757.28,759.40,-16.60,-1030.76,171.39,-57.81,-250.14,56.56
4938,755.82,768.00,756.26,757.27,759.34,-142.09,-1074.22,314.45,-67.77,-239.98,66.07
4968,755.65,767.91,756.30,757.24,759.27,-244.63,-886.23,410.16,-51.15,-229.42,54.05
4999,755.58,767.84,756.31,757.11,759.21,-356.45,-1004.88,457.03,-40.26,-209.79,46.92
5030,755.42,767.77,756.25,757.08,759.13,-427.73,-930.66,377.93,-24.96,-193.73,51.63
5061,755.42,767.66,756.22,757.10,759.10,-441.41,-978.03,318.36,-31.83,-182.00,72.31
5092,755.33,767.65,756.24,757.03,759.06,-401.86,-964.84,260.74,-35.67,-171.35,108.89
5123,755.25,767.58,756.21,756.96,759.00,-344.73,-963.87,208.50,-30.49,-171.62,135.31
5154,755.13,767.60,756.24,757.00,758.99,-243.16,-951.66,146.48,-40.72,-159.13,150.89
5185,755.02,767.51,756.18,757.05,758.94,-142.58,-1014.65,91.31,-42.59,-139.86,149.09
5216,754.90,767.49,756.24,757.02,758.91,-5.37,-1039.06,107.42,-57.27,-110.57,129.69
5247,754.85,767.43,756.17,757.07,758.88,106.45,-1247.56,204.59,-62.68,-68.24,121.44
5278,754.76,767.40,756.20,757.01,758.84,166.02,-1261.23,248.05,-56.41,-19.65,128.13
5309,754.68,767.42,756.29,757.07,758.86,203.12,-1245.61,295.90,-57.85,28.25,123.04
5340,754.50,767.40,756.31,757.14,758.84,321.29,-1065.43,416.99,-69.93,74.95,71.85
5371,754.37,767.38,756.25,757.08,758.77,498.05,-971.68,612.30,-77.44,134.05,-6.23
5402,754.27,767.33,756.19,757.09,758.72,608.89,-1037.11,757.81,-77.18,199.66,-53.90
5433,754.39,767.33,756.25,757.19,758.79,661.62,-1125.49,862.79,-57.40,250.13,-13.66
5464,754.08,767.35,756.12,757.15,758.68,562.01,-852.05,774.41,19.76,224.06,-4.52
5495,753.98,767.43,756.05,757.08,758.63,546.39,-597.17,555.66,20.06,131.24,-45.53
5526,757.48,768.94,756.05,757.05,759.88,967.77,1956.05,809.08,250.13,-209.16,-155.12
5557,775.17,769.18,756.18,757.40,764.48,-168.95,31.25,362.30,250.13,-202.53,-124.05
5588,831.45,771.87,756.26,757.48,779.27,904.30,-2000.00,881.35,250.13,-223.51,-189.55
5619,868.21,774.86,756.53,757.65,789.31,229.00,-953.61,87.40,106.02,-74.09,-18.78
5650,872.43,775.12,756.60,757.97,790.53,-30.27,-985.84,142.09,41.16,-7.92,-13.08
5681,883.45,774.25,756.90,759.54,793.53,130.86,-820.80,548.34,67.02,-21.55,-3.34
5712,890.90,773.10,757.20,761.53,795.68,-89.36,-878.91,533.20,36.75,-12.49,-4.78
5743,891.90,772.56,757.50,763.17,796.28,-53.71,-877.93,478.52,15.98,1.55,1.87
5774,887.45,772.20,757.95,765.39,795.75,-58.59,-921.87,430.18,13.19,3.82,-1.40
5805,878.82,772.23,758.65,768.32,794.51,-53.71,-892.09,496.09,19.60,-2.66,-2.28
5836,865.27,773.69,759.72,771.47,792.54,-65.43,-868.65,525.88,13.71,8.43,-11.37
5867,849.07,776.41,760.80,774.37,790.16,-47.36,-883.30,496.58,12.00,6.14,-13.96
5898,833.80,779.97,761.97,777.07,788.20,-42.48,-901.86,484.37,10.45,4.61,-16.63
5929,819.62,783.60,763.43,779.81,786.62,-47.85,-900.88,505.86,6.36,4.98,-16.82
5960,807.86,786.21,764.59,781.79,785.11,-11.23,-889.16,504.88,-0.31,1.87,-11.34
5991,800.33,787.78,765.43,783.29,784.21,-26.86,-889.16,505.86,2.49,3.65,-8.47
6022,794.72,788.48,766.00,783.90,783.28,-34.67,-889.65,489.75,-4.96,3.85,-5.34
6053,790.40,788.65,766.42,784.38,782.46,-21.48,-889.16,493.16,-2.34,1.64,-4.50
6084,786.83,788.43,766.79,785.07,781.78,-23.44,-892.58,495.12,1.62,0.37,-1.34
6115,784.86,788.13,767.15,786.04,781.54,-34.67,-896.97,500.98,3.73,-0.33,-2.63
6145,783.55,788.11,767.75,787.11,781.63,-32.23,-903.81,501.46,3.11,1.59,-4.61
6176,781.51,788.02,768.57,788.43,781.63,-34.18,-892.09,505.37,5.21,2.03,-3.29
6206,778.91,787.84,769.39,790.07,781.55,-22.46,-902.83,500.00,1.77,0.80,-5.17
6236,776.04,787.71,770.39,791.82,781.49,-6.35,-875.00,526.86,4.58,0.79,-5.13
6267,772.37,787.58,771.37,793.31,781.16,-10.74,-868.65,514.16,-2.13,2.16,-8.06
6297,768.22,787.48,772.15,794.22,780.52,-7.81,-885.25,500.00,-3.61,3.07,-7.49
6328,764.09,787.17,772.70,794.48,779.61,0.49,-904.79,504.39,-7.77,1.77,-7.53
6359,759.94,786.05,772.98,793.57,778.14,-8.79,-908.20,476.07,-6.37,-1.26,-11.22
6390,756.99,783.75,772.51,789.63,775.72,-55.66,-931.64,540.53,-19.47,-11.07,-7.81
6420,755.22,779.17,770.65,782.29,771.83,-75.20,-1277.34,662.60,-46.36,-27.04,-21.14
6451,754.63,774.94,768.15,773.41,767.78,-98.63,-1161.13,463.38,-32.84,-30.41,-52.52
6482,754.23,772.38,764.39,764.54,763.88,80.57,-1399.90,96.19,-15.62,-0.95,-99.28
6513,753.83,770.51,760.65,760.22,761.30,407.71,-1361.82,-263.18,16.01,50.59,-133.93
6544,753.71,769.67,757.85,758.26,759.87,289.06,-1313.96,-321.78,24.39,150.70,-154.29
6575,754.01,768.97,756.64,757.75,759.34,-548.34,-866.70,-253.91,11.60,216.63,-133.71
6606,753.85,768.77,756.59,757.53,759.19,-994.63,-605.96,-209.47,-55.85,241.30,-13.40
6637,753.74,768.43,756.48,757.45,759.02,-701.17,-625.49,218.26,-73.69,205.81,-5.15
6668,753.60,768.34,756.36,757.40,758.92,-497.56,-705.57,442.87,-63.53,229.85,4.65
6698,753.53,768.17,756.33,757.30,758.83,-467.29,-732.42,674.32,-64.61,235.89,24.47
6730,753.42,768.04,756.30,757.29,758.76,-317.38,-712.89,740.72,-64.26,200.15,22.23
6761,753.30,767.91,756.28,757.17,758.66,-146.48,-833.50,1026.37,-76.74,158.32,-8.09
6792,753.27,767.96,756.27,757.13,758.66,-138.18,-873.54,1225.10,-41.66,100.24,-16.22
6822,753.69,768.17,756.11,758.76,759.18,-564.94,-795.90,1999.94,250.13,-211.69,-71.04
6854,757.25,767.11,756.51,759.34,760.05,1256.35,-978.03,1924.32,250.13,-125.66,2.71
6885,759.93,768.27,756.79,760.81,761.45,-970.70,-2000.00,944.34,-25.03,-49.39,12.41
6915,770.39,771.55,757.26,762.94,765.53,380.37,-1187.01,-209.47,55.54,63.91,78.37
6946,776.25,772.53,757.75,765.86,768.10,-454.59,-1263.67,450.20,60.98,-33.70,-39.35
6978,786.15,773.58,758.35,768.84,771.73,-24.41,-729.00,631.84,34.07,-24.61,-0.87
7009,799.27,775.66,759.11,772.09,776.53,-85.94,-847.66,457.52,17.66,7.68,-7.11
7039,813.06,777.98,759.78,774.71,781.38,-14.65,-929.20,451.66,17.90,2.11,-5.89
7070,825.80,779.42,760.40,777.21,785.71,-58.11,-910.64,503.42,7.44,-6.86,-3.12
7102,836.14,779.63,760.81,778.59,788.79,-61.04,-876.95,548.83,12.89,-3.26,-0.43
7132,840.81,779.65,761.01,779.06,790.13,-47.85,-875.98,546.87,-1.01,1.81,0.29
7163,837.36,779.47,761.36,779.78,789.49,-42.97,-876.95,525.39,-2.38,0.22,-2.58
7194,831.74,779.16,761.82,780.43,788.29,-52.25,-889.65,513.18,-2.77,0.11,-0.11
7226,827.01,778.49,762.20,780.93,787.16,-50.29,-854.00,542.48,0.86,0.75,0.96
7256,824.36,778.34,762.76,781.74,786.80,-49.80,-862.30,541.50,2.96,2.86,-1.11
7287,823.38,778.43,763.18,782.33,786.83,-41.02,-849.12,534.67,4.18,-1.80,-0.47
7318,823.98,778.56,763.50,782.50,787.14,-47.36,-880.86,549.32,2.77,2.89,-2.61
7349,824.03,778.56,763.73,782.68,787.25,-42.97,-868.16,532.23,0.21,4.47,-1.50
7380,823.13,778.48,763.97,783.06,787.16,-40.04,-867.19,534.67,-0.43,1.90,-2.34
7411,821.08,778.54,764.32,783.81,786.94,-53.22,-854.49,530.76,1.24,1.99,-1.44
7442,818.95,778.68,764.74,784.48,786.71,-48.34,-873.05,530.76,-1.30,2.22,-1.83
7473,815.95,778.85,765.09,784.93,786.20,-42.48,-873.54,524.90,-0.76,1.03,-3.42
7504,812.43,778.99,765.31,785.01,785.43,-54.20,-864.75,525.88,-4.89,1.44,-1.83
7535,807.33,779.24,765.55,785.24,784.34,-48.34,-874.51,530.27,-4.70,3.31,-5.95
7566,799.04,778.84,765.92,785.83,782.41,-68.85,-870.12,528.81,-10.49,1.37,-1.95
7597,786.91,777.67,766.02,785.61,779.05,-74.22,-909.67,498.05,-20.17,2.67,-6.09
7628,772.34,775.56,766.02,783.70,774.40,-66.89,-954.10,479.98,-24.04,0.50,-7.79
7659,760.52,773.50,765.48,779.06,769.64,-62.01,-982.91,459.47,-5.00,0.07,-17.18
7690,756.08,771.71,764.54,773.30,766.41,-211.91,-991.70,761.72,-50.33,-17.32,-21.31
7720,755.21,770.37,763.88,769.16,764.66,-60.55,-1041.02,494.14,-30.61,-28.98,-53.07
7751,754.63,769.59,764.00,766.23,763.61,-105.47,-1197.75,487.30,-11.97,-39.51,-64.00
7781,754.15,769.14,763.71,762.87,762.47,56.15,-1111.33,435.55,2.11,-37.95,-82.50
7811,753.90,768.84,762.48,760.72,761.49,46.39,-1048.34,552.73,19.98,-34.63,-90.79
7842,753.85,768.69,760.62,758.95,760.53,92.29,-1146.00,600.10,8.03,-30.61,-86.69
7873,753.76,768.58,758.83,757.94,759.78,161.62,-913.57,558.59,26.10,-47.19,-81.98
7904,753.89,768.39,757.19,757.58,759.26,104.98,-1181.15,567.87,46.07,-42.63,-64.47
7934,754.06,768.19,756.73,757.37,759.08,-145.02,-433.59,425.29,80.47,-50.25,-15.51
7967,753.96,767.88,756.55,757.20,758.90,-271.97,-582.03,507.81,35.89,3.80,54.87
7998,753.85,767.74,756.47,757.27,758.83,-228.03,-507.81,360.84,38.07,2.41,37.18
8028,753.75,767.55,756.30,757.20,758.70,-282.23,-676.27,267.58,23.11,6.27,51.47
8059,753.71,767.44,756.23,757.14,758.63,-198.73,-686.52,327.15,-5.47,-3.18,67.91
8090,753.71,767.34,756.12,757.18,758.59,-106.93,-872.56,458.98,-3.77,-13.29,95.85
8121,753.57,767.34,756.22,757.15,758.57,18.07,-813.96,561.04,-8.91,2.24,114.75
8152,753.51,767.33,756.09,757.15,758.52,66.41,-878.42,607.91,1.45,18.91,112.61
8183,753.47,767.36,756.08,757.13,758.51,29.30,-915.53,587.40,0.25,22.34,109.73
8214,753.48,767.30,756.22,757.09,758.52,35.64,-958.50,582.03,-10.20,5.77,105.92
8245,753.49,767.34,756.16,757.10,758.52,142.58,-1034.67,602.54,-14.21,-0.73,109.47
8276,753.40,767.32,756.14,757.06,758.48,143.55,-1065.92,719.73,-10.37,0.11,93.60
8307,753.36,767.31,756.12,757.00,758.45,115.23,-984.86,674.80,2.53,-2.96,77.02
8338,753.34,767.30,756.14,756.98,758.44,57.13,-911.13,578.61,-2.15,-26.50,63.56
8369,753.36,767.22,756.13,757.08,758.45,-10.25,-878.91,565.92,-10.49,-60.57,43.91
8400,753.35,767.27,756.15,757.06,758.46,48.83,-939.94,592.29,-11.61,-73.82,47.54
8431,753.42,767.26,756.21,757.02,758.48,98.63,-965.33,658.20,-2.41,-50.05,44.37
8462,753.25,767.25,756.18,756.97,758.41,65.43,-897.46,592.29,17.83,-23.08,35.86
8493,753.33,767.18,756.17,756.99,758.42,-17.58,-867.68,519.53,13.83,-11.14,20.76
8524,753.32,767.18,756.23,756.98,758.43,-54.20,-856.93,466.31,9.83,-20.76,13.67
8555,753.30,767.12,756.16,757.01,758.40,-78.61,-787.11,405.76,6.76,-35.71,1.41
8586,753.23,767.16,756.22,756.98,758.39,-90.33,-882.81,467.29,-10.78,-39.47,-6.83
8617,753.28,767.08,756.13,756.91,758.35,-56.15,-846.19,453.12,-1.98,-38.59,-12.52
8648,753.26,767.12,756.20,756.95,758.39,-11.72,-952.64,491.21,-8.19,-17.37,-7.47
8679,753.21,767.03,756.21,756.97,758.35,-8.30,-909.67,524.90,5.73,4.58,-9.39
8710,753.22,767.03,756.19,756.93,758.34,-120.61,-910.16,486.33,4.24,12.60,-16.27
8741,753.20,767.02,756.24,756.94,758.35,-184.57,-819.34,472.17,1.84,7.92,-13.89
8772,753.20,766.98,756.16,756.95,758.32,-211.43,-805.18,497.56,-5.56,-6.92,-12.12
8803,753.27,766.91,756.20,756.95,758.33,-185.55,-805.66,538.09,-13.07,-16.81,-11.13
8834,753.25,766.93,756.17,756.97,758.33,-166.02,-843.26,588.87,-11.03,-11.15,-2.30
8865,753.15,766.92,756.17,756.93,758.29,-158.69,-809.57,553.71,-3.89,-0.52,-3.44
8896,753.21,766.92,756.16,756.92,758.31,-161.13,-837.40,557.13,-5.53,6.97,0.15
8927,753.23,766.83,756.14,756.91,758.28,-185.06,-825.68,569.34,-9.24,1.40,1.30
8958,753.16,766.85,756.16,756.92,758.27,-154.30,-862.30,589.84,-6.01,2.62,-0.10
8989,753.20,766.88,756.10,756.91,758.27,-116.21,-876.46,598.14,-3.64,4.58,-1.65
9020,753.25,766.84,756.16,756.98,758.31,-121.09,-854.49,590.33,-4.81,14.83,-4.02
9051,753.19,766.86,756.14,756.93,758.28,-156.74,-860.84,627.93,-6.08,21.81,0.12
9082,753.19,766.85,756.15,756.95,758.28,-130.37,-862.30,604.98,-0.01,14.92,1.64
9113,753.16,766.84,756.11,756.99,758.27,-100.10,-861.82,580.57,2.66,8.63,1.20
9144,753.17,766.84,756.08,756.89,758.25,-97.17,-822.27,557.13,-0.26,3.08,0.77
9175,753.13,766.86,756.10,756.95,758.26,-102.05,-833.98,581.05,-1.52,3.13,-1.42
9206,753.15,766.80,756.11,756.98,758.26,-137.21,-824.71,583.50,1.59,-0.67,-3.73
9236,753.20,766.89,756.19,757.02,758.33,-155.76,-840.33,572.27,1.53,-6.98,-4.80
9267,753.16,766.83,756.13,757.01,758.28,-170.90,-822.27,545.90,1.21,-9.17,-3.27
9297,753.21,766.77,756.17,756.97,758.28,-178.71,-845.21,532.71,-0.78,-4.89,-4.48
9328,753.11,766.84,756.17,756.88,758.25,-143.55,-855.47,544.92,2.02,4.63,0.27
9358,753.17,766.92,756.14,756.96,758.30,-158.20,-877.93,558.59,4.34,14.11,-5.34
9388,753.10,766.86,756.13,756.92,758.25,-189.45,-877.93,534.18,1.47,10.61,-5.98
9419,753.12,766.85,756.11,756.94,758.26,-190.92,-855.47,525.39,0.92,-0.96,1.38
9450,753.12,766.89,756.17,756.97,758.28,-168.46,-840.33,535.16,-4.50,-4.20,-1.26
9481,753.20,766.85,756.16,756.96,758.29,-168.46,-831.05,567.38,-6.35,-3.12,0.89
9511,753.16,766.85,756.13,756.92,758.26,-160.64,-847.17,602.54,-3.60,4.89,-0.31
9542,753.10,766.83,756.11,756.87,758.23,-192.38,-820.31,592.29,0.24,5.44,-1.24
9573,753.07,766.93,756.14,756.93,758.27,-183.11,-831.05,568.85,0.21,0.67,-0.36
9604,753.11,766.85,756.17,756.88,758.25,-153.81,-834.47,573.73,-2.50,-1.64,1.72
9634,753.18,766.86,756.11,756.90,758.26,-138.67,-844.24,584.96,2.06,-3.02,0.82
9666,753.14,766.73,756.13,756.92,758.23,-126.95,-820.31,579.59,3.87,0.49,-4.17
9697,753.16,766.76,756.19,756.92,758.26,-129.39,-841.31,583.01,4.40,0.37,-3.98
9728,753.05,766.82,756.13,756.95,758.24,-134.77,-824.71,551.27,4.16,4.18,-4.52
9758,753.09,766.76,756.16,756.95,758.24,-115.23,-820.31,550.78,3.75,-4.18,-10.12
9790,753.07,766.71,756.07,756.97,758.20,-104.49,-859.37,564.45,0.19,-4.50,-3.73
9821,753.13,766.76,756.14,757.02,758.26,-117.19,-841.31,560.06,0.35,-0.04,-6.95
9851,753.10,766.61,756.07,756.96,758.18,-131.84,-847.66,553.22,-0.60,-2.95,-8.01
9882,753.05,766.71,756.10,756.91,758.19,-131.35,-847.17,530.76,-1.37,-3.38,-9.25
9914,753.13,766.71,756.11,756.98,758.23,-112.30,-835.94,533.69,-2.81,-3.35,-5.99
9945,753.10,766.68,756.11,756.97,758.22,-138.67,-853.52,546.39,1.76,-0.58,-4.62
9975,753.08,766.65,756.17,756.96,758.21,-140.14,-844.73,523.93,0.30,-3.00,-3.91
10006,753.10,766.65,756.11,756.99,758.21,-183.59,-829.10,536.13,-2.00,-1.72,-4.68
10038,753.12,766.74,756.16,756.99,758.25,-179.69,-831.54,537.11,-4.66,-1.13,-1.56
10068,753.12,766.66,756.09,756.94,758.20,-156.74,-838.38,556.15,-7.49,-5.30,-2.91
10099,753.20,766.64,756.06,757.00,758.22,-96.19,-856.45,585.45,-5.02,-1.04,-2.24
10130,753.10,766.66,756.08,756.88,758.18,-128.42,-848.63,586.91,0.29,2.15,-1.36
10162,753.07,766.69,756.07,756.86,758.17,-123.54,-858.40,563.48,-1.85,5.10,-1.53
10192,753.06,766.67,756.01,756.97,758.18,-131.35,-867.19,557.62,-3.21,0.97,-2.47
10223,753.09,766.65,756.14,756.98,758.21,-111.33,-872.07,559.57,-1.63,1.92,-1.23
10254,753.11,766.61,756.14,756.93,758.20,-121.58,-840.33,545.41,-2.26,-3.31,0.69
10285,753.06,766.60,756.12,757.00,758.20,-107.91,-826.17,524.41,-3.17,-9.15,-0.92
10316,753.09,766.67,756.05,756.96,758.19,-67.87,-841.80,554.69,-6.50,-7.51,0.30
10347,753.14,766.75,756.12,756.99,758.25,-75.68,-850.59,565.43,-3.02,-0.15,-3.68
10378,753.10,766.68,756.12,756.96,758.22,-77.15,-862.30,525.39,-2.94,-0.36,-3.20
10409,753.09,766.66,756.12,756.89,758.19,-76.17,-846.19,517.58,-4.00,-0.65,-8.22
10440,753.04,766.62,756.21,756.91,758.19,-73.24,-824.71,528.32,-7.95,-5.20,-15.58
10471,753.10,766.65,756.19,756.94,758.22,-72.75,-867.68,573.24,-16.18,-7.28,-19.25
10502,753.06,766.55,756.15,757.05,758.20,-72.27,-895.51,551.27,-7.35,-3.00,-7.13
10533,753.11,766.59,756.13,756.98,758.20,-58.11,-836.91,530.76,-3.40,-4.00,-10.23
10564,753.08,766.61,756.14,757.00,758.21,-66.89,-847.17,512.21,-8.89,-4.42,-12.45
10595,753.00,766.50,756.11,756.93,758.14,-87.40,-857.91,548.83,-8.11,-7.63,-15.63
10626,753.03,766.58,756.08,756.98,758.17,-57.13,-857.42,536.62,-11.32,-2.64,-13.70
10657,753.10,766.57,756.10,756.98,758.19,-54.69,-883.30,546.87,-5.63,2.61,-16.65
10688,753.00,766.54,756.11,757.01,758.16,-55.66,-857.42,507.81,-3.42,2.97,-13.00
10719,753.05,766.55,756.19,757.02,758.20,-37.60,-819.34,460.45,-4.56,-0.86,-20.18
10750,752.99,766.50,756.08,757.14,758.18,-32.23,-823.73,419.43,-12.47,-13.91,-40.13
10781,753.05,766.43,756.14,757.50,758.28,387.70,-814.45,792.97,-115.20,18.88,-63.39
10811,752.96,766.62,756.44,757.92,758.48,91.31,-1127.93,675.29,-71.78,19.29,10.60
10842,752.97,766.65,756.44,758.50,758.64,-62.99,-864.26,323.24,-25.03,4.98,10.50
10872,753.00,766.83,756.63,758.93,758.85,13.67,-825.20,472.66,-32.80,15.60,7.48
10903,753.15,766.83,756.77,759.47,759.05,-32.23,-911.62,360.84,14.99,-4.50,20.45
10933,753.11,767.04,757.07,760.07,759.32,-41.50,-1004.39,252.93,33.02,-0.21,20.31
10964,753.13,767.57,757.27,760.87,759.71,-71.78,-997.56,300.78,34.79,9.53,16.33
10995,753.92,768.25,757.74,761.84,760.44,-159.67,-829.59,600.59,33.80,-13.22,0.87
11026,755.37,769.40,758.10,762.51,761.34,-114.26,-870.61,553.22,53.29,10.66,-7.92
11056,757.14,771.00,758.35,762.89,762.34,-18.07,-918.46,462.89,26.05,1.84,-6.60
11087,759.06,772.84,758.51,763.38,763.45,-28.32,-910.64,495.61,20.27,-5.13,-7.45
11117,761.36,774.56,758.77,764.00,764.67,-63.96,-905.76,487.79,20.01,-1.38,-3.90
11148,764.70,776.07,758.95,764.50,766.05,-50.29,-913.57,500.98,13.40,-1.99,-4.76
11179,769.47,777.33,759.07,764.96,767.71,-41.50,-881.35,511.72,15.72,-2.57,-2.39
11210,775.03,778.39,759.14,765.26,769.45,-76.66,-888.18,508.30,9.47,-2.12,-1.16
11241,779.32,778.66,759.20,765.47,770.66,-60.06,-877.93,504.88,6.86,-2.02,0.92
11272,781.14,778.64,759.18,765.50,771.12,-35.16,-874.02,531.74,3.44,-0.96,0.58
11303,782.03,778.45,759.25,765.75,771.37,-29.79,-877.93,525.39,1.65,-1.08,-1.60
11334,782.87,778.09,759.18,765.81,771.49,-41.02,-858.89,525.88,2.17,-1.11,0.73
11365,783.64,777.91,759.21,765.74,771.62,-30.76,-873.54,532.71,2.73,0.24,0.83
11396,785.35,777.62,759.08,765.80,771.96,-32.71,-878.42,533.69,2.98,-1.63,0.02
11427,787.39,777.48,759.07,765.76,772.43,-24.41,-871.09,546.87,3.01,-0.41,-0.26
11458,789.35,777.38,758.96,765.58,772.82,-37.60,-864.26,540.53,-1.08,-0.08,-0.40
11489,790.79,777.28,758.93,765.49,773.12,-35.64,-864.26,536.13,-3.70,0.22,-0.34
11520,793.11,777.18,758.78,765.29,773.59,-35.16,-875.98,523.44,-0.92,-1.67,1.44
11551,796.77,777.08,758.83,765.30,774.49,-42.48,-879.39,528.32,3.50,2.00,1.66
11582,799.68,776.92,758.61,765.07,775.07,-45.90,-871.09,529.79,-0.47,1.34,2.41
11613,801.87,776.84,758.46,764.69,775.46,-41.50,-880.86,538.09,-4.32,-0.85,0.36
11644,804.57,776.57,758.34,764.36,775.96,-39.55,-873.05,540.04,-0.94,-2.11,0.55
11675,809.74,776.45,758.20,763.83,777.05,-53.22,-876.95,532.23,-0.40,-2.99,2.23
11706,814.31,776.32,758.12,763.32,778.02,-41.02,-880.37,535.16,-5.97,-0.31,0.50
11737,817.94,776.30,758.02,762.99,778.81,-45.41,-883.79,510.25,-3.31,-0.63,1.30
11768,823.06,776.14,757.98,763.01,780.05,-48.83,-896.97,507.81,0.39,2.59,2.24
11799,825.84,776.24,757.96,762.88,780.73,-40.53,-848.14,546.39,-0.16,0.34,-0.70
11832,828.40,776.37,757.94,762.66,781.34,-29.79,-867.19,526.86,-5.05,-0.69,1.47
11863,830.93,776.35,757.87,762.52,781.92,-35.16,-869.14,526.86,-1.60,0.64,-1.50
11894,832.18,776.27,757.81,762.15,782.10,-46.39,-864.75,537.11,-4.24,3.26,-0.90
11925,833.05,776.41,757.73,761.79,782.25,-68.85,-867.19,518.55,-5.64,1.53,-1.15
11956,833.76,776.36,757.72,761.58,782.36,-56.64,-885.74,514.16,-5.11,2.73,0.48
11987,833.12,776.27,757.70,761.17,782.06,-37.11,-874.02,523.44,-4.12,-0.51,-1.06
12018,832.75,776.26,757.58,761.01,781.90,-30.27,-901.86,516.11,-3.46,0.40,-0.34
12049,832.47,776.09,757.59,760.99,781.78,-48.83,-878.91,492.68,-1.22,1.44,-1.56
12080,832.94,776.12,757.57,760.84,781.87,-56.64,-862.79,520.02,-1.98,-1.85,-2.47
12111,832.86,776.12,757.52,760.56,781.77,-44.43,-884.28,518.55,-6.53,4.91,-0.79
12142,833.47,776.30,757.45,759.94,781.79,-31.25,-878.91,517.58,-8.36,4.28,0.15
12173,835.92,776.34,757.38,759.70,782.33,-49.32,-908.69,483.89,-9.79,1.16,-0.40
12204,836.68,776.24,757.35,759.50,782.44,-45.90,-872.56,529.30,-5.43,-0.73,-3.05
12235,836.64,776.28,757.30,759.41,782.41,-49.32,-888.18,508.30,-4.60,0.56,0.87
12266,836.71,776.27,757.35,759.28,782.40,-50.29,-875.98,524.41,-3.47,2.96,-1.05
12297,836.27,776.19,757.37,759.46,782.32,-34.18,-898.44,470.70,0.89,-0.11,-0.15
12328,835.51,775.88,757.39,759.36,782.04,-26.37,-869.63,498.54,0.04,1.56,0.91
12358,834.82,775.55,757.33,759.43,781.78,-60.55,-902.34,484.86,0.74,-4.27,3.14
12389,833.53,775.44,757.41,759.58,781.49,-52.25,-870.61,509.28,0.59,2.11,0.69
12419,833.00,775.29,757.36,759.41,781.27,-55.18,-880.37,518.07,-4.08,1.16,1.34
12449,831.42,775.48,757.46,759.58,780.98,-39.55,-894.04,475.10,-3.03,-0.94,-1.69
12480,831.07,775.51,757.48,759.73,780.95,-55.66,-884.28,486.82,-0.54,0.87,-2.30
12510,829.54,775.45,757.48,759.77,780.56,-50.29,-897.46,486.33,-4.51,0.25,-0.88
12544,828.99,775.51,757.54,759.74,780.45,-50.29,-897.95,492.68,3.21,-1.98,-1.29
12576,831.05,775.53,757.41,759.65,780.91,-47.85,-918.95,471.68,-1.27,0.78,-0.60
12606,829.50,775.08,757.55,760.08,780.55,-58.59,-883.79,515.14,0.27,-4.94,2.47
12637,828.98,775.04,757.60,760.60,780.55,-49.80,-896.48,503.42,3.78,-2.02,-1.63
12668,828.37,775.00,757.72,761.04,780.53,-40.53,-900.88,505.86,2.13,-1.44,0.09
12699,825.47,774.93,757.79,761.25,779.86,-52.73,-880.37,506.84,0.04,-3.35,0.77
12729,825.15,775.05,757.94,761.75,779.97,-64.45,-896.00,479.98,1.05,-1.83,-3.36
12760,824.35,774.94,757.89,761.99,779.79,-32.71,-904.30,489.75,-1.08,-0.42,-0.53
12791,823.79,774.92,757.95,762.09,779.69,-40.53,-891.60,508.30,3.57,0.76,-1.15
12823,824.04,774.86,758.04,762.90,779.96,-67.87,-886.23,491.21,2.08,-1.35,-1.85
12853,822.32,775.13,758.35,763.84,779.91,-40.04,-878.91,515.14,3.15,-4.69,-6.01
12884,821.92,775.61,758.46,764.10,780.02,-41.99,-880.37,514.16,0.02,-2.10,-3.50
12915,823.07,775.93,758.49,763.78,780.32,-48.34,-903.32,490.72,-1.47,-0.87,-0.54
12947,824.99,775.94,758.37,763.02,780.58,-37.60,-901.37,513.67,-0.34,2.92,-4.08
12977,827.77,775.99,758.20,762.74,781.17,-60.55,-884.28,487.79,-0.86,2.95,-1.04
13008,829.22,776.06,758.20,762.93,781.60,-64.94,-897.46,506.35,2.45,-0.34,-1.31
13039,829.99,775.93,758.11,762.66,781.67,-52.25,-888.67,497.07,-2.69,-0.20,-1.59
13070,829.83,775.77,758.10,762.33,781.51,-52.73,-888.67,494.14,-3.24,2.66,-0.08
13101,830.08,775.76,758.05,761.90,781.45,-30.76,-882.32,495.61,-1.15,3.10,-1.05
13132,830.44,775.63,757.87,761.41,781.34,-52.73,-890.62,506.84,-3.24,3.26,-2.76
13163,830.16,775.51,757.77,760.84,781.07,-49.80,-884.77,513.18,-3.47,1.67,-1.08
13194,830.37,775.42,757.69,760.31,780.95,-48.83,-890.62,500.49,-3.38,0.75,-1.76
13225,831.13,775.41,757.71,759.95,781.05,-41.99,-905.27,492.68,-3.73,1.16,-0.69
13256,831.26,775.26,757.62,759.81,780.99,-62.01,-901.37,479.00,-2.63,-0.39,0.27
13287,830.90,775.09,757.47,759.33,780.70,-33.69,-875.98,503.42,-3.08,0.80,-1.50
13318,831.09,774.91,757.43,759.10,780.63,-57.13,-886.72,479.00,-2.71,-2.29,1.03
13349,831.54,774.89,757.43,759.50,780.84,-63.96,-906.74,506.84,1.63,0.13,-1.33
13380,829.43,774.97,757.55,760.63,780.64,-59.57,-900.88,503.91,13.63,-1.90,-2.68
13411,826.29,774.99,757.67,761.28,780.06,-30.76,-868.16,513.18,6.24,-0.80,-3.28
13442,826.17,775.14,757.63,760.85,779.95,-34.67,-870.12,528.32,-1.83,-0.02,-2.09
13473,828.25,775.35,757.61,760.60,780.45,-52.25,-886.72,498.05,-0.76,4.78,1.65
13504,827.55,775.62,757.57,760.83,780.39,-68.85,-885.25,493.16,-6.47,-0.82,-2.01
13535,826.11,775.89,757.69,761.16,780.21,-50.29,-890.14,500.49,0.04,3.77,-4.61
13566,823.39,775.78,757.60,760.88,779.41,-35.16,-898.44,508.79,-5.30,0.06,0.17
13597,822.50,775.61,757.52,760.75,779.09,-31.25,-899.90,489.26,-3.45,1.54,0.23
13628,822.53,775.50,757.51,760.51,779.01,-53.71,-892.09,495.12,-2.39,-3.33,1.69
13659,820.68,775.35,757.38,760.59,778.50,-66.41,-870.12,509.77,-4.02,0.53,-0.42
13690,818.37,775.20,757.41,760.36,777.84,-60.06,-886.72,499.02,-4.09,1.92,-2.18
13721,816.55,775.16,757.34,760.13,777.30,-54.20,-898.44,476.56,-7.36,4.71,1.35
13752,816.00,775.14,757.33,759.88,777.09,-49.80,-894.04,485.84,-2.75,0.98,-0.03
13783,818.03,775.29,757.19,759.61,777.53,-57.13,-899.90,479.00,-4.39,-0.11,-0.45
13814,819.37,775.35,757.18,759.53,777.86,-68.85,-900.88,480.47,-2.34,2.76,0.06
13845,821.25,775.40,757.22,759.58,778.36,-46.88,-907.23,486.82,8.24,0.37,0.34
13876,824.20,775.38,757.24,759.48,779.07,-53.22,-896.48,473.14,5.39,0.40,2.02
13907,827.70,775.21,757.20,759.10,779.80,-41.99,-888.18,506.84,1.70,0.76,-2.41
13937,830.20,775.30,757.18,758.76,780.36,-69.34,-887.21,499.51,-2.86,1.68,-0.76
13968,832.94,775.29,757.06,758.42,780.93,-60.55,-896.97,507.32,-4.79,-0.14,1.18
13998,837.07,775.17,757.00,758.15,781.85,-32.23,-891.60,495.12,-3.11,-1.60,0.92
14028,840.41,774.84,756.88,757.79,782.48,-59.57,-878.42,513.18,-4.59,2.18,0.98
14059,842.70,774.56,756.85,757.83,782.98,-50.78,-895.02,501.95,-6.00,0.75,0.97
14090,843.70,774.32,756.81,757.64,783.12,-50.29,-895.51,503.91,-6.22,-3.69,3.49
14121,844.14,774.05,756.87,757.56,783.16,-64.45,-892.58,479.49,-5.90,0.69,2.47
14151,842.96,773.99,756.86,757.62,782.86,-82.03,-898.44,453.12,-1.06,-2.80,0.89
14182,842.50,774.15,756.94,757.72,782.83,-56.64,-917.48,474.61,7.73,-3.43,-3.77
14213,840.67,774.22,757.12,758.19,782.55,-67.87,-907.23,466.31,11.76,-6.24,-4.35
14243,837.33,774.30,757.25,758.62,781.88,-49.80,-881.35,515.62,7.44,1.82,-3.53
14274,834.49,774.19,757.32,758.79,781.19,-55.66,-890.14,499.51,1.40,2.39,-2.23
14305,832.32,774.14,757.36,758.77,780.65,-55.18,-893.07,500.98,0.47,-1.28,2.01
14336,830.25,774.03,757.40,758.92,780.15,-48.34,-877.44,485.84,0.88,1.58,-0.99
14367,828.57,774.15,757.40,758.99,779.78,-42.48,-889.65,505.86,-1.66,1.62,0.36
14398,826.30,774.18,757.45,759.08,779.26,-45.41,-884.28,499.02,-3.53,0.78,-2.54
14429,825.61,774.44,757.56,759.31,779.23,-50.29,-905.76,472.17,1.30,-3.47,-3.34
14460,824.30,774.64,757.69,759.71,779.09,-69.82,-907.23,480.47,1.70,-1.33,-3.24
14491,821.14,774.86,757.81,759.97,778.44,-50.78,-869.14,516.60,-2.15,-1.54,-1.18
14522,819.86,775.19,757.88,760.17,778.28,-49.80,-896.00,486.82,3.03,-1.76,-1.95
14553,820.46,775.28,757.77,760.01,778.38,-47.36,-889.65,498.54,-2.13,1.86,-1.72
14584,820.62,775.22,757.76,759.72,778.33,-50.29,-899.90,506.84,-5.11,-0.79,0.95
14615,822.01,775.20,757.63,759.33,778.54,-44.92,-888.67,475.10,-4.19,-0.15,-1.24
14646,825.58,775.06,757.51,758.81,779.24,-52.73,-901.86,491.21,-5.47,0.28,1.38
14677,828.03,774.76,757.29,758.12,779.55,-64.94,-890.62,475.59,-6.05,2.70,0.86
14707,833.27,774.33,757.02,757.70,780.58,-68.36,-915.04,487.79,-11.65,-1.37,3.65
14738,835.64,773.95,756.98,757.47,781.01,-81.05,-888.67,495.61,-2.31,-2.69,3.40
14769,836.40,773.46,756.91,757.37,781.04,-91.31,-927.25,454.59,-9.33,-0.99,2.04
14800,836.18,773.24,756.83,757.46,780.93,-106.45,-897.46,452.64,1.39,2.26,-0.49
14831,837.26,773.30,756.97,757.53,781.26,-56.15,-872.56,496.58,1.23,4.02,-2.98
14862,838.11,773.47,757.01,757.59,781.55,-78.61,-897.95,472.66,4.18,0.50,-2.96
14893,837.53,773.57,757.06,757.66,781.45,-58.59,-898.93,467.77,-2.45,2.00,0.46
14924,838.67,773.63,757.10,757.67,781.77,-58.59,-895.02,480.47,-2.12,-0.13,0.15
14955,839.93,773.75,757.14,757.67,782.12,-69.82,-906.74,471.19,1.11,-0.63,1.07
14986,841.16,773.68,757.14,757.72,782.42,-73.73,-901.86,438.96,0.98,0.81,-1.02
15017,842.09,773.70,757.20,757.79,782.69,-61.52,-902.34,492.68,1.53,1.05,0.60
15048,841.73,773.69,757.25,758.05,782.68,-71.78,-897.46,509.28,3.76,-2.71,-3.69
15079,840.31,773.88,757.32,758.24,782.44,-64.94,-917.48,480.47,0.18,-1.64,-2.94
15110,838.88,773.86,757.36,758.26,782.09,-65.92,-908.20,468.75,-1.46,-2.33,-2.50
15141,836.65,773.73,757.44,758.54,781.59,-68.36,-906.25,477.05,-2.27,-1.22,1.73
15172,834.80,773.85,757.48,759.27,781.35,-81.54,-906.25,469.24,7.01,-0.32,-3.78
15203,832.64,774.10,757.71,759.75,781.05,-47.36,-884.28,493.65,4.56,-0.35,-1.34
15234,832.12,774.20,757.69,759.86,780.97,-43.46,-902.83,476.56,-0.15,-3.65,-0.48
15265,830.97,774.11,757.65,760.05,780.70,-69.34,-888.18,473.63,2.88,-3.16,2.17
15296,830.91,774.23,757.66,760.17,780.74,-49.32,-904.79,476.56,0.59,0.05,-2.23
15327,831.44,774.20,757.57,759.88,780.77,-46.88,-890.62,481.93,-0.74,2.26,-0.26
15358,832.29,774.11,757.45,759.58,780.86,-69.82,-901.86,483.40,-0.75,1.58,-1.77
15389,834.26,774.07,757.44,759.45,781.31,-68.85,-899.90,477.05,-1.30,1.75,-1.11
15420,836.59,774.07,757.42,759.53,781.90,-55.66,-905.27,479.49,4.72,1.70,-0.74
15451,837.87,774.18,757.49,759.70,782.31,-59.57,-899.90,494.63,2.18,-0.60,-1.10
15482,838.14,774.19,757.52,759.63,782.37,-51.27,-896.97,496.58,-0.92,1.21,-1.77
15512,838.98,774.28,757.40,759.48,782.53,-66.89,-884.28,499.02,-1.35,-0.08,1.27
15543,839.33,774.43,757.47,759.44,782.67,-55.66,-901.37,502.93,-1.34,3.68,-4.18
15573,839.47,774.50,757.42,759.17,782.64,-58.11,-898.93,492.19,-2.75,2.15,0.98
15603,839.42,774.69,757.50,758.98,782.65,-58.11,-893.55,494.14,-1.45,0.95,-0.69
15634,838.80,774.87,757.49,759.11,782.57,-62.99,-899.90,482.91,-1.32,-1.92,-1.53
15667,836.09,775.00,757.65,759.63,782.09,-60.06,-887.21,477.54,3.50,-0.96,-2.08
15697,834.67,775.03,757.64,759.41,781.69,-60.06,-884.77,493.16,-0.85,0.54,-2.92
15728,834.13,774.93,757.45,759.01,781.38,-48.83,-901.86,489.26,-5.93,2.56,0.89
15759,833.35,774.90,757.49,758.89,781.16,-43.95,-909.67,470.21,-2.73,-0.50,-0.31
15789,831.79,774.88,757.53,759.16,780.84,-43.95,-916.02,466.80,7.05,-1.95,0.37
15820,830.53,774.81,757.49,759.13,780.49,-52.73,-908.20,475.10,-1.17,-1.90,-1.01
15851,829.69,774.93,757.36,758.91,780.22,-43.46,-879.88,500.00,-1.67,3.24,-1.34
15882,829.32,774.97,757.34,758.88,780.13,-49.80,-896.00,469.24,-0.91,3.22,-0.53
15913,829.22,775.10,757.41,759.11,780.21,-54.20,-898.44,469.24,1.18,1.05,-2.15
15944,827.94,775.23,757.35,758.81,779.83,-38.09,-881.84,493.65,-3.28,1.91,-0.50
15974,827.68,775.19,757.21,758.40,779.62,-31.25,-890.14,461.91,-7.95,0.81,0.13
16006,827.97,775.04,757.16,758.37,779.63,-73.73,-916.99,459.96,-3.44,2.50,-1.27
16037,826.84,774.94,757.22,758.60,779.40,-62.99,-907.23,472.66,4.31,-0.96,-0.28
16067,825.09,774.84,757.23,758.65,778.95,-68.36,-906.74,455.08,-2.74,0.40,0.51
16098,823.77,774.73,757.19,758.85,778.64,-59.57,-911.13,477.05,3.08,-1.66,-0.61
16130,822.82,774.68,757.23,759.08,778.45,-64.94,-899.41,486.82,3.12,-0.84,-1.92
16161,821.97,774.71,757.34,759.29,778.33,-71.29,-898.93,488.28,-0.33,1.50,-0.11
16191,821.21,774.85,757.36,759.46,778.22,-63.96,-895.02,485.35,0.67,0.63,-1.76
16222,820.46,774.99,757.40,759.73,778.14,-51.27,-898.93,489.75,-0.53,1.73,-1.85
16254,820.04,775.08,757.48,759.82,778.11,-60.55,-898.44,480.96,2.80,-2.85,1.89
16285,820.06,775.15,757.49,760.10,778.20,-45.90,-913.09,476.07,0.50,1.69,0.98
16315,821.40,775.36,757.56,760.16,778.62,-50.29,-883.79,497.07,3.36,1.76,-0.49
16346,823.12,775.35,757.59,760.13,779.05,-38.57,-902.34,479.00,3.81,0.21,0.26
16378,824.59,775.40,757.52,760.10,779.40,-70.31,-900.88,487.30,2.24,0.84,0.41
16408,825.53,775.52,757.61,760.14,779.70,-49.80,-882.32,509.77,-0.71,0.14,-2.40
16439,824.56,775.85,757.71,760.39,779.62,-60.06,-915.53,485.84,-1.60,1.35,-0.43
16470,823.40,776.10,757.82,760.58,779.47,-48.83,-897.46,491.70,-0.61,-0.35,1.29
16502,822.05,776.33,757.91,761.08,779.35,-55.66,-908.20,475.59,0.25,2.43,-2.34
16532,821.18,776.69,758.06,761.49,779.35,-63.96,-879.39,514.16,4.83,1.37,-2.02
16563,820.20,776.96,758.17,761.78,779.28,-46.88,-904.30,499.02,-0.18,0.44,-2.21
16594,818.94,777.13,758.33,762.00,779.10,-53.71,-887.21,487.79,1.57,-0.52,-0.46
16626,818.66,777.30,758.41,762.26,779.16,-35.64,-893.55,490.23,2.50,-1.61,-2.71
16656,817.71,777.36,758.48,762.44,779.00,-61.04,-881.35,491.21,0.66,2.61,-0.29
16687,818.04,777.77,758.62,762.39,779.20,-56.15,-903.32,490.23,3.29,-1.55,-1.08
16719,818.97,778.02,758.62,762.07,779.42,-51.76,-891.60,497.07,-3.47,1.82,-2.54
16750,818.45,777.84,758.42,761.66,779.09,-45.90,-902.34,495.61,-6.09,2.27,-2.82
16781,817.07,777.43,758.47,761.76,778.68,-48.34,-900.88,467.77,-2.24,-1.28,0.35
16812,817.06,777.19,758.49,761.64,778.59,-45.41,-894.04,497.07,1.92,-0.39,1.56
16843,815.49,776.84,758.37,761.29,778.00,-48.34,-890.62,495.12,-3.57,0.80,1.49
16874,814.63,776.48,758.20,760.76,777.52,-49.80,-874.02,497.07,-3.15,0.19,-0.84
16905,817.58,776.40,758.12,760.37,778.12,-56.15,-906.25,472.66,2.34,-0.62,2.65
16936,818.47,775.97,758.03,760.17,778.16,-64.94,-898.44,489.26,-1.83,-0.54,1.08
16967,818.82,775.87,757.93,759.85,778.12,-41.99,-905.76,493.16,-2.35,0.34,-0.42
16998,820.09,775.74,757.88,759.56,778.32,-51.27,-907.71,487.30,-1.21,-0.13,-2.10
17029,821.18,775.68,757.84,759.38,778.52,-57.62,-897.95,478.52,-1.05,0.55,1.96
17059,823.24,775.55,757.73,759.09,778.90,-51.27,-920.41,463.38,-1.90,1.49,0.41
17090,823.65,775.18,757.55,758.92,778.82,-56.64,-910.64,471.68,-4.02,-0.41,2.76
17120,823.66,774.95,757.48,758.52,778.65,-60.55,-885.74,500.49,-4.93,2.60,0.45
17151,825.53,775.01,757.32,758.33,779.05,-60.55,-907.23,479.49,-9.60,2.53,1.80
17181,825.56,774.82,757.22,758.19,778.95,-62.01,-916.50,450.20,-3.73,2.62,0.32
17211,824.77,774.66,757.22,758.23,778.72,-54.69,-868.16,486.33,-3.43,4.37,-0.49
17242,825.54,774.70,757.19,758.32,778.94,-57.62,-917.48,450.20,0.28,4.64,-0.18
17273,826.95,774.72,757.17,758.29,779.28,-45.41,-912.11,464.84,-1.18,3.05,2.18
17304,826.95,774.63,757.17,758.11,779.21,-62.01,-880.37,494.63,-3.11,-1.17,0.40
17334,831.09,774.60,757.10,757.90,780.17,-60.55,-910.16,470.70,0.40,-0.24,1.76
17365,834.84,774.51,757.00,757.79,781.03,-52.25,-896.97,480.47,-1.66,2.41,-1.09
17396,837.29,774.29,756.96,757.55,781.52,-76.66,-933.11,440.92,-2.03,2.31,0.76
17427,839.77,774.05,756.83,757.54,782.05,-107.91,-920.90,427.73,-6.48,5.94,0.36
17458,840.57,774.17,756.90,757.71,782.33,-84.47,-905.27,455.08,10.47,-0.01,-3.09
17489,840.57,774.11,756.92,757.67,782.32,-68.85,-926.27,446.29,-0.11,-1.40,-0.57
17520,839.57,774.03,756.98,757.87,782.11,-78.61,-912.60,459.47,0.65,-0.95,-0.02
17551,838.29,774.24,757.06,758.06,781.91,-65.92,-895.02,473.63,10.45,-2.10,-6.83
17582,837.50,774.20,757.13,758.08,781.73,-47.85,-914.06,462.89,1.08,0.95,0.62
17613,836.72,774.05,757.09,758.19,781.51,-55.18,-898.44,469.24,-0.88,-2.42,0.60
17644,835.65,774.12,757.25,758.60,781.41,-80.08,-896.00,485.35,6.66,-1.16,-2.91
17675,835.18,774.16,757.22,758.92,781.37,-59.08,-902.34,472.17,3.56,-1.51,-0.69
17706,834.06,774.25,757.36,759.16,781.21,-52.25,-916.02,484.37,1.80,-2.88,0.00
17737,832.75,774.36,757.48,759.58,781.04,-76.17,-902.83,485.84,1.60,-0.75,-0.68
17768,831.62,774.45,757.58,759.85,780.88,-68.36,-894.04,485.84,1.15,-0.59,-3.95
17799,830.63,774.43,757.66,760.21,780.73,-53.22,-894.04,484.86,2.92,-1.17,-2.95
17830,829.30,774.38,757.89,760.53,780.53,-60.55,-900.88,472.17,0.65,-1.51,-2.05
17861,828.23,774.63,758.03,760.59,780.37,-60.55,-878.42,496.58,1.35,-0.07,0.21
17892,829.11,774.67,758.08,760.43,780.57,-46.88,-897.46,487.79,0.53,0.64,-1.05
17923,830.64,774.68,757.94,760.09,780.84,-51.76,-890.62,496.09,0.19,-0.38,-1.02
17954,832.23,774.72,757.76,759.60,781.08,-52.73,-885.74,485.35,-1.17,1.30,1.89
17985,833.96,774.64,757.61,758.97,781.29,-50.29,-905.27,481.93,-2.56,0.66,0.76
18016,835.92,774.61,757.46,758.74,781.68,-69.34,-903.81,474.12,-3.67,1.33,0.14
18047,835.88,774.55,757.46,758.63,781.63,-54.20,-879.39,495.61,-0.09,1.80,-2.13
18078,836.14,774.56,757.23,758.35,781.57,-64.45,-938.48,463.38,-1.17,1.47,1.89
18109,836.04,774.32,757.29,758.15,781.45,-61.04,-887.21,485.84,-4.49,-0.24,-0.47
18140,835.19,774.35,757.27,758.11,781.23,-78.12,-906.25,455.08,-2.18,1.18,-0.74
18171,833.84,774.24,757.34,758.21,780.91,-74.71,-898.44,486.33,3.80,0.34,-5.88
18202,832.95,774.28,757.28,757.92,780.61,-45.90,-894.53,488.77,-6.76,1.71,-1.04
18233,832.56,774.19,757.17,757.82,780.43,-68.36,-914.55,455.08,-6.24,-1.14,-0.24
18264,831.64,774.14,757.19,757.96,780.23,-76.17,-930.66,449.22,3.01,0.18,-1.56
18295,831.13,774.20,757.17,758.01,780.13,-41.50,-873.54,490.72,3.37,0.69,-1.23
18326,830.72,774.23,757.24,757.84,780.01,-41.99,-906.25,481.93,-3.16,-1.02,0.52
18357,830.54,774.14,757.25,757.93,779.97,-73.24,-901.86,478.03,-0.03,-1.53,-0.36
18388,829.50,774.15,757.28,758.05,779.74,-54.69,-922.36,445.80,10.92,-3.73,-0.28
18419,830.14,774.00,757.13,757.89,779.79,-55.18,-914.55,469.24,-1.10,-5.68,2.64
18450,831.29,773.90,757.15,757.77,780.03,-74.71,-897.46,473.63,-4.10,0.05,0.46
18481,831.50,774.04,757.15,757.96,780.16,-67.38,-909.67,456.05,2.87,0.72,-3.37
18512,831.26,774.12,757.22,758.16,780.19,-52.25,-908.20,475.10,12.55,-1.27,-0.40
18543,831.37,774.19,757.22,758.04,780.21,-80.08,-891.11,483.40,-6.28,5.50,-1.66
18574,830.99,774.30,757.22,758.11,780.15,-72.27,-913.09,474.61,-3.18,-0.05,0.38
18604,829.37,774.24,757.28,758.43,779.83,-61.52,-901.37,484.86,-1.23,2.10,-0.76
18635,827.29,774.23,757.29,758.47,779.32,-42.48,-895.02,490.23,-1.31,2.24,-3.57
18665,826.59,774.28,757.30,758.49,779.16,-67.38,-936.04,434.57,-6.60,-1.10,0.24
18696,827.17,774.35,757.33,758.54,779.35,-69.82,-916.02,456.05,4.59,-1.26,-1.77
18726,828.14,774.53,757.29,758.86,779.71,-55.66,-894.04,478.52,8.98,-0.64,-4.05
18757,828.78,774.78,757.43,759.26,780.06,-62.50,-914.06,487.30,5.63,-1.15,-1.17
18787,828.99,774.85,757.57,759.68,780.27,-55.18,-898.93,493.65,8.44,-0.19,-0.08
18818,829.28,774.93,757.65,759.86,780.43,-53.71,-883.79,509.28,3.60,0.16,1.77
18849,829.04,774.97,757.65,760.01,780.42,-40.53,-900.88,491.70,-1.18,-0.39,-1.15
18880,828.98,775.02,757.65,759.93,780.39,-52.73,-900.88,496.58,0.20,1.47,-0.90
18910,828.76,775.10,757.63,759.95,780.36,-59.08,-905.27,489.26,-0.17,-1.05,0.41
18941,828.39,775.07,757.63,759.90,780.25,-56.64,-891.60,488.28,2.71,-0.30,-1.08
18972,828.14,775.19,757.71,759.91,780.24,-54.20,-901.37,479.49,0.91,1.66,-0.61
19002,827.74,775.10,757.78,759.92,780.13,-43.46,-895.02,500.00,-0.36,-1.95,0.08
19033,827.33,775.21,757.76,759.99,780.07,-65.43,-918.95,480.47,0.44,-1.94,-0.95
19064,826.12,775.21,757.84,760.23,779.85,-48.34,-902.34,486.82,2.14,0.28,-0.44
19095,825.87,775.36,757.91,760.52,779.91,-52.73,-898.93,491.21,1.99,1.34,-0.40
19126,823.62,775.49,758.04,760.77,779.48,-51.27,-874.02,504.39,2.40,2.79,-1.91
19157,819.22,775.50,758.09,761.06,778.47,-55.18,-899.90,477.05,-0.34,1.73,-1.29
19188,813.54,775.43,758.29,761.56,777.21,-48.34,-894.04,502.44,-0.43,-2.86,0.89
19219,810.59,775.52,758.44,761.82,776.59,-14.16,-844.73,545.41,2.70,-3.35,-0.78
19250,810.80,775.80,758.50,761.79,776.72,-44.43,-895.51,498.05,-1.99,-0.29,-2.54
19281,809.23,775.88,758.33,761.25,776.17,-50.78,-899.90,475.10,-8.77,3.54,-3.08
19313,807.88,775.92,758.27,760.83,775.72,-50.78,-892.09,501.95,-7.34,-2.74,0.44
19343,809.29,775.83,758.20,760.80,776.03,-43.95,-888.18,504.39,1.26,-0.79,0.98
19374,812.10,775.52,758.17,760.64,776.61,-56.64,-905.76,470.70,1.20,-1.76,2.25
19405,813.63,775.37,758.16,760.45,776.90,-47.85,-922.36,479.49,-3.01,-1.04,-0.90
19437,814.46,775.36,758.08,760.47,777.09,-64.45,-876.46,502.93,-0.99,1.59,-0.76
19468,815.81,775.41,758.11,760.31,777.41,-68.36,-902.34,498.05,-2.40,1.45,1.95
19498,817.70,775.44,758.09,760.42,777.91,-53.71,-916.50,465.82,2.16,2.88,0.94
19531,820.59,775.52,758.12,760.29,778.63,-47.36,-904.79,490.23,-1.04,1.40,-1.43
19562,821.36,775.51,758.01,760.23,778.78,-59.57,-892.58,476.56,-5.16,2.16,-0.72
19593,823.60,775.67,758.06,760.29,779.41,-68.36,-929.69,452.15,1.27,-0.51,-0.11
19624,824.52,775.59,758.07,760.35,779.64,-41.50,-902.34,492.19,1.06,1.65,2.08
19655,822.82,775.50,758.16,760.59,779.27,-61.52,-896.48,477.54,-2.08,-1.82,-0.69
19686,823.73,775.68,758.13,760.84,779.59,-56.64,-884.28,505.37,1.13,2.29,-2.29
19717,823.46,776.02,758.23,760.73,779.61,-63.48,-887.21,478.52,-2.49,0.50,-4.82
19748,822.32,776.20,758.25,760.57,779.33,-33.20,-919.43,472.66,-5.08,1.06,-4.57
19779,822.52,776.44,758.16,760.57,779.42,-60.55,-895.02,476.07,-5.39,3.45,-3.44
19810,824.18,776.51,758.20,760.68,779.89,-64.94,-893.55,497.07,2.69,-0.77,-2.84
19841,824.48,776.61,758.19,760.72,780.00,-46.88,-905.27,482.91,-1.04,-1.42,-0.48
19872,825.11,776.54,758.19,760.78,780.16,-57.13,-887.21,482.91,1.42,1.73,0.70
19903,826.21,776.31,758.11,760.64,780.32,-40.04,-891.11,488.77,0.40,1.85,0.74
19934,826.26,776.08,758.00,760.38,780.18,-35.64,-879.88,477.54,-1.75,-0.73,-0.48
19965,827.04,775.80,757.91,760.10,780.21,-48.83,-885.25,484.86,-2.44,0.56,2.16
19996,829.14,775.80,757.85,760.00,780.70,-45.41,-921.39,470.70,-2.68,2.82,-1.59
20027,830.41,775.70,757.66,759.40,780.79,-45.90,-883.79,498.05,-7.23,1.47,1.14
20058,831.23,775.31,757.48,758.90,780.73,-54.20,-918.95,449.71,-5.77,-1.27,2.60
20089,833.86,775.01,757.38,758.59,781.21,-75.68,-900.88,476.56,-2.76,-0.97,2.86
20120,836.55,774.83,757.23,758.04,781.66,-51.76,-900.88,477.54,-9.23,-1.86,-0.79
20151,838.55,774.25,757.07,757.89,781.94,-76.17,-928.71,445.31,-7.24,0.57,3.81
20182,838.46,774.10,757.15,758.17,781.97,-98.14,-930.18,419.43,12.16,-2.85,-1.98
20212,838.19,773.90,757.22,758.19,781.87,-49.80,-893.07,485.35,2.69,-1.44,-1.12
20243,837.99,773.91,757.20,758.17,781.82,-72.27,-892.58,474.12,3.01,-2.66,0.04
20273,838.59,773.91,757.24,758.20,781.99,-75.20,-905.76,482.91,0.93,1.50,-0.15
20304,839.00,774.09,757.25,758.18,782.13,-64.94,-876.95,491.21,0.75,0.44,-1.10
20334,840.06,774.26,757.24,758.19,782.44,-59.08,-894.53,463.87,0.43,-0.23,-1.34
20365,841.19,774.50,757.25,758.22,782.79,-38.57,-900.39,482.42,1.92,2.39,-0.60
20396,841.99,774.72,757.32,758.20,783.06,-62.99,-901.37,468.75,1.82,1.48,-0.55
20426,842.19,774.81,757.23,758.33,783.14,-50.78,-894.53,478.52,0.89,2.66,-2.41
20457,842.43,775.02,757.26,758.30,783.25,-46.88,-905.76,487.30,1.08,0.73,-0.12
20488,842.30,775.24,757.28,758.35,783.29,-60.55,-899.90,459.96,-2.24,1.21,-2.88
20518,842.01,775.28,757.21,758.28,783.20,-58.59,-899.90,460.45,-4.02,-2.31,1.36
20549,841.84,775.22,757.31,758.29,783.16,-74.22,-916.02,465.33,2.64,-2.76,0.05
20580,841.12,775.08,757.33,758.31,782.96,-53.22,-899.90,488.28,-0.31,-1.99,-0.08
20611,840.27,774.88,757.36,758.33,782.71,-52.73,-896.48,472.17,5.11,-0.35,-1.48
20642,839.08,774.83,757.37,758.54,782.45,-49.80,-900.39,495.12,0.53,1.14,-1.26
20673,836.66,774.75,757.40,758.39,781.80,-25.88,-877.44,535.16,-1.03,-0.41,0.21
20704,835.40,774.71,757.33,758.29,781.43,-63.96,-899.90,470.70,2.15,0.12,0.02
20735,835.28,774.49,757.29,758.12,781.30,-74.71,-903.81,478.03,-5.28,-0.08,2.01
20766,833.92,774.26,757.33,758.10,780.90,-71.29,-916.99,469.24,0.97,-0.03,1.43
20797,831.22,774.20,757.23,758.47,780.28,-56.15,-903.81,482.42,5.95,-0.91,-1.73
20828,828.80,774.28,757.38,758.58,779.76,-73.24,-885.74,471.68,6.51,-2.63,-0.14
20859,828.78,774.22,757.34,758.38,779.68,-73.73,-893.07,498.54,-5.05,-0.35,-3.15
20890,825.89,774.25,757.25,758.40,778.95,-61.04,-903.32,480.96,-9.39,0.56,-0.83
20921,823.23,774.26,757.34,758.70,778.38,-66.89,-897.95,459.47,0.11,1.77,-2.44
20952,822.37,774.15,757.36,758.81,778.17,-55.66,-910.16,462.40,1.92,-0.06,-0.56
20983,819.91,774.08,757.41,758.90,777.57,-58.59,-912.11,454.59,-4.42,0.92,-1.08
21014,817.97,774.01,757.33,758.96,777.07,-53.71,-913.57,467.29,-1.34,-3.21,-0.88
21045,817.25,773.85,757.38,759.00,776.87,-51.27,-920.90,465.82,0.21,-0.66,-0.68
21076,814.89,773.40,757.30,758.99,776.14,-55.66,-901.86,483.89,-0.35,-1.92,2.16
21107,815.19,773.54,757.44,759.22,776.35,-71.29,-882.32,476.56,3.47,-2.11,-0.67
21138,818.54,773.88,757.50,759.43,777.34,-55.66,-922.36,478.52,4.71,1.09,-3.31
21169,819.78,773.94,757.54,759.64,777.72,-63.96,-903.32,471.19,4.11,0.06,-1.15
21200,820.98,773.93,757.63,759.81,778.09,-48.34,-888.67,489.26,4.65,0.55,-3.37
21231,823.06,774.25,757.69,760.01,778.75,-70.80,-886.72,498.05,2.85,-0.20,-2.08
21262,824.96,774.67,757.75,759.97,779.34,-53.22,-894.04,485.84,0.61,0.40,-2.78
21293,826.01,774.88,757.80,760.22,779.73,-58.59,-913.57,482.42,2.73,-0.08,-2.98
21324,827.07,775.01,757.91,760.37,780.09,-58.11,-896.00,485.35,5.34,0.29,-1.41
21355,827.29,775.09,757.97,760.58,780.23,-48.34,-898.93,498.05,1.56,-0.11,-0.60
21386,826.29,775.26,758.10,760.80,780.11,-46.88,-897.46,482.91,1.32,0.95,-2.82
21417,825.16,775.38,758.18,761.09,779.95,-65.92,-899.41,476.07,1.98,0.54,1.42
21448,824.19,775.50,758.31,761.30,779.83,-54.20,-869.63,501.95,3.31,-1.73,-2.16
21479,824.96,775.85,758.34,761.33,780.12,-52.25,-896.00,504.39,1.62,0.38,-0.09
21510,824.37,775.95,758.37,761.36,780.01,-59.08,-888.18,496.09,-2.95,0.33,0.94
21541,823.51,775.89,758.37,761.38,779.79,-44.92,-892.09,489.26,0.48,1.10,-1.55
21572,823.82,775.89,758.41,761.24,779.84,-45.90,-893.55,486.82,-0.76,0.40,2.40
21603,823.89,775.85,758.36,760.90,779.75,-50.29,-891.11,490.23,-2.28,2.90,0.32
21634,823.68,775.62,758.29,760.74,779.58,-61.04,-904.30,501.95,-3.12,0.15,-0.15
21665,822.60,775.40,758.16,760.65,779.20,-37.11,-910.16,494.14,-0.52,-1.59,0.56
21696,823.06,775.27,758.07,760.13,779.13,-51.76,-878.91,499.51,-2.46,2.03,-2.73
21727,823.11,775.02,757.84,759.73,778.92,-59.08,-893.55,480.96,-2.91,3.63,-2.70
21757,821.83,774.74,757.87,759.58,778.51,-56.15,-896.00,487.79,-3.62,-0.04,1.98
21788,819.42,774.14,757.78,759.27,777.65,-47.36,-901.37,488.28,-2.60,-3.48,3.23
21818,818.56,774.02,757.72,759.41,777.43,-67.87,-892.09,513.18,-0.78,-1.11,-1.05
21849,820.06,774.00,757.79,759.52,777.84,-60.06,-898.93,489.26,-0.39,-2.53,0.91
21879,818.40,773.72,757.78,759.78,777.42,-79.59,-887.70,495.61,-2.01,1.76,-0.63
21910,818.76,773.95,757.82,759.88,777.60,-47.85,-877.93,512.70,0.37,-0.36,-0.20
21941,820.72,774.36,757.86,759.81,778.19,-55.18,-896.00,477.05,-6.27,2.96,-3.92
21972,820.09,774.93,757.90,760.17,778.28,-63.48,-889.16,495.12,-2.80,2.24,-3.91
22002,820.81,775.42,758.01,760.76,778.75,-36.13,-895.02,496.09,-2.07,4.46,-2.77
22033,820.61,775.98,758.29,761.14,779.00,-53.71,-889.65,496.58,-0.49,3.56,-1.44
22064,820.74,776.76,758.37,761.03,779.23,-60.06,-885.25,509.77,-3.59,-1.55,-2.23
22094,822.22,777.16,758.31,761.03,779.68,-52.73,-902.34,483.89,-0.71,0.51,0.50
22125,822.32,777.25,758.31,761.12,779.75,-53.22,-913.57,467.77,-4.55,1.08,1.88
22156,822.91,777.10,758.39,761.54,779.99,-56.64,-909.67,467.29,1.50,-1.44,-0.12
22187,823.98,777.06,758.52,761.96,780.38,-56.64,-888.67,486.33,5.24,-1.47,-0.66
22218,823.38,777.01,758.47,761.51,780.09,-35.16,-881.35,522.95,-5.31,1.02,3.98
22249,824.70,777.26,758.39,761.32,780.42,-48.83,-906.25,460.94,-2.10,2.27,-1.34
22280,825.46,777.27,758.35,761.33,780.60,-41.99,-898.93,490.23,-3.05,0.40,-1.16
22311,824.62,777.14,758.37,761.51,780.41,-42.97,-885.25,472.17,-2.14,1.36,-2.74
22342,825.76,777.08,758.43,761.41,780.67,-49.32,-896.48,492.68,0.38,1.24,-0.20
22373,825.77,776.84,758.35,761.27,780.56,-55.66,-903.32,483.89,-1.71,3.42,-0.15
22404,823.80,776.46,758.30,761.17,779.93,-48.83,-880.37,485.35,-5.18,2.03,1.21
22435,824.09,776.37,758.24,761.34,780.01,-56.64,-915.04,475.59,0.63,1.27,1.30
22466,825.11,776.33,758.25,761.20,780.22,-37.11,-886.72,492.68,1.89,0.22,-1.83
22497,826.09,776.23,758.25,760.84,780.35,-64.94,-900.88,466.31,-1.64,0.97,0.85
22528,828.19,776.04,758.10,760.50,780.71,-56.15,-892.58,501.95,-0.95,0.80,-2.19
22559,830.88,775.79,757.87,760.01,781.14,-49.32,-899.90,473.14,-1.03,0.63,0.01
22590,832.84,775.63,757.96,759.90,781.58,-78.12,-883.79,499.02,0.98,2.12,0.28
22621,834.25,775.46,757.86,759.75,781.83,-64.45,-899.90,479.00,-1.44,2.70,-2.14
22652,834.58,775.43,757.82,759.86,781.92,-57.62,-901.86,468.75,-1.02,-0.27,-1.92
22683,835.27,775.63,757.85,760.02,782.19,-52.73,-895.51,492.68,0.74,-2.15,0.95
22714,835.55,775.63,757.92,759.95,782.26,-25.88,-896.97,508.79,-0.13,1.02,-0.43
22745,836.09,775.58,757.83,760.00,782.38,-52.73,-898.44,475.59,-1.02,1.85,-1.46
22776,836.38,775.68,757.92,760.21,782.55,-59.57,-900.88,482.91,0.69,2.74,-1.34
22807,836.11,775.66,757.98,760.19,782.49,-56.64,-911.13,471.68,4.03,1.21,-0.47
22838,836.23,775.74,757.88,759.99,782.46,-60.06,-894.53,493.16,-2.77,0.25,-0.51
22869,836.65,775.62,757.86,759.82,782.49,-64.45,-905.76,490.72,0.44,1.05,-1.12
22900,836.25,775.72,757.81,759.88,782.41,-48.83,-896.48,482.91,0.49,0.41,-1.24
22931,835.36,775.74,757.84,759.78,782.18,-37.60,-908.69,478.52,1.09,0.45,-1.92
22962,834.11,775.64,757.88,759.83,781.87,-55.18,-906.25,478.52,-0.62,0.40,0.91
22993,832.80,775.55,757.87,759.93,781.54,-38.57,-903.81,483.40,1.89,-0.25,-0.92
23024,830.69,775.27,757.91,760.11,780.99,-57.13,-898.93,485.84,4.51,-1.88,0.02
23055,827.99,775.18,757.94,760.46,780.39,-44.92,-894.04,497.56,1.37,-5.31,-0.76
23086,825.69,775.29,758.05,760.63,779.91,-41.99,-910.64,471.68,2.48,-3.02,-1.13
23117,823.26,775.30,758.10,760.83,779.37,-57.62,-907.71,480.96,-0.29,-0.54,-2.40
23148,821.53,775.39,758.14,760.89,778.99,-69.82,-897.95,501.46,1.95,-0.07,-1.76
23179,820.77,775.43,758.16,760.85,778.80,-61.04,-879.88,488.28,-0.59,2.17,-1.18
23210,819.59,775.49,758.12,760.84,778.51,-47.85,-903.81,497.56,0.26,-1.73,-0.31
23241,817.90,775.43,758.14,760.88,778.09,-75.68,-881.35,484.86,-2.75,-1.95,1.33
23272,815.19,775.42,758.19,760.91,777.42,-45.90,-891.11,482.91,0.72,1.15,-2.15
23303,814.21,775.51,758.20,760.88,777.20,-55.66,-888.18,486.82,-0.70,4.85,-1.04
23334,813.58,775.55,758.22,760.89,777.06,-43.95,-894.53,487.30,-2.00,-1.21,-1.40
23364,811.16,775.55,758.28,761.19,776.55,-41.50,-914.06,458.98,-2.71,-2.43,0.36
23396,808.14,775.57,758.49,761.69,775.97,-40.53,-890.14,490.72,5.37,-1.49,0.24
23427,808.96,775.56,758.57,761.90,776.25,-51.76,-878.42,519.04,5.31,-2.19,-1.79
23457,807.86,775.30,758.54,761.67,775.84,-59.08,-889.16,508.79,-2.60,1.51,0.53
23488,803.92,774.92,758.50,761.63,774.74,-27.83,-894.53,481.45,-6.33,-3.45,0.25
23519,803.35,774.95,758.70,762.21,774.80,-43.95,-884.28,486.82,6.38,-0.74,-1.29
23549,804.79,775.34,758.97,762.68,775.44,-34.18,-866.70,510.74,3.79,0.15,-1.88
23580,806.25,775.60,759.18,762.97,776.00,-52.25,-894.53,487.30,2.06,-1.02,0.78
23611,807.28,775.80,759.37,763.20,776.41,-61.04,-904.30,488.77,1.02,0.34,-0.86
23641,808.81,776.20,759.58,763.54,777.03,-43.95,-888.18,504.39,2.53,3.08,-0.41
23672,808.36,776.66,759.85,764.13,777.25,-38.57,-905.76,482.91,-1.11,0.00,-1.47
23703,806.99,776.97,760.16,764.48,777.15,-43.95,-886.23,494.63,0.03,0.95,-1.53
23734,804.78,777.13,760.40,764.90,776.80,-49.80,-901.86,491.21,0.22,-2.34,-2.95
23765,803.33,777.11,760.74,765.24,776.61,-55.66,-894.53,494.63,0.43,1.85,-3.80
23796,801.38,777.04,761.11,765.53,776.26,-37.11,-899.41,487.30,-0.97,1.02,0.40
23827,799.11,776.73,761.42,765.51,775.69,-38.09,-882.32,518.07,0.75,0.37,-1.28
23858,797.74,776.26,761.71,765.46,775.29,-40.04,-899.41,498.54,-0.15,-0.56,1.24
23889,796.94,775.83,761.90,765.39,775.02,-50.78,-895.02,498.05,-1.83,2.78,0.46
23920,795.62,775.38,762.09,765.35,774.61,-46.39,-895.51,500.98,-1.33,1.22,-2.17
23951,793.62,775.27,762.09,765.27,774.06,-49.80,-884.28,502.93,-1.66,2.37,1.11
23982,791.32,775.24,762.27,765.16,773.50,-53.71,-889.16,490.23,-3.43,0.63,-1.64
24013,787.45,775.24,762.45,765.06,772.55,-49.32,-897.46,500.49,-6.35,1.91,-3.66
24044,782.75,775.17,762.53,764.88,771.33,-47.85,-903.32,491.70,-11.02,2.85,-2.16
24075,780.71,775.09,762.52,764.62,770.74,-40.53,-895.51,482.42,-2.15,-1.21,1.18
24106,781.55,775.26,762.41,764.45,770.92,-45.41,-898.44,490.72,5.83,-3.06,3.51
24137,782.93,775.43,762.31,764.52,771.30,-68.36,-885.74,496.09,-3.08,0.95,0.43
24168,782.24,776.01,762.45,764.35,771.26,-54.20,-908.69,471.19,-2.16,-0.14,-1.78
24199,782.81,776.22,762.15,764.06,771.31,-49.32,-901.37,487.79,-3.31,-3.09,1.96
24230,785.66,776.16,761.82,763.87,771.88,-63.48,-895.02,494.14,0.25,0.41,2.63
24261,787.94,776.39,761.75,763.91,772.50,-66.41,-911.62,471.68,-2.05,0.94,-0.95
24292,790.29,776.86,761.51,763.64,773.07,-41.99,-905.27,474.61,1.91,1.24,-1.40
24323,794.56,777.14,761.25,763.03,773.99,-62.01,-894.04,489.75,-2.34,2.09,1.26
24354,799.83,777.14,760.77,762.29,775.01,-44.43,-895.51,478.03,-1.98,2.19,-0.54
24385,806.70,776.96,759.94,761.62,776.30,-68.36,-915.04,462.40,-3.15,1.24,0.55
24416,810.47,776.63,759.61,761.31,777.00,-62.99,-902.83,482.42,-2.21,0.95,1.05
24447,812.94,776.42,759.35,761.08,777.45,-50.78,-904.30,471.19,-1.60,-0.51,0.36
24478,817.65,776.46,759.12,760.60,778.46,-59.57,-908.69,478.52,-1.40,1.85,1.65
24509,821.24,776.12,758.73,760.04,779.03,-67.87,-884.77,494.14,-1.09,2.34,1.55
24540,824.97,775.94,758.43,759.61,779.74,-54.20,-916.02,470.21,-3.27,1.66,1.53
24571,829.32,775.59,758.08,758.87,780.46,-60.55,-924.32,471.19,-3.37,-0.86,1.33
24602,832.55,775.02,757.76,757.98,780.83,-48.34,-901.86,476.07,-9.30,-0.79,4.27
24633,838.55,774.48,757.38,757.57,781.99,-15.14,-884.28,523.44,-20.74,3.66,7.21
24664,845.32,774.13,757.06,757.60,783.53,-95.21,-929.20,421.87,-13.73,2.44,5.61
24695,849.57,773.56,756.96,757.59,784.42,-54.20,-930.18,556.15,-22.16,3.83,14.02
24726,850.95,772.96,756.97,757.54,784.61,-133.30,-896.48,415.53,0.30,0.22,8.63
24757,853.10,772.69,756.99,757.48,785.07,-65.92,-863.77,476.07,4.58,-5.17,5.56
24788,855.39,772.48,757.08,757.39,785.59,-131.84,-873.54,438.48,12.44,-5.88,-3.88
24819,854.73,772.64,757.13,757.33,785.46,138.18,-1211.91,504.39,25.82,-23.51,-19.80
24850,853.31,772.81,757.24,757.38,785.19,-105.96,-932.13,521.97,6.00,3.60,-5.04
24881,852.76,773.05,757.36,757.48,785.16,-75.20,-882.81,494.14,4.38,3.56,-2.01
24911,852.48,773.37,757.41,757.56,785.21,-72.27,-910.64,477.05,-0.28,3.66,-4.72
24941,852.68,773.60,757.49,757.57,785.33,-41.50,-897.95,494.63,-1.39,1.05,-5.30
24972,852.70,773.87,757.50,757.68,785.44,-61.52,-904.79,472.66,-0.46,2.79,-2.73
25002,852.27,774.16,757.72,758.31,785.62,-74.22,-893.07,472.66,2.79,2.33,-4.79
25033,850.65,774.81,758.06,758.58,785.53,-6.84,-905.76,541.50,9.33,-4.92,-4.13
25063,849.27,775.28,758.18,758.93,785.41,-41.99,-891.11,466.80,2.82,-3.20,-0.05
25097,847.80,775.49,758.22,758.94,785.11,-56.15,-896.48,475.10,-0.26,-1.08,-2.75
25128,847.38,775.53,758.20,759.01,785.03,-51.27,-902.83,476.07,-1.41,0.94,-0.50
25159,846.66,775.46,758.21,759.41,784.94,-59.08,-894.04,495.12,2.96,-0.10,2.17
25189,843.56,775.36,758.33,760.21,784.36,-60.55,-898.44,496.09,4.39,0.55,-2.70
25220,841.14,775.33,758.51,760.49,783.87,-55.18,-894.04,500.00,5.45,0.18,-1.29
25251,839.87,775.32,758.55,760.46,783.55,-69.82,-881.35,486.82,3.64,-0.06,-0.83
25281,837.92,775.15,758.49,760.31,782.97,-47.85,-894.53,500.49,0.02,-0.91,0.59
25312,835.24,774.88,758.39,760.27,782.20,-52.25,-889.65,502.44,0.92,-0.22,0.76
25343,833.65,774.78,758.32,760.38,781.78,-58.11,-887.21,517.58,1.71,0.67,-0.66
25374,831.88,774.69,758.23,760.41,781.30,-54.69,-907.23,506.84,-1.94,1.61,-1.37
25406,829.21,774.53,758.24,760.40,780.60,-38.57,-912.60,500.00,-0.47,0.24,-3.52
25436,827.65,774.43,758.26,760.37,780.18,-37.60,-896.48,481.93,-1.07,-0.49,-2.63
25467,825.57,774.46,758.26,760.33,779.65,-41.99,-876.46,487.30,-2.87,1.82,-1.92
25498,822.42,774.45,758.29,760.23,778.85,-33.20,-883.30,496.09,-1.29,-0.20,-1.11
25529,819.24,774.63,758.19,760.24,778.07,-47.85,-900.88,492.19,-4.77,0.99,-0.89
25560,816.93,774.82,758.22,760.31,777.57,-50.78,-888.18,491.21,-2.24,2.92,-2.34
25592,814.07,774.75,758.20,760.39,776.85,-56.15,-920.90,486.82,-2.76,-1.49,-1.80
25623,809.76,774.63,758.28,760.42,775.77,-38.09,-900.88,509.77,-1.00,-1.73,0.86
25654,807.96,774.55,758.41,760.40,775.33,-37.60,-904.79,480.47,0.02,-1.98,1.31
25685,808.42,774.48,758.40,760.46,775.44,-62.01,-880.37,490.23,3.18,0.95,-2.03
25716,809.15,774.65,758.44,760.42,775.66,-45.90,-890.62,514.16,1.89,-0.50,-1.37
25746,809.56,774.63,758.56,760.64,775.85,-53.22,-903.81,484.37,-0.07,1.65,0.94
25778,810.74,774.73,758.86,761.23,776.39,-39.55,-885.74,504.39,9.02,-1.20,-2.51
25809,813.71,775.03,759.19,761.83,777.44,-57.62,-892.09,491.21,7.60,0.11,-1.56
25840,815.46,775.38,759.58,762.27,778.17,-59.57,-896.48,505.86,3.91,-0.90,-2.47
25870,815.22,775.79,759.86,762.69,778.39,-41.50,-892.58,493.65,1.29,0.63,1.70
25902,813.90,776.16,760.26,763.16,778.37,-41.02,-884.77,487.30,3.95,-1.24,-4.20
25933,812.57,776.30,760.42,763.44,778.18,-43.95,-875.49,501.95,2.58,1.07,0.28
25963,811.67,776.35,760.49,763.65,778.04,-40.04,-884.28,501.46,0.50,0.59,-0.44
25994,811.18,776.44,760.67,763.83,778.03,-51.27,-886.72,500.98,-0.31,0.71,-2.34
26026,809.70,776.68,760.78,764.02,777.80,-57.13,-898.44,508.30,-1.82,0.19,-0.91
26057,808.09,776.66,761.02,764.21,777.50,-46.39,-888.18,504.88,0.58,2.25,-1.94
26087,806.24,776.48,761.13,764.45,777.07,-45.41,-875.98,503.91,-1.17,-2.02,-0.14
26118,804.97,776.46,761.32,764.53,776.82,-39.55,-876.46,513.67,-1.02,1.35,-0.77
26150,803.17,776.38,761.33,764.57,776.36,-46.39,-885.25,503.42,-2.61,0.16,-2.11
26180,800.65,776.21,761.47,764.77,775.78,-48.83,-880.37,494.63,0.31,1.80,-0.88
26211,798.67,776.21,761.63,764.99,775.38,-43.95,-892.58,493.65,0.22,1.49,0.72
26242,798.37,776.26,761.69,764.91,775.31,-44.43,-887.70,511.72,1.61,-3.35,-3.00
26274,797.77,776.06,761.67,764.77,775.07,-41.50,-899.41,502.93,-0.34,-4.31,0.63
26304,797.50,776.18,761.86,764.83,775.09,-67.38,-866.21,526.37,-2.37,-1.26,-0.57
26335,794.81,776.36,761.78,764.51,774.36,-46.39,-903.81,493.65,-6.77,-0.08,-2.56
26366,793.64,776.49,761.43,763.71,773.82,-28.81,-904.79,494.14,-6.89,-1.29,-2.74
26414,796.18,776.49,761.00,762.97,774.16,-43.95,-888.67,497.07,-4.96,2.01,-1.56
26445,796.83,776.58,761.10,763.16,774.42,-68.85,-919.43,466.31,-2.09,-0.95,-1.66
26476,797.87,776.41,760.80,762.99,774.52,-42.48,-906.74,494.63,-0.74,-0.06,-0.68
26506,798.60,776.05,760.67,762.56,774.47,-43.95,-864.75,524.90,3.62,-1.73,1.82
26537,802.98,775.58,760.52,762.18,775.32,-60.55,-914.06,473.14,-0.85,-1.41,2.51
26567,806.71,775.41,759.95,761.41,775.87,-39.55,-891.11,507.81,-6.35,-0.09,-0.45
26597,808.32,775.15,759.64,761.00,776.03,-50.29,-888.67,475.10,-2.63,1.24,0.34
26628,813.58,774.93,759.14,760.65,777.08,-40.04,-898.93,483.40,-1.37,5.22,1.70
26658,819.39,774.58,758.78,760.21,778.24,-66.89,-912.11,492.19,0.67,1.60,3.69
26689,822.71,774.23,758.49,759.85,778.82,-49.32,-908.20,475.59,-1.71,2.59,2.68
26720,826.18,774.07,758.27,760.01,779.63,-63.96,-894.04,497.56,3.90,-0.81,-1.82
26750,827.53,774.01,758.31,759.82,779.92,-55.66,-883.79,494.63,-0.90,0.73,-0.49
26781,829.31,773.95,758.26,759.48,780.25,-48.83,-875.49,507.32,-6.77,-1.14,1.97
26812,831.84,774.03,758.07,759.01,780.74,-51.27,-901.86,481.93,-3.95,0.22,-1.31
26842,834.26,774.00,757.88,758.64,781.20,-56.15,-897.95,484.86,-6.60,1.06,-1.33
26873,834.87,773.83,757.72,758.45,781.22,-58.11,-899.90,480.47,-6.44,3.57,1.61
26904,837.60,773.75,757.62,758.39,781.84,-59.57,-916.99,466.31,1.63,0.92,-4.49
26935,838.45,773.67,757.61,758.39,782.03,-56.15,-907.23,466.80,1.94,-2.16,-0.70
26966,839.33,773.40,757.58,758.24,782.14,-41.99,-891.11,480.47,0.91,0.45,2.69
26997,843.92,773.39,757.42,757.93,783.16,-49.32,-889.16,521.48,3.56,0.43,2.28
27028,846.89,773.25,757.24,757.65,783.76,-30.27,-856.93,523.44,-3.88,1.16,2.49
27059,848.20,773.15,757.25,757.58,784.04,-74.22,-892.58,485.35,5.06,-0.87,1.44
27090,850.86,772.90,757.17,757.64,784.65,-73.24,-902.34,474.12,1.41,0.81,1.41
27121,850.85,772.71,757.22,757.68,784.62,-66.41,-923.83,463.38,10.12,-3.11,-2.66
27152,850.81,772.72,757.29,757.76,784.64,-91.31,-894.04,483.40,8.05,-1.38,-0.83
27183,850.70,772.72,757.33,757.86,784.65,-78.61,-869.63,516.11,0.86,0.56,-2.50
27214,850.03,772.84,757.36,757.89,784.53,-53.71,-887.21,502.44,-1.58,3.46,-1.78
27245,849.04,772.93,757.41,758.02,784.35,-74.22,-892.58,495.61,0.47,-0.23,0.47
27276,847.88,773.00,757.45,758.17,784.12,-60.06,-889.65,493.65,1.73,-2.03,-0.31
27306,846.08,773.13,757.52,758.25,783.74,-60.06,-911.62,479.49,0.55,0.98,-2.84
27337,844.99,773.20,757.54,758.35,783.52,-64.45,-891.11,497.07,0.56,-0.48,-2.38
27368,843.73,773.32,757.64,758.58,783.32,-50.29,-885.74,502.93,3.06,3.13,-0.87
27399,841.84,773.33,757.82,759.02,783.00,-59.08,-887.70,484.86,3.24,2.97,-0.87
27430,838.68,773.27,758.01,759.60,782.39,-73.73,-907.71,492.19,4.45,-1.45,-2.48
27461,836.13,773.16,758.12,760.01,781.85,-56.15,-890.14,501.95,5.26,-0.95,-0.13
27492,833.98,773.11,758.19,760.40,781.42,-50.29,-887.21,504.88,0.62,-0.27,-0.16
27523,831.82,773.07,758.20,760.52,780.90,-54.20,-876.46,497.56,1.19,0.67,-1.67
27554,829.01,772.98,758.20,760.65,780.21,-62.50,-891.11,484.86,-1.43,0.25,-0.22
27585,825.67,772.89,758.23,760.58,779.34,-59.57,-885.25,520.02,-1.31,-0.26,0.51
27616,821.37,772.74,758.22,760.41,778.19,-50.29,-890.62,496.09,-5.28,-0.68,-2.31
27647,818.83,772.76,758.18,760.35,777.53,-55.66,-886.23,498.54,-1.45,-0.37,-1.21
27678,816.26,772.77,758.11,760.18,776.83,-60.06,-878.42,514.65,-4.47,4.59,0.55
27709,813.25,772.95,758.11,759.96,776.07,-46.39,-874.02,489.26,-3.11,2.37,-0.68
27740,812.34,773.01,758.04,759.85,775.81,-54.69,-900.39,487.79,-1.09,-0.95,-2.69
27771,811.78,772.99,758.10,759.99,775.71,-72.27,-905.27,483.40,1.40,1.98,0.64
27802,810.11,773.13,758.14,760.05,775.36,-36.62,-872.56,522.46,-0.21,-2.17,1.05
27833,809.22,773.05,758.16,760.06,775.12,-58.59,-894.53,495.61,-2.14,1.92,1.97
27864,808.45,773.15,758.26,760.18,775.01,-63.96,-906.25,490.23,-3.25,1.05,-3.21
27895,806.78,773.56,758.34,760.34,774.75,-46.39,-869.63,523.44,-5.21,-0.11,-1.35
27926,804.61,774.00,758.52,760.77,774.48,-61.52,-910.16,466.80,-2.95,-0.40,-2.37
27957,803.83,774.28,758.86,761.47,774.61,-41.50,-894.04,491.21,6.69,-3.70,-1.58
27988,806.00,774.58,759.13,762.27,775.49,-54.20,-884.28,492.19,10.04,-0.58,-2.31
28019,807.75,774.96,759.58,763.17,776.37,-48.83,-883.30,500.98,5.59,-3.27,-0.79
28050,808.90,775.57,759.97,763.80,777.06,-48.83,-886.23,498.05,8.46,-0.56,-2.53
28080,809.47,775.98,760.32,764.27,777.51,-54.20,-888.67,506.35,2.98,-1.70,-2.15
28110,808.68,776.34,760.53,764.50,777.51,-41.50,-890.62,509.77,0.42,-0.34,-1.13
28141,807.87,776.40,760.73,764.76,777.44,-44.92,-872.07,522.95,-6.45,4.15,-1.51
28171,806.05,776.71,761.01,765.59,777.34,-51.27,-892.58,504.39,-7.69,2.88,-4.72
28201,803.05,777.02,761.19,766.31,776.89,-42.48,-894.04,497.56,-5.80,1.66,-2.97
28233,800.52,777.29,761.58,766.75,776.54,-36.13,-900.88,489.26,-0.76,0.40,-0.15
28263,797.65,777.27,761.96,766.95,775.96,-61.04,-885.74,495.12,0.08,-3.85,-2.56
28294,794.37,777.37,762.40,767.19,775.34,-43.95,-883.79,501.95,-0.01,-2.05,-2.23
28324,792.32,777.41,762.57,767.42,774.93,-48.83,-904.30,502.44,0.53,-0.17,-0.50
28355,790.91,777.35,762.79,767.51,774.64,-49.32,-902.34,507.81,3.94,-0.83,-0.44
28386,789.09,777.19,762.94,767.42,774.16,-42.97,-885.25,488.77,0.31,-2.08,-2.34
28416,787.07,776.89,763.04,767.28,773.57,-53.71,-895.02,501.46,-0.28,-3.67,0.41
28447,785.01,776.32,762.97,766.90,772.80,-37.11,-891.60,498.05,-1.66,-1.49,0.91
28478,781.32,775.60,762.84,766.72,771.62,-48.83,-902.34,502.93,-13.08,-1.21,0.63
28509,775.65,774.85,762.82,766.70,770.00,-52.73,-873.54,500.98,-13.49,2.80,1.62
28540,772.85,774.63,762.60,766.52,769.15,-19.53,-871.58,507.81,-4.09,-1.37,-0.80
28571,775.04,775.08,762.60,766.23,769.74,-72.27,-899.41,478.03,5.42,0.89,1.35
28602,777.14,775.81,762.84,766.43,770.55,-67.38,-910.16,461.91,3.89,-4.27,-4.94
28633,777.94,776.33,762.67,766.22,770.79,-53.71,-878.42,513.67,2.51,2.27,1.13
28664,781.00,776.30,762.06,765.26,771.16,-71.29,-897.46,492.19,-1.34,0.01,2.30
28695,784.29,776.32,762.39,765.61,772.15,-66.41,-913.57,460.45,4.17,-2.24,1.22
28726,785.08,776.45,762.39,765.91,772.46,-53.22,-910.64,493.16,7.69,-4.31,-0.97
28757,788.74,776.47,761.84,765.13,773.05,-23.93,-875.00,523.93,3.94,-2.11,3.85
28788,793.42,776.23,761.18,764.34,773.79,-54.20,-916.50,472.66,-6.09,1.26,0.66
28819,797.39,776.31,761.02,764.41,774.78,-44.92,-896.48,476.56,2.95,-1.38,-0.44
28850,803.14,776.54,760.94,763.86,776.12,-64.94,-898.93,464.84,0.95,2.82,0.24
28880,808.27,776.61,760.47,763.03,777.09,-41.99,-887.70,528.32,-5.62,4.12,-0.88
28911,811.62,776.64,759.82,762.59,777.67,-44.43,-891.11,485.35,-5.07,-0.27,0.95
28942,816.03,776.76,759.66,762.92,778.84,-56.15,-920.90,473.63,-0.20,-0.27,-0.05
28973,816.48,776.79,759.72,763.01,779.00,-62.99,-904.79,469.73,-2.79,3.06,-3.72
29004,815.16,776.97,759.84,763.30,778.82,-57.13,-872.07,506.84,-1.34,-0.09,-2.26
29035,816.06,777.19,760.00,763.57,779.20,-44.92,-893.07,477.54,1.28,0.70,-2.86
29066,816.86,777.24,760.08,763.76,779.49,-68.36,-919.92,474.61,1.55,0.64,0.56
29097,815.63,777.20,759.98,763.79,779.15,-55.18,-848.63,518.55,1.01,3.15,-1.65
29128,817.49,777.16,759.87,763.53,779.51,-38.57,-914.06,485.84,1.43,1.22,0.37
29159,818.46,776.85,759.74,762.80,779.46,-30.76,-888.67,479.98,1.06,-0.03,-0.78
29190,820.01,776.34,759.25,761.33,779.23,-35.64,-883.79,506.84,-3.09,-0.61,4.53
29221,825.37,776.03,758.86,760.32,780.14,-86.91,-902.83,467.29,0.56,-1.50,2.51
29252,829.67,775.85,758.58,759.69,780.95,-60.55,-899.90,489.75,-6.44,2.04,1.92
29283,832.05,775.60,758.58,759.93,781.54,-74.71,-912.11,484.37,0.57,3.87,0.69
29314,831.11,775.24,758.53,760.48,781.34,-50.29,-886.23,496.09,5.24,0.48,0.86
29345,830.91,775.01,758.64,760.75,781.33,-62.99,-900.39,478.52,3.18,-0.37,-0.83
29376,831.47,775.02,758.72,761.03,781.56,-58.11,-872.07,519.04,3.16,-1.43,0.73
29407,832.17,775.15,758.79,761.09,781.80,-68.36,-893.07,484.37,-0.47,-0.12,-1.50
29438,832.86,775.32,758.92,761.19,782.07,-54.69,-895.51,482.91,-1.66,0.11,-0.58
29469,832.79,775.32,758.83,761.15,782.02,-75.68,-878.91,501.95,-0.34,-0.24,-4.29
29500,833.44,775.37,758.74,760.92,782.12,-53.71,-893.07,489.26,-1.12,3.47,-1.79
29531,833.61,775.49,758.77,760.81,782.17,-66.41,-894.04,498.54,-2.06,1.62,-0.05
29562,833.32,775.64,758.69,760.40,782.01,-62.01,-880.86,500.98,-5.66,0.73,-1.44
29593,833.33,775.73,758.61,760.22,781.97,-44.43,-891.60,483.89,-3.60,0.79,-0.59
29624,833.05,775.51,758.57,760.23,781.84,-41.99,-886.23,489.26,0.08,-2.62,1.69
29654,831.68,775.37,758.66,761.01,781.68,-60.55,-900.39,476.56,5.93,-2.10,-1.09
29685,829.18,775.31,758.84,761.54,781.22,-53.22,-894.53,512.70,5.70,-0.73,-0.45
29715,827.88,775.25,758.84,761.65,780.91,-57.13,-880.37,504.39,0.08,1.07,-2.88
29745,826.65,775.23,758.87,761.58,780.58,-55.66,-886.23,494.14,0.55,1.67,-3.26
29776,825.33,775.37,758.87,761.77,780.34,-41.50,-887.70,487.30,-0.40,1.56,-1.11
29807,822.42,775.47,759.00,762.02,779.73,-52.73,-886.72,492.68,-0.47,-1.15,-4.96
29837,820.57,775.45,759.15,762.24,779.35,-56.64,-891.11,503.91,-1.55,-1.18,-3.47
29868,818.84,775.46,759.19,762.28,778.94,-51.76,-892.09,502.44,1.53,-1.63,-0.56
29899,815.91,775.37,759.33,762.32,778.23,-49.32,-895.51,502.44,0.01,1.16,0.32
29929,813.84,775.35,759.32,762.40,777.73,-52.73,-879.88,504.88,0.26,-0.50,-3.91
29960,810.56,775.37,759.38,762.42,776.93,-57.13,-896.97,496.09,-3.96,-1.31,-1.08
29991,805.97,775.21,759.53,762.22,775.73,-47.36,-891.11,496.09,-4.13,0.11,0.93
30022,802.20,775.21,759.44,762.15,774.75,-41.99,-889.65,506.35,-1.88,2.91,-1.15
30053,800.41,775.24,759.37,762.11,774.28,-51.76,-896.48,495.12,-2.57,-0.93,-2.89
30084,801.00,775.21,759.40,762.30,774.48,-61.04,-887.70,500.98,2.82,-1.86,0.37
30115,802.66,775.21,759.52,762.55,774.99,-53.22,-882.32,528.81,5.57,-0.38,0.95
30146,801.34,775.18,759.67,762.79,774.75,-67.87,-888.18,476.07,-4.45,0.21,2.24
30176,796.82,775.21,759.88,762.97,773.72,-41.02,-883.79,504.39,-6.06,0.62,-0.57
30207,794.47,775.23,760.01,763.25,773.24,-43.95,-893.55,486.33,3.86,-1.68,2.37
30238,795.43,775.15,760.24,763.70,773.63,-67.87,-888.67,510.25,5.58,1.18,1.22
30272,797.84,775.28,760.73,764.29,774.54,-75.68,-883.79,517.58,7.72,-0.57,1.55
30302,798.34,775.60,761.11,764.89,774.99,-55.18,-879.39,511.72,3.00,2.17,-0.93
30333,799.21,776.09,761.72,765.55,775.64,-44.92,-888.67,519.53,6.58,-1.47,-1.17
30364,798.14,776.14,762.29,766.18,775.69,-48.34,-883.30,507.81,0.12,3.40,-4.40
30395,796.42,776.34,762.98,766.89,775.66,-48.34,-880.86,500.00,-1.79,-0.06,-3.07
30426,794.58,776.63,763.53,767.27,775.50,-57.13,-890.62,486.82,-1.50,-0.06,-2.06
30457,791.25,776.73,763.90,767.45,774.83,-62.99,-905.27,491.21,-2.11,-1.31,-1.08
30488,790.29,776.64,764.22,767.61,774.69,-57.62,-891.11,511.72,2.40,-2.31,-0.50
30519,789.24,776.73,764.70,767.98,774.66,-44.43,-887.21,498.54,-2.40,2.08,-0.73
30550,785.83,776.60,765.21,768.31,773.99,-47.36,-875.98,515.62,-4.30,-1.19,-1.29
30581,783.15,776.46,765.63,768.12,773.34,-39.06,-892.09,499.51,-4.04,2.73,-0.12
30612,781.13,776.36,766.11,768.08,772.92,-44.43,-884.28,501.95,-3.90,-0.18,-0.10
30643,778.49,776.31,766.37,767.83,772.25,-47.36,-892.58,505.86,-7.73,2.92,-2.10
30674,774.80,776.05,766.29,767.45,771.15,-36.62,-900.39,491.21,-7.03,2.34,1.42
30705,773.39,775.85,766.14,767.23,770.66,-39.06,-879.88,494.14,-1.09,-1.00,-0.25
30736,775.40,775.73,765.79,766.92,770.96,-29.30,-886.72,483.89,10.14,-3.01,2.60
30767,777.97,775.49,765.61,766.77,771.46,-39.06,-889.65,509.77,6.49,-0.60,3.56
30798,778.36,775.27,765.20,766.09,771.23,-37.11,-890.62,513.67,-0.43,-1.92,-0.13
30829,778.09,774.82,764.43,765.41,770.69,-51.27,-889.16,499.02,-5.60,1.27,2.27
30860,778.68,774.55,764.09,765.17,770.62,-55.18,-889.16,494.63,-3.15,-0.46,3.53
30890,776.47,774.71,764.16,764.96,770.08,-26.86,-896.00,500.49,-5.66,1.51,-2.57
30921,773.95,774.83,763.73,764.22,769.18,-27.83,-904.30,482.91,-10.82,2.26,-3.03
30952,774.05,775.04,763.15,764.08,769.08,-70.80,-893.55,466.80,-4.24,-1.58,0.83
30983,774.45,775.63,763.01,764.50,769.40,-51.76,-880.86,517.09,-7.82,2.69,-5.79
31014,775.87,776.68,762.62,764.53,769.93,-30.27,-839.36,514.65,4.03,2.18,-3.71
31045,779.93,777.61,761.67,763.76,770.74,-68.85,-910.64,466.80,-5.40,3.41,-2.84
31076,785.57,778.57,761.47,763.93,772.39,-18.55,-887.70,465.33,-2.56,0.80,-1.45
31107,790.13,779.63,761.79,764.27,773.95,-45.41,-900.88,458.98,4.05,-4.84,-2.53
31138,790.35,780.27,761.67,764.09,774.09,-31.74,-862.30,517.58,-0.29,4.02,-4.47
31169,793.19,780.29,760.83,763.10,774.35,-43.46,-915.04,489.26,-8.08,2.53,-0.85
31199,802.06,779.95,760.05,762.29,776.09,-62.50,-923.34,466.31,-2.36,1.19,3.31
31229,808.41,779.48,759.48,761.82,777.30,-41.99,-884.28,505.86,-4.96,4.50,0.39
31260,813.01,778.87,759.18,761.31,778.09,-44.92,-913.09,466.31,-6.02,2.08,0.88
31290,819.04,778.71,758.96,761.21,779.48,-60.06,-914.55,479.49,-4.98,3.37,2.53
31321,824.48,778.68,758.86,761.18,780.80,-46.39,-924.32,455.08,2.63,0.57,2.13
31351,827.32,778.39,758.65,761.16,781.38,-43.46,-874.51,489.75,0.95,-1.53,3.05
31382,828.60,777.99,758.45,760.66,781.43,-62.50,-912.11,453.12,-1.76,-0.06,0.22
31413,832.53,777.77,758.30,760.17,782.19,-63.48,-896.00,479.49,-4.03,2.01,1.36
31443,835.79,777.54,758.18,759.80,782.83,-63.48,-904.79,478.03,-1.60,1.84,0.98
31474,837.71,777.56,758.07,759.76,783.27,-49.32,-900.39,479.98,-1.04,-0.95,-1.34
31505,838.60,777.36,758.01,759.54,783.38,-58.59,-904.30,452.64,-2.19,-1.71,2.16
31535,839.95,777.03,757.82,759.43,783.56,-59.08,-909.67,492.19,-3.92,-0.68,3.37
31566,840.32,776.84,757.85,759.70,783.68,-92.77,-919.92,452.15,4.41,-3.18,-1.10
31597,839.06,776.49,757.88,759.88,783.33,-68.36,-913.57,471.68,4.46,1.57,0.53
31628,838.54,776.11,757.89,759.87,783.10,-69.82,-895.51,478.03,5.63,-1.76,-0.71
31659,838.84,775.94,757.95,760.05,783.19,-44.92,-896.00,485.35,2.70,0.31,1.82
31690,839.67,775.82,758.02,759.95,783.36,-60.55,-880.86,513.18,4.93,-0.89,-0.96
31721,840.31,775.83,757.95,760.04,783.53,-70.31,-930.18,461.91,4.24,-0.97,-0.34
31752,840.52,775.80,757.96,759.95,783.56,-52.73,-909.18,493.65,2.74,-0.61,-0.19
31783,839.47,775.78,757.89,759.87,783.25,-48.83,-880.86,498.54,-0.15,0.87,-1.12
31814,838.65,775.78,757.91,759.65,783.00,-54.20,-886.72,489.75,-1.42,-1.87,-1.00
31845,838.26,775.69,757.76,759.46,782.79,-46.39,-889.65,503.42,-1.92,-0.56,-0.47
31876,838.21,775.52,757.85,759.53,782.78,-52.73,-931.64,453.61,-0.97,3.79,1.82
31907,837.01,775.46,757.89,759.52,782.47,-63.96,-916.02,465.33,2.22,-1.18,1.25
31938,836.08,775.32,758.02,759.54,782.24,-57.13,-890.14,485.84,-0.42,-4.83,1.59
31969,834.25,775.10,757.98,759.59,781.73,-58.11,-873.05,515.14,0.62,-2.26,0.86
31999,831.74,774.83,758.11,759.89,781.14,-58.59,-896.00,483.40,1.96,-2.27,-1.11
32030,828.59,774.68,758.17,760.50,780.49,-51.27,-893.07,509.77,6.38,-1.15,-1.24
32061,825.87,774.68,758.33,760.66,779.89,-41.02,-883.30,520.51,0.43,-0.76,0.00
32092,823.35,774.56,758.31,760.71,779.23,-48.34,-877.93,493.16,0.95,0.67,-2.85
32123,820.92,774.60,758.33,760.83,778.67,-43.95,-916.02,488.28,0.71,-1.87,-2.09
32154,818.93,774.64,758.43,761.07,778.27,-66.41,-895.02,500.49,0.44,-0.37,1.21
32185,815.87,774.68,758.46,761.20,777.55,-51.76,-884.28,503.91,0.48,1.59,-2.04
32216,812.77,774.69,758.53,761.25,776.81,-64.45,-884.28,497.56,-3.90,1.47,-0.95
32247,810.47,774.78,758.53,761.30,776.27,-64.94,-883.30,514.65,-3.67,1.14,-3.60
32278,809.51,774.84,758.63,761.50,776.12,-44.92,-890.14,490.72,3.01,0.47,-1.98
32309,809.42,774.89,758.66,761.41,776.09,-41.99,-883.79,508.79,0.27,-0.35,-0.54
32340,808.56,774.88,758.71,761.34,775.87,-53.71,-905.27,490.72,-3.73,-0.18,0.95
32371,808.45,774.84,758.59,761.47,775.84,-39.55,-921.39,480.96,1.63,-4.44,2.75
32402,808.93,774.35,758.70,761.86,775.96,-45.90,-908.20,478.03,5.75,-7.90,6.87
32433,809.00,773.58,758.71,761.86,775.79,-57.13,-846.19,547.36,6.64,-3.95,5.34
32464,808.19,773.30,758.66,761.74,775.47,-42.48,-866.21,535.64,1.34,1.13,-0.54
32495,808.86,773.52,758.72,761.73,775.71,-33.69,-887.70,522.46,-0.32,-0.80,-1.25
32526,810.02,773.93,758.84,761.95,776.18,-64.45,-886.72,494.63,-1.02,-1.97,-0.75
32557,810.98,774.35,758.99,762.35,776.67,-40.53,-907.71,491.70,1.47,-1.87,-0.63
32588,812.41,774.61,759.37,763.09,777.37,-53.22,-893.55,500.98,7.18,-3.11,-3.98
32619,813.30,774.96,759.67,763.71,777.91,-33.20,-863.28,535.64,3.38,0.19,-0.19
32650,813.90,775.68,760.06,764.28,778.48,-52.25,-881.84,514.16,0.50,-0.40,-5.46
32681,812.95,776.12,760.52,764.93,778.63,-34.67,-920.90,504.39,0.98,2.34,-4.34
32712,811.70,776.29,760.64,765.22,778.46,-31.25,-875.49,537.11,0.73,1.53,-1.22
32743,811.06,776.54,760.81,765.41,778.46,-42.48,-870.61,518.55,0.56,1.51,-1.34
32773,810.06,776.74,761.01,765.98,778.45,-53.22,-886.72,508.30,-0.31,0.37,-3.08
32804,807.66,776.79,761.31,766.33,778.02,-40.53,-880.37,511.72,1.31,0.27,0.22
32834,806.40,776.73,761.43,766.69,777.81,-50.78,-878.91,506.35,0.40,-1.09,-1.59
32864,804.09,776.61,761.75,766.94,777.35,-49.32,-880.37,512.70,-0.18,-2.64,1.65
32895,801.50,776.62,761.97,767.20,776.82,-39.06,-892.58,503.42,-1.63,0.43,-0.47
32925,798.74,776.56,762.18,767.44,776.23,-34.67,-879.88,523.93,1.53,-0.01,0.54
32956,795.96,776.48,762.38,767.63,775.61,-53.71,-889.16,497.56,-2.30,1.24,-1.58
32987,792.10,776.37,762.66,767.83,774.74,-48.83,-909.18,485.84,-3.33,-1.33,0.44
33018,790.71,776.33,762.84,768.01,774.47,-50.78,-889.16,519.04,3.24,-2.21,-1.31
33049,788.79,775.99,762.98,767.91,773.92,-53.22,-874.51,514.16,-1.31,0.33,0.21
33079,784.52,775.70,763.07,767.69,772.75,-55.66,-864.75,512.21,-7.60,-0.08,-1.42
33110,783.22,775.71,763.18,767.65,772.44,-36.13,-897.46,505.86,0.21,-1.05,-0.63
33141,782.69,775.46,763.21,767.33,772.17,-53.22,-891.60,499.02,-2.82,0.94,0.85
33172,779.77,775.24,763.17,767.04,771.31,-44.92,-892.58,504.39,-8.71,0.15,-1.65
33203,779.47,775.20,762.74,766.12,770.88,-54.20,-882.81,515.14,-6.02,2.14,-1.02
33234,779.22,775.24,762.37,765.47,770.58,-68.85,-894.53,500.00,-9.94,3.97,-0.47
33265,779.05,775.74,762.75,766.15,770.92,-52.73,-901.86,515.62,0.99,-4.75,-0.47
33296,780.93,776.10,762.85,766.47,771.59,-32.71,-877.44,500.00,9.12,0.95,0.34
33327,784.15,776.25,762.58,765.42,772.10,-51.76,-872.56,521.97,-4.34,5.72,0.79
33358,788.88,776.51,762.19,764.59,773.04,-42.48,-935.06,463.87,-2.95,-0.94,-0.62
33389,793.01,776.65,761.88,763.87,773.85,-63.48,-888.67,510.74,-1.14,-1.11,-0.92
33420,795.60,776.85,761.34,762.78,774.14,-38.09,-873.54,513.18,-9.68,7.50,-3.75
33451,801.16,776.89,760.64,761.82,775.13,-43.95,-923.83,486.33,-7.14,4.39,-2.21
33482,805.90,776.33,760.30,761.42,775.99,-50.78,-889.16,473.63,-0.04,-2.11,4.02
33513,808.87,776.09,760.20,761.36,776.63,-39.55,-887.21,483.40,2.96,-1.92,2.44
33544,814.04,775.84,759.85,761.14,777.71,-31.25,-905.76,470.21,-0.50,-3.12,0.31
33575,818.08,775.78,759.45,760.80,778.53,-55.18,-874.51,509.77,-2.98,1.94,1.22
33606,822.88,775.87,759.01,760.24,779.50,-50.78,-880.86,492.68,-5.15,2.52,-0.92
33637,828.27,775.91,758.65,759.80,780.66,-45.90,-894.04,469.24,-5.45,3.37,-0.74
33668,831.36,775.81,758.48,759.85,781.38,-64.94,-908.20,476.07,-2.13,1.73,0.60
33699,831.77,775.73,758.46,759.76,781.43,-50.29,-903.81,501.46,-0.72,4.16,-4.44
33730,831.73,775.61,758.32,759.82,781.37,-61.52,-901.86,481.45,-1.15,1.98,0.63
33761,832.17,775.55,758.14,759.67,781.38,-55.66,-900.88,476.56,-1.24,-0.92,-0.91
33792,833.36,775.54,758.17,759.82,781.72,-64.45,-894.04,490.23,2.00,-3.14,-1.05
33823,834.40,775.43,758.17,760.09,782.02,-45.41,-910.16,465.33,6.31,-3.36,1.67
33854,835.40,775.31,758.26,760.50,782.37,-58.59,-877.93,503.91,6.24,0.47,1.65
33885,835.85,775.45,758.29,760.82,782.60,-41.99,-918.46,488.77,1.08,-0.89,-2.25
33916,836.40,775.55,758.40,761.16,782.88,-42.48,-884.77,502.93,4.73,-3.29,1.24
33947,837.99,775.65,758.51,761.69,783.46,-65.43,-896.97,503.42,2.76,1.76,-3.73
33978,837.51,775.92,758.78,762.02,783.56,-45.90,-893.55,506.84,0.38,2.68,-2.08
34009,836.71,776.12,758.92,762.44,783.55,-59.08,-905.27,473.14,0.93,1.02,0.74
34040,835.42,776.38,759.10,762.75,783.41,-36.13,-896.00,513.67,0.76,-2.66,-3.12
34071,833.45,776.49,759.20,763.15,783.07,-65.43,-905.76,489.75,0.19,0.50,-0.66
34102,830.77,776.55,759.43,763.50,782.56,-36.62,-888.18,499.02,1.47,-2.76,-1.36
34134,827.93,776.60,759.54,763.65,781.93,-54.20,-898.44,494.14,-2.41,-1.77,-0.27
34165,825.69,776.57,759.63,763.66,781.39,-51.27,-886.72,499.02,0.42,-1.94,0.37
34196,824.65,776.49,759.58,763.41,781.03,-66.41,-887.21,497.07,-1.82,1.64,-0.47
34227,823.41,776.36,759.55,763.26,780.64,-58.59,-902.34,497.56,1.05,0.04,-1.65
34258,822.33,776.36,759.56,763.07,780.33,-49.32,-879.88,490.72,-0.65,0.96,-0.03
34289,821.84,776.46,759.49,763.13,780.23,-50.78,-897.46,475.10,0.85,0.23,0.97
34320,820.28,776.50,759.62,763.11,779.88,-50.29,-896.00,504.39,-0.18,0.37,-0.56
34350,818.02,776.50,759.48,762.90,779.23,-50.78,-878.42,494.14,-2.36,3.29,-1.98
34381,815.69,776.47,759.59,762.75,778.63,-46.39,-894.04,485.35,-1.70,2.22,-0.62
34411,814.40,776.53,759.55,762.50,778.24,-45.90,-895.02,495.61,-0.97,-0.23,-2.00
34441,813.31,776.45,759.38,762.30,777.86,-57.62,-898.44,482.42,0.25,2.56,-0.87
34472,813.04,776.34,759.35,762.09,777.70,-54.20,-881.84,501.95,0.73,1.76,-1.65
34503,812.72,776.25,759.25,761.91,777.53,-45.90,-881.35,492.19,-0.43,0.64,-0.89
34534,811.13,776.17,759.19,761.64,777.03,-41.99,-909.18,498.54,-4.46,-0.45,-0.89
34564,807.77,775.87,759.17,761.57,776.09,-63.96,-901.37,482.91,-4.38,-1.21,-0.47
34595,806.08,775.65,759.19,761.80,775.68,-44.43,-881.84,508.30,4.37,0.34,-0.12
34626,806.73,775.54,759.26,761.90,775.86,-38.09,-896.97,520.02,5.36,0.50,-0.74
34656,806.17,775.66,759.33,762.15,775.83,-35.16,-893.07,492.68,2.11,-1.51,-0.58
34687,804.48,775.78,759.47,762.55,775.57,-55.66,-901.37,502.93,-0.09,-1.27,-0.59
34718,802.80,775.87,759.59,762.74,775.25,-33.69,-896.48,493.16,3.65,-1.51,0.22
34749,803.44,775.89,759.71,762.70,775.43,-38.09,-888.67,505.37,0.38,-1.19,-2.02
34780,802.60,775.84,759.77,762.85,775.27,-46.39,-910.64,492.19,-3.65,3.30,2.62
34811,802.50,775.77,759.95,763.25,775.37,-38.09,-883.79,492.19,6.00,2.74,1.88
34842,804.62,775.80,760.20,763.72,776.08,-38.57,-878.91,513.67,8.95,-2.16,0.52
34873,805.01,775.94,760.35,763.93,776.31,-55.18,-895.02,489.26,0.27,-2.44,-0.95
34904,803.91,776.15,760.68,764.34,776.27,-43.46,-876.46,496.09,3.60,-0.46,0.92
34935,802.79,776.39,760.85,764.92,776.24,-53.22,-908.20,487.79,2.69,-1.62,-2.75
34966,802.30,776.63,761.26,765.33,776.38,-48.34,-873.54,522.46,0.98,3.19,-1.66
34997,800.94,776.74,761.44,765.47,776.15,-41.99,-893.55,500.00,-0.74,2.83,-3.69
35028,801.50,776.95,761.78,765.94,776.54,-53.22,-896.00,501.46,5.56,-2.05,-3.50
35059,801.30,777.18,762.00,766.02,776.63,-39.55,-870.61,509.77,-0.50,1.48,-2.23
35090,800.76,777.01,762.04,766.03,776.46,-45.41,-896.97,497.07,1.31,2.65,2.04
35121,798.97,776.88,762.24,766.09,776.05,-42.48,-883.79,499.51,-1.16,0.80,-2.13
35152,795.71,776.58,762.20,766.09,775.15,-55.66,-889.65,508.30,-2.39,1.96,1.66
35183,792.94,776.24,762.06,765.75,774.25,-41.02,-874.51,515.14,-2.72,-0.27,1.25
35214,792.22,775.92,761.96,765.80,773.97,-54.69,-897.95,490.72,-0.62,1.12,0.63
35245,789.85,775.82,762.31,766.21,773.55,-39.55,-875.49,509.77,1.10,-0.23,1.86
35276,789.36,776.03,762.49,766.55,773.60,-25.39,-870.12,523.44,3.63,-2.32,0.95
35307,791.67,776.36,762.73,767.01,774.44,-30.76,-892.09,485.35,7.82,0.78,-0.25
35338,794.84,776.87,762.99,767.48,775.54,-28.81,-853.03,537.11,11.46,-2.59,-1.13
35369,798.10,777.51,763.14,767.53,776.57,-52.73,-890.14,517.09,1.80,-0.85,-2.83
35400,799.16,777.81,763.18,767.43,776.89,-40.53,-898.44,511.23,1.46,0.50,-2.12
35431,800.49,778.02,763.16,767.43,777.27,-41.02,-888.67,509.28,1.06,1.08,-2.11
35462,802.41,778.20,763.06,767.41,777.77,-49.80,-883.79,527.34,2.05,-0.69,0.97
35493,805.59,778.33,763.05,767.24,778.55,-33.20,-875.49,525.88,4.60,-3.68,0.42
35524,810.55,778.65,762.82,766.89,779.73,-35.64,-870.61,525.88,4.72,-2.07,-0.54
35555,816.11,778.85,762.62,766.43,781.00,-41.02,-882.81,528.32,4.15,-1.47,-1.36
35586,819.81,779.21,762.49,766.17,781.92,-43.95,-871.09,529.79,3.27,-0.96,-0.75
35617,822.08,779.27,762.41,766.01,782.44,-48.34,-876.95,508.79,0.09,0.37,-2.77
35648,822.64,779.59,762.34,765.91,782.62,-46.88,-875.98,530.27,1.89,1.21,-1.67
35679,821.88,779.50,762.32,765.85,782.38,-45.41,-886.72,527.83,-0.41,0.34,-2.04
35710,819.62,779.41,762.22,765.76,781.75,-38.57,-871.58,523.44,-3.02,2.40,-1.21
35741,815.90,779.32,762.14,765.57,780.73,-41.50,-879.39,515.62,-3.75,-0.27,-0.79
35772,810.76,779.02,762.09,765.47,779.33,-49.80,-899.41,513.18,-5.86,4.35,-4.50
35803,802.93,778.37,761.85,765.19,777.09,-41.99,-888.67,501.95,-7.47,3.85,-0.21
35834,792.62,777.30,761.65,764.66,774.06,-41.50,-898.44,495.61,-15.11,3.11,-0.88
35865,779.96,775.51,761.03,763.59,770.02,-76.66,-922.85,478.52,-26.47,8.25,-3.83
35895,767.80,773.38,760.32,762.23,765.93,-41.02,-938.48,469.24,-30.79,13.18,-2.52
35926,759.53,771.81,759.14,760.20,762.67,12.70,-952.64,407.23,-33.44,1.05,-4.83
35956,756.15,770.63,757.88,758.22,760.72,104.49,-937.01,400.88,-42.48,16.63,-20.47
35987,755.33,769.78,757.18,757.80,760.02,568.36,-1003.42,554.69,-26.67,53.08,-37.62
36017,755.39,769.34,757.06,757.72,759.88,421.39,-1065.92,518.07,-5.44,52.63,-6.72
36047,754.94,769.06,756.96,757.74,759.67,238.28,-887.21,513.18,17.91,78.85,15.76
36078,754.62,768.70,756.81,757.57,759.43,191.89,-836.91,484.86,27.15,90.75,-5.85
36109,754.39,768.42,756.74,757.53,759.27,135.25,-834.96,468.26,24.08,105.58,-24.24
36140,754.32,768.27,756.77,757.54,759.22,71.78,-878.42,432.13,26.44,112.98,-31.15
36170,754.22,768.12,756.73,757.59,759.17,-9.77,-819.82,458.98,25.72,115.39,-41.25
36201,754.09,768.03,756.71,757.48,759.08,-68.85,-879.88,447.75,25.71,107.15,-48.08
36232,754.03,767.99,756.71,757.49,759.06,-55.18,-832.52,443.36,20.79,94.42,-55.03
36263,753.92,767.90,756.70,757.48,759.00,-59.57,-934.57,487.30,16.60,86.92,-44.50
36293,753.88,767.88,756.67,757.45,758.97,-8.79,-851.07,494.14,20.51,81.34,-49.79
36325,753.86,767.81,756.77,757.50,758.99,14.16,-865.72,492.19,16.77,93.76,-65.97
36356,753.79,767.77,756.69,757.49,758.94,-20.51,-970.21,474.61,17.21,105.36,-75.46
36386,753.68,767.70,756.68,757.50,758.89,-33.20,-1016.11,423.34,23.70,116.75,-72.66
36417,753.66,767.68,756.63,757.53,758.87,-44.43,-934.08,378.91,22.40,131.73,-79.41
36449,753.63,767.65,756.66,757.47,758.86,-60.55,-942.38,389.65,14.64,143.94,-91.00
36479,753.54,767.49,756.63,757.52,758.80,-62.50,-916.02,384.28,15.30,153.98,-99.44
36510,753.45,767.51,756.65,757.47,758.77,-59.57,-979.00,357.91,8.14,165.56,-96.76
36541,753.44,767.46,756.70,757.55,758.79,-160.16,-940.43,341.80,20.93,164.17,-82.37
36573,753.37,767.46,756.61,757.59,758.76,-210.94,-896.97,281.74,12.89,160.10,-81.34
36603,753.32,767.36,756.65,757.58,758.73,-287.11,-938.48,267.58,14.55,143.85,-81.14
36634,753.37,767.30,756.67,757.64,758.74,-348.14,-955.57,268.07,1.02,136.05,-60.52
36665,753.28,767.34,756.65,757.67,758.73,-368.16,-878.42,245.61,1.82,122.63,-46.26
36697,753.33,767.37,756.64,757.58,758.73,-307.62,-928.71,298.34,-8.94,121.81,-45.07
36727,753.15,767.33,756.71,757.61,758.70,-199.22,-916.99,272.95,-6.19,122.04,-52.98
36758,753.09,767.24,756.63,757.62,758.65,-146.48,-884.28,233.89,-11.14,118.02,-67.18
36789,753.02,767.26,756.65,757.67,758.65,-111.82,-929.20,256.35,-23.66,100.82,-76.22
36821,752.90,767.25,756.61,757.67,758.61,-55.66,-939.94,283.69,-23.82,66.90,-72.37
36851,753.17,767.12,756.66,757.88,758.71,-501.46,-860.84,344.73,-14.95,44.31,-68.81
36882,755.92,767.07,756.84,758.95,759.69,-359.86,-734.86,403.32,-1.95,0.98,-59.73
36913,765.00,767.95,757.14,760.29,762.60,-86.91,-801.76,772.95,136.60,-11.79,-11.94
36944,774.87,768.83,757.31,761.66,765.67,40.53,-912.11,517.09,31.25,-21.46,-16.06
36975,778.95,769.49,757.64,763.75,767.45,-81.54,-906.25,506.84,29.61,-14.41,-0.02
37006,783.38,770.47,758.29,766.71,769.71,-92.77,-934.57,416.50,20.34,-5.92,-5.62
37037,792.80,771.34,759.03,770.33,773.37,-48.34,-957.03,434.08,15.08,-4.54,-2.70
37068,806.15,772.57,760.31,774.81,778.46,-40.53,-869.14,512.70,21.56,-9.82,-2.49
37099,818.68,773.63,761.95,779.34,783.40,-36.62,-860.84,544.92,29.30,-3.38,-0.18
37130,825.60,773.86,763.39,783.02,786.47,-28.81,-882.32,524.41,14.14,-4.20,-0.16
37161,827.14,773.76,764.49,785.38,787.69,-38.09,-872.56,551.76,0.49,-1.92,-1.69
37192,823.83,773.55,765.46,787.31,787.54,-36.13,-877.93,515.14,-3.89,-1.12,-2.08
37223,818.12,773.10,766.36,788.38,786.49,-21.00,-874.51,535.64,-3.97,0.62,-3.05
37254,812.61,772.91,766.87,789.21,785.40,-21.00,-865.23,541.99,-5.69,3.91,-1.27
37285,809.30,772.92,767.33,789.76,784.83,-36.13,-881.84,528.81,-7.97,5.47,0.44
37316,807.56,773.15,767.86,790.31,784.72,-22.95,-867.19,530.27,-2.28,3.99,-4.11
37347,806.85,773.71,768.26,791.31,785.04,-39.55,-881.84,514.65,-1.61,2.92,-5.15
37378,805.32,774.21,768.71,792.01,785.06,-38.09,-878.42,529.30,-3.21,5.47,-3.85
37409,802.66,774.88,769.19,793.00,784.93,-40.53,-881.84,493.65,-6.08,7.89,-7.73
37439,798.76,775.41,769.66,794.14,784.49,-34.18,-903.32,505.37,-8.82,4.30,-7.05
37470,793.96,775.81,770.10,795.33,783.80,-27.34,-888.67,509.77,-5.81,4.53,-10.37
37500,788.96,776.06,770.72,796.89,783.16,-22.95,-906.74,502.44,-5.66,5.72,-8.53
37530,784.39,776.25,771.36,798.58,782.65,-23.93,-904.30,503.91,-7.37,6.05,-9.82
37561,779.95,776.26,772.14,800.54,782.22,-29.79,-895.02,490.72,-4.05,7.76,-9.27
37595,774.47,776.22,773.01,802.42,781.53,-31.25,-913.57,503.91,-9.12,6.59,-11.56
37626,768.73,776.10,774.01,804.04,780.72,-14.65,-903.81,521.97,-5.89,7.37,-11.59
37656,763.32,775.99,774.94,806.00,780.06,-11.23,-922.85,488.77,-15.21,3.73,-11.53
37687,759.18,775.72,776.11,807.88,779.72,-36.13,-891.60,458.50,-13.57,1.24,-13.63
37718,755.93,775.24,777.45,808.54,779.29,-28.32,-956.05,560.55,-16.81,-9.46,-11.68
37749,754.24,774.56,778.68,807.75,778.81,-24.90,-939.45,635.74,-16.31,-11.86,-21.16
37779,753.62,773.75,779.66,805.06,778.02,72.27,-922.85,524.41,-38.57,-33.22,-27.79
37810,753.12,772.85,780.35,801.10,776.86,-21.48,-1008.79,477.54,-42.54,-29.47,-39.06
37841,752.86,772.23,780.37,795.58,775.26,-7.32,-1046.39,533.69,-13.10,-26.91,-72.15
37872,752.75,771.59,779.08,786.80,772.55,26.37,-1061.04,501.95,-30.73,-45.69,-89.24
37903,752.52,770.94,775.66,777.07,769.05,40.53,-1390.14,497.07,-21.51,-31.66,-113.98
37934,752.38,770.15,771.76,770.83,766.28,69.82,-1648.44,268.55,43.88,-51.75,-168.04
37966,752.48,768.90,767.35,765.05,763.45,170.90,-1278.81,285.64,5.07,-34.31,-224.37
37998,752.39,768.05,762.81,760.52,760.94,287.11,-1046.39,336.91,-31.33,-18.30,-250.14
38029,752.34,766.92,758.35,758.76,759.09,4.39,-1504.88,448.24,-17.14,17.67,-250.14
38060,751.91,766.27,756.90,758.39,758.36,-235.35,-1178.22,316.89,32.73,28.34,-250.14
38090,752.35,766.19,756.92,758.22,758.42,-285.16,-339.84,-46.39,119.15,51.89,-51.34
38122,752.11,766.01,756.74,758.11,758.24,-641.60,-594.24,228.52,-60.57,85.48,56.40
38153,752.14,765.93,756.74,758.10,758.23,-317.38,-437.01,239.26,-18.02,56.53,87.94
38183,752.08,765.71,756.64,758.00,758.11,-204.59,-501.95,405.27,-33.79,104.08,166.89
38214,752.02,765.69,756.54,758.01,758.07,-96.19,-521.00,451.17,-23.15,128.35,177.77
38246,751.91,765.67,756.50,757.89,757.99,-89.84,-700.20,458.01,-34.57,115.93,177.13
38277,751.95,765.65,756.55,757.87,758.00,75.68,-965.33,561.04,-66.58,85.17,174.87
38307,751.85,765.69,756.44,757.88,757.97,200.68,-1172.85,641.11,-73.33,57.20,185.56
38338,751.80,765.73,756.52,757.87,757.98,252.44,-1236.82,646.48,-72.76,28.58,174.25
38370,751.86,765.85,756.52,757.88,758.03,295.41,-1295.41,684.08,-82.58,24.32,160.87
38400,751.75,765.81,756.51,757.96,758.01,310.55,-1274.90,708.50,-62.42,37.94,146.44
38431,751.70,765.80,756.49,757.88,757.97,280.27,-1219.24,662.11,-59.83,39.35,114.93
38462,751.63,765.68,756.45,757.94,757.93,390.14,-1123.05,651.37,-69.36,23.28,73.98
38494,751.65,765.66,756.40,757.94,757.91,541.50,-1147.46,644.53,-72.16,0.91,32.73
38524,751.67,765.58,756.39,757.92,757.89,804.69,-1040.53,569.34,-55.94,-12.38,13.58
38555,751.62,765.49,756.32,757.84,757.82,1167.48,-906.25,532.23,-48.95,1.43,26.01
38586,751.96,765.45,756.35,757.71,757.87,1999.94,-2000.00,1946.29,-250.14,9.68,-36.69
38617,754.40,766.66,756.23,757.66,758.74,-609.86,-2000.00,240.72,-250.14,136.97,-53.79
38648,764.75,766.44,756.42,757.80,761.35,-513.18,-322.75,674.80,108.76,-130.81,-96.99
38679,789.79,771.11,756.60,758.64,769.03,73.24,-1075.68,198.24,229.65,-20.41,-141.12
38710,820.92,774.39,756.87,759.89,778.02,-57.13,-666.02,779.30,132.47,-52.25,-13.17
38741,828.57,775.54,756.98,760.49,780.40,-164.55,-945.80,635.74,16.85,-9.02,-2.11
38772,830.82,776.36,757.04,760.96,781.29,-105.96,-955.08,453.12,0.26,4.68,-2.34
38803,834.93,777.37,757.15,761.92,782.84,-37.60,-935.55,404.30,7.11,1.12,0.12
38834,843.40,778.69,757.30,763.43,785.71,-49.32,-916.50,450.68,22.90,-7.07,-4.14
38865,853.09,780.46,757.61,764.95,789.03,-52.25,-908.69,492.68,19.42,-9.82,-5.40
38896,859.93,782.05,757.92,766.76,791.66,-61.52,-918.46,468.75,20.56,-3.71,-5.01
38927,863.23,783.29,758.25,768.47,793.31,-41.50,-896.48,479.00,12.53,1.47,-2.44
38957,862.12,784.22,758.42,769.51,793.57,-39.06,-893.07,499.51,4.14,2.18,-5.06
38988,856.95,784.99,758.67,770.36,792.74,-49.32,-885.74,476.56,1.59,1.98,-4.53
39018,849.44,785.84,758.89,771.49,791.41,-38.57,-892.09,478.03,-0.37,2.24,-3.15
39049,842.17,786.54,759.16,772.83,790.18,-41.50,-887.70,486.33,5.02,2.69,-7.52
39079,837.02,787.44,759.69,774.33,789.62,-29.30,-904.30,476.07,9.89,0.44,-4.89
39110,833.42,788.33,760.17,776.06,789.49,-27.34,-883.79,491.21,7.18,3.89,-5.21
39141,830.60,789.28,760.69,777.36,789.48,-31.74,-902.34,501.95,4.83,0.73,-4.56
39171,827.36,790.18,761.10,778.30,789.23,-37.60,-885.25,508.30,1.24,0.50,-3.53
39202,823.38,790.74,761.45,779.26,788.71,-40.53,-885.74,509.77,4.11,1.69,-3.98
39233,818.25,790.94,762.00,780.28,787.87,-25.88,-882.81,497.07,4.26,3.75,-2.97
39263,812.39,790.81,762.49,781.58,786.82,-36.13,-892.09,492.19,5.92,1.63,-4.24
39294,807.39,790.68,763.17,783.22,786.12,-24.41,-861.33,525.39,4.69,-0.31,-4.68
39325,802.65,790.72,763.98,784.78,785.53,-21.00,-857.91,520.51,-5.88,4.63,-7.25
39356,797.41,790.87,764.72,786.31,784.83,-26.37,-903.81,510.74,-4.36,5.09,-3.79
39387,792.33,791.03,765.42,787.94,784.18,-18.07,-900.88,500.98,-3.15,5.79,-5.46
39418,787.47,791.18,766.19,789.32,783.54,-15.14,-895.02,501.95,-9.27,4.21,-4.24
39449,782.32,791.19,767.03,790.68,782.80,-33.69,-894.53,493.16,-5.75,3.50,-1.69
39480,776.45,790.70,767.70,791.39,781.56,-22.95,-895.51,488.77,-9.88,10.09,-3.91
39511,768.96,789.14,767.79,789.50,778.85,-8.79,-915.53,457.03,-19.63,6.11,-6.53
39542,761.26,785.79,767.27,785.70,775.00,-34.18,-907.23,490.23,-27.27,2.14,-1.27
39573,755.77,780.30,766.68,780.36,770.78,-174.80,-982.42,518.07,-26.74,-18.29,-14.07
39604,754.03,775.32,765.46,773.96,767.19,-187.50,-1054.20,547.36,-22.83,-50.44,-46.63
39635,753.30,771.65,763.32,766.82,763.77,-57.13,-1103.03,502.44,-55.76,-49.92,-72.63
39666,752.89,769.96,760.51,762.16,761.38,-60.55,-1487.30,354.49,-57.44,-34.56,-103.24
39697,752.78,769.44,758.27,759.78,760.07,30.27,-934.08,309.08,20.43,-44.99,-113.44
39728,752.68,768.73,757.10,758.73,759.31,158.69,-1132.81,480.47,-19.02,-32.03,-106.11
39759,752.57,768.23,756.64,758.33,758.94,-500.00,-490.72,354.49,32.72,1.63,-46.45
39790,752.55,767.79,756.54,758.16,758.76,-524.90,-561.52,350.10,29.15,73.33,35.34
39821,752.51,767.62,756.52,758.16,758.70,-426.27,-475.59,297.85,30.48,75.41,54.85
39852,752.39,767.34,756.49,758.08,758.58,-360.84,-638.67,318.36,23.42,67.77,79.89
39883,752.25,767.31,756.48,758.06,758.53,-310.55,-704.59,341.31,3.89,40.70,83.50
39914,752.20,767.18,756.44,757.99,758.45,-211.43,-888.18,460.45,-15.68,18.53,102.92
39945,752.18,767.12,756.42,757.93,758.41,-138.18,-1051.27,481.45,-20.89,-3.26,128.04
39976,752.12,766.92,756.43,757.88,758.34,-108.40,-1041.02,396.97,-18.98,-42.22,131.92
40007,752.02,766.90,756.47,758.01,758.35,-18.07,-1113.77,331.54,-25.44,-98.00,116.11
40038,751.94,766.76,756.42,757.90,758.25,199.22,-1196.29,284.18,-41.71,-136.43,87.79
40069,751.98,766.61,756.43,757.87,758.22,355.96,-1420.41,182.62,-37.33,-145.47,106.17
40100,752.13,766.43,756.46,757.89,758.23,889.16,-1388.18,-53.22,-86.88,-144.31,41.07
40131,752.21,766.66,756.40,758.42,758.42,1229.49,-1669.92,141.11,7.90,-139.19,-56.39
40162,752.62,766.48,756.58,758.43,758.53,829.10,-531.74,1035.64,120.66,-60.96,-8.34
40193,753.34,767.28,756.70,759.02,759.08,-893.07,-1115.72,284.18,75.37,1.50,13.85
40224,756.14,768.52,756.98,760.04,760.42,90.33,-1036.62,293.46,44.76,24.11,-22.21
40255,760.13,770.22,757.21,760.96,762.13,-48.83,-934.57,490.72,23.37,-12.09,-9.44
40286,764.45,771.78,757.42,761.58,763.81,-75.20,-862.79,545.90,30.96,-6.12,-8.45
40317,766.65,772.77,757.49,761.79,764.68,-74.22,-926.76,453.61,10.77,5.40,-7.86
40348,768.55,773.43,757.60,762.01,765.40,-45.41,-908.69,489.75,6.83,-1.21,-2.50
40379,771.85,773.87,757.71,762.28,766.43,-53.22,-893.07,504.39,5.27,-1.76,-0.79
40410,776.56,774.50,757.83,762.75,767.91,-40.04,-891.11,505.86,12.01,-1.62,-4.19
40440,780.81,775.05,757.91,763.21,769.24,-43.95,-880.86,504.39,9.95,-1.99,-3.08
40471,784.72,775.23,758.01,763.48,770.36,-45.41,-879.39,523.93,9.92,-1.20,-2.22
40501,787.99,775.32,758.03,763.74,771.27,-44.92,-896.48,518.07,4.15,-2.53,-2.04
40532,790.69,775.43,758.15,763.97,772.06,-56.64,-888.18,514.65,4.44,-1.35,-0.27
40562,793.35,775.36,758.15,764.08,772.73,-41.50,-881.35,535.16,3.82,1.54,0.18
40593,795.77,775.54,758.22,764.15,773.42,-41.02,-891.11,528.32,1.78,2.37,-0.39
40623,797.40,775.64,758.19,764.25,773.87,-46.39,-874.02,525.88,2.84,3.53,-1.02
40654,798.17,775.68,758.26,764.33,774.11,-51.27,-889.65,525.39,-0.44,0.60,-2.06
40685,798.58,775.82,758.23,764.27,774.22,-44.43,-874.02,521.48,-0.60,3.23,-1.76
40715,799.05,775.91,758.33,764.22,774.38,-37.11,-884.77,515.14,0.36,-0.69,-4.25
40746,799.76,775.96,758.22,764.20,774.54,-27.34,-875.49,522.46,3.15,1.21,-1.24
40777,800.33,776.02,758.25,764.13,774.68,-40.53,-873.05,518.07,-1.47,-1.02,-2.83
40808,800.31,776.00,758.21,764.08,774.65,-35.64,-864.26,521.97,-0.35,1.79,-0.48
40838,800.04,776.05,758.27,763.98,774.58,-44.92,-871.58,525.39,-0.42,0.66,-0.64
40869,799.82,776.04,758.26,763.94,774.52,-45.41,-887.21,520.02,-2.56,-0.02,-1.56
40900,799.75,776.01,758.27,763.87,774.48,-44.92,-872.07,522.95,-1.74,0.18,-0.12
40931,799.43,776.03,758.21,763.85,774.38,-48.83,-878.42,517.58,-0.12,7.50,-2.67
40962,799.00,775.97,758.22,763.79,774.25,-51.76,-873.54,519.53,-0.18,2.02,-1.06
40993,798.50,775.99,758.27,763.75,774.13,-21.00,-880.37,520.51,-0.49,-3.95,-0.84
41024,797.76,775.90,758.26,763.68,773.90,-41.99,-871.09,532.23,-2.71,4.26,-1.79
41055,796.85,775.97,758.29,763.91,773.75,-38.09,-880.37,537.11,-0.84,-0.24,-1.50
41086,795.83,776.00,758.33,763.95,773.53,-37.11,-868.65,514.65,-1.63,-1.42,-0.37
41117,794.71,776.06,758.35,764.15,773.32,-41.99,-887.70,513.18,-0.14,0.47,-0.05
41148,793.65,776.17,758.48,764.39,773.17,-40.04,-895.02,513.67,1.44,0.93,-0.21
41179,792.73,776.35,758.53,764.55,773.04,-30.76,-881.84,533.20,-0.53,1.20,-1.29
