currTime,s1,s2,s3,s4,s,AccX,AccY,AccZ,GyroX,GyroY,GyroZ,GRF
25,768.05,785.67,752.85,757.36,765.98,-44.43,-973.14,318.36,0.71,2.15,-0.85,-529.14
61,768.09,785.59,752.89,757.36,765.98,-36.13,-963.38,305.18,-0.66,1.24,-0.09,-526.57
97,768.03,785.57,752.83,757.41,765.96,-34.18,-976.56,302.25,0.55,-1.11,-0.02,-528.28
132,768.03,785.64,752.95,757.41,766.01,-46.88,-978.03,295.41,0.24,1.46,-0.02,-525.74
168,768.04,785.59,752.85,757.43,765.98,-43.46,-974.12,295.90,0.56,-1.94,2.41,-527.80
204,767.87,785.44,752.89,757.47,765.92,-44.92,-970.21,303.71,-0.08,-3.02,-0.81,-523.91
240,767.71,785.48,752.88,757.52,765.90,-30.76,-974.12,296.87,-2.70,0.04,-0.98,-524.72
276,767.80,785.53,752.91,757.63,765.97,-48.34,-980.47,297.36,1.30,-1.39,1.21,-523.94
312,767.88,785.58,752.95,757.63,766.01,-24.41,-971.68,309.08,-1.99,0.76,-0.38,-523.60
348,767.84,785.37,752.85,757.59,765.92,-42.48,-972.17,303.22,0.44,0.89,0.21,-523.92
384,767.87,785.29,752.93,757.43,765.88,-40.04,-968.75,309.08,-1.31,-0.56,1.08,-520.74
420,768.12,785.18,752.85,757.39,765.89,-37.11,-955.08,301.76,-1.15,-1.20,-0.80,-522.00
456,768.29,785.14,752.82,757.32,765.89,-40.04,-964.84,306.15,-1.65,1.98,0.19,-522.59
492,768.32,785.22,752.82,757.32,765.92,-29.30,-980.96,306.15,-1.34,-0.13,-0.79,-523.64
528,768.36,785.23,752.81,757.36,765.94,-36.62,-971.68,298.34,2.42,0.50,0.50,-523.83
564,768.27,785.28,752.76,757.33,765.91,-30.76,-966.80,302.73,-0.05,0.47,0.34,-526.20
600,768.25,785.20,752.84,757.28,765.89,-34.18,-970.21,301.27,-0.24,0.21,-1.73,-522.94
636,768.23,785.24,752.82,757.33,765.91,-34.67,-976.56,300.78,-0.22,-0.05,-1.34,-523.72
672,768.37,785.32,752.82,757.26,765.94,-39.55,-980.96,302.73,-1.95,-0.11,-1.71,-525.56
708,768.35,785.20,752.88,757.33,765.94,-39.55,-972.66,295.41,-0.75,0.87,0.24,-521.32
744,768.40,785.27,752.80,757.32,765.95,-30.27,-976.07,300.78,-0.71,-1.54,0.47,-525.15
780,768.33,785.26,752.80,757.32,765.92,-30.76,-981.93,304.69,-0.62,0.74,-1.11,-524.96
816,768.25,785.34,752.77,757.38,765.94,-43.46,-954.10,300.29,-0.29,4.71,0.56,-526.58
852,768.17,785.49,752.90,757.44,766.00,-52.73,-969.24,302.73,-1.40,0.69,-0.12,-524.43
888,768.11,785.62,752.81,757.45,766.00,-30.76,-974.61,306.15,-0.21,-0.96,0.01,-529.45
924,768.09,785.64,752.96,757.50,766.05,-44.92,-979.00,298.34,1.79,-0.81,-0.49,-524.82
964,767.88,785.73,752.90,757.58,766.02,-38.57,-979.00,310.06,-0.68,0.47,-0.86,-527.59
1000,767.90,785.74,752.86,757.56,766.02,-39.55,-968.26,298.34,-0.88,1.30,0.20,-529.17
1035,767.86,785.74,752.89,757.55,766.01,-38.09,-977.54,302.73,-1.27,-0.43,-1.74,-528.24
1071,767.80,785.73,752.94,757.59,766.02,-32.23,-973.14,289.06,-1.19,-0.57,0.50,-526.00
1107,767.81,785.70,752.82,757.50,765.96,-35.64,-975.59,297.36,1.11,-1.08,-0.41,-530.17
1143,767.79,785.74,752.86,757.55,765.99,-45.41,-967.77,302.73,-1.31,0.44,-2.43,-529.15
1179,767.85,785.66,752.93,757.62,766.02,-50.29,-975.10,297.36,-1.95,0.85,1.12,-525.29
1215,767.90,785.67,752.92,757.57,766.01,-32.23,-977.54,306.64,-0.53,0.49,-1.48,-526.06
1251,768.03,785.68,752.84,757.48,766.01,-40.53,-967.29,300.78,-2.18,1.47,-3.63,-529.36
1287,768.07,785.55,752.75,757.45,765.95,-40.53,-970.21,300.29,-1.79,-0.69,0.94,-530.00
1323,768.14,785.66,752.86,757.40,766.02,-35.64,-974.61,293.95,0.31,-1.00,-0.94,-528.46
1359,768.07,785.56,752.84,757.45,765.98,-25.88,-980.47,299.80,-0.69,-0.24,-0.76,-527.67
1395,768.14,785.64,752.86,757.40,766.01,-33.69,-979.49,302.25,-1.18,-3.18,-1.21,-528.48
1431,768.25,785.61,752.87,757.40,766.03,-27.34,-972.66,317.38,0.38,0.90,-1.41,-527.36
1467,768.12,785.81,752.89,757.47,766.07,-28.32,-976.07,315.43,-1.65,-0.11,0.75,-529.82
1503,768.09,785.72,752.80,757.45,766.02,-44.43,-973.14,304.20,0.31,0.12,-1.64,-531.20
1539,768.09,785.81,752.91,757.46,766.07,-43.95,-975.59,302.73,-2.91,0.32,-0.95,-529.16
1575,768.07,785.69,752.97,757.46,766.05,-20.02,-975.10,293.95,1.18,-4.41,0.44,-525.84
1610,768.10,785.67,752.91,757.48,766.04,-62.01,-1002.44,307.62,1.06,0.55,-0.54,-526.68
1646,768.09,785.65,752.86,757.41,766.00,-80.57,-977.05,287.11,0.63,0.53,-0.40,-528.27
1682,768.10,785.58,752.84,757.38,765.98,-50.78,-976.07,288.57,2.53,1.25,0.18,-528.03
1720,768.10,785.47,752.83,757.37,765.94,-49.80,-966.31,309.57,-1.37,-2.60,-1.06,-527.04
1755,768.13,785.33,752.76,757.30,765.88,-56.64,-978.03,294.43,1.02,0.62,-2.27,-527.19
1791,768.26,785.23,752.74,757.26,765.87,-59.57,-973.63,308.59,-1.54,1.05,-1.10,-526.29
1827,768.37,785.25,752.80,757.21,765.91,-49.32,-973.63,320.80,-2.19,-1.60,-0.27,-524.96
1863,768.28,785.20,752.75,757.23,765.86,-35.64,-972.17,304.69,-1.13,2.35,-1.38,-525.72
1898,768.19,785.41,752.78,757.21,765.90,-38.57,-976.07,302.73,-2.11,-0.38,-2.89,-528.23
1934,768.15,785.61,752.79,757.21,765.94,-38.57,-971.19,296.39,-0.65,1.71,0.88,-531.00
1977,768.09,785.78,752.82,757.35,766.01,-47.85,-972.66,287.11,-0.31,1.31,-2.15,-532.17
2015,767.83,786.02,752.74,757.45,766.01,-52.25,-981.93,301.27,-1.12,2.15,1.07,-537.32
2054,767.62,786.23,752.89,757.59,766.08,-33.69,-973.14,311.04,0.26,3.60,-1.10,-535.85
2091,767.31,786.62,752.97,757.68,766.15,-32.23,-966.80,305.66,-2.05,-1.10,-2.13,-538.68
2127,766.98,786.74,752.96,757.74,766.11,-16.60,-973.14,292.48,1.34,1.34,0.00,-540.36
2164,766.70,786.97,753.01,757.88,766.14,-37.11,-994.14,289.55,2.11,0.87,0.03,-541.41
2200,766.50,787.33,752.99,758.01,766.21,-32.23,-973.14,305.18,0.58,0.75,0.43,-546.95
2236,766.14,787.56,753.03,758.00,766.18,-38.09,-974.12,304.69,-0.06,1.25,-0.95,-549.33
2273,765.77,787.80,753.03,758.07,766.16,-32.71,-979.00,306.64,-1.89,3.73,0.85,-552.29
2309,765.67,788.13,753.03,758.07,766.23,-35.64,-978.52,293.95,-1.29,3.26,-0.76,-556.58
2345,765.22,788.24,753.07,758.14,766.17,213.87,-783.69,242.68,6.11,17.49,18.17,-556.63
2382,765.13,788.45,753.03,758.19,766.20,-91.31,-1038.57,278.81,-1.40,3.60,-1.18,-559.84
2418,764.58,788.76,753.12,758.25,766.18,-42.48,-959.96,317.38,-4.46,-5.82,-2.05,-561.54
2454,764.01,788.90,753.18,758.30,766.10,-55.66,-1001.95,275.39,0.89,-2.49,0.47,-562.42
2490,764.35,788.98,753.02,758.40,766.19,-41.99,-966.31,307.62,0.17,3.11,-1.12,-565.12
2526,764.22,789.23,753.10,758.34,766.22,-50.29,-979.98,295.41,-2.59,-1.00,0.34,-567.02
2562,764.33,789.21,753.16,758.22,766.23,-29.79,-970.21,299.80,-1.78,-1.29,0.73,-567.10
2598,764.39,789.09,753.11,758.25,766.21,-37.11,-980.96,306.15,-0.65,-1.85,0.21,-565.96
2634,764.36,789.28,753.13,758.11,766.22,-46.88,-983.89,300.29,0.53,-1.40,-1.69,-569.59
2671,764.23,789.18,753.09,758.19,766.17,-44.92,-975.59,294.92,-1.56,2.84,0.03,-567.97
2707,764.30,789.26,753.12,758.13,766.20,-54.69,-975.10,299.32,0.35,4.08,-0.24,-569.19
2743,764.21,789.17,753.09,758.12,766.15,-42.48,-986.33,284.18,-1.84,-0.55,-3.07,-568.69
2779,764.29,789.02,753.20,758.20,766.18,-32.23,-977.05,292.48,0.69,0.40,0.98,-564.44
2815,764.34,788.96,753.11,758.03,766.11,-41.02,-970.70,298.83,0.05,0.79,-0.26,-567.19
2852,764.45,788.77,753.07,758.04,766.08,-31.74,-975.59,290.04,0.66,-1.40,0.15,-565.02
2888,764.64,788.64,753.15,757.94,766.09,-34.67,-966.80,303.22,-0.46,0.28,-1.56,-563.73
2924,764.89,788.55,753.07,757.90,766.10,-46.39,-968.26,297.85,0.02,-1.54,-0.42,-563.69
2960,765.21,788.44,752.99,757.80,766.11,-39.06,-977.54,309.57,-1.25,-0.22,-1.54,-564.47
3001,765.51,788.45,752.99,757.76,766.18,-38.09,-968.26,316.41,-1.21,-0.65,-0.38,-564.76
3037,765.79,788.89,753.05,757.92,766.41,-44.43,-979.98,304.69,0.11,-0.93,-2.24,-567.03
3072,765.88,789.17,753.11,758.09,766.56,-42.48,-957.52,315.92,0.23,-1.20,0.11,-567.65
3108,766.23,790.13,753.14,758.25,766.94,-42.97,-979.98,309.08,1.73,0.98,-1.64,-578.05
3147,766.72,791.22,753.14,758.53,767.40,-41.50,-977.54,301.76,0.85,-0.75,0.38,-588.22
3183,767.18,792.30,753.25,758.70,767.86,-28.32,-979.00,297.85,0.22,0.50,-1.27,-596.82
3219,767.90,792.84,753.26,758.77,768.19,-37.11,-988.28,308.11,0.57,-3.18,-0.88,-601.83
3255,768.77,792.91,753.18,758.69,768.39,-31.74,-975.10,311.04,0.68,0.53,1.74,-604.09
3291,769.70,792.62,753.19,758.49,768.50,-30.27,-973.14,300.29,2.24,-0.60,-0.98,-600.92
3327,770.52,791.97,753.12,758.34,768.49,-45.90,-980.47,291.50,2.40,-0.48,-1.88,-594.86
3363,770.40,791.27,753.09,758.15,768.23,-47.85,-985.84,296.87,1.79,-1.53,3.23,-588.92
3399,769.90,790.36,753.02,758.04,767.83,-29.79,-968.75,305.66,2.31,1.26,1.25,-581.58
3437,769.25,789.58,753.00,757.69,767.38,-30.27,-967.77,305.18,1.31,0.18,-1.75,-577.11
3473,768.56,788.75,752.92,757.42,766.92,-34.18,-972.17,308.11,-1.22,1.96,1.24,-571.92
3509,767.30,787.75,752.86,757.11,766.26,-39.06,-964.84,304.20,-1.78,0.55,-0.05,-563.09
3545,765.33,786.43,752.73,756.62,765.28,-53.22,-987.79,296.87,-4.05,2.56,-0.28,-548.02
3580,762.70,784.39,752.62,756.14,763.96,-37.11,-988.77,304.20,-8.21,-1.50,-1.50,-515.84
3616,758.78,781.20,752.36,755.19,761.88,-64.94,-988.28,275.39,-14.77,0.25,-0.67,-448.44
3653,753.98,776.03,751.88,753.66,758.89,-45.90,-983.40,261.72,-23.08,-3.67,-1.20,-316.05
3689,749.69,768.85,751.21,751.82,755.39,-47.36,-990.23,268.07,-26.82,-7.24,3.69,-116.78
3725,747.64,760.20,750.60,749.99,752.10,-64.94,-1059.08,146.97,-11.40,-28.50,4.73,-36.46
3761,746.45,753.05,750.00,748.90,749.60,-23.44,-1065.43,159.67,-21.16,20.47,-1.88,-11.54
3797,746.03,748.91,749.85,748.53,748.33,185.06,-1229.98,280.76,-14.14,65.44,-19.09,-10.07
3833,745.97,747.99,749.83,748.47,748.07,-79.59,-984.37,334.96,68.04,81.90,11.89,-9.40
3870,745.88,747.48,749.70,748.43,747.87,-284.67,-1003.42,273.93,67.14,55.64,3.47,-3.43
3906,745.77,747.21,749.80,748.52,747.82,-303.22,-1042.48,292.97,45.29,34.85,7.83,-6.78
3942,745.66,747.01,749.75,748.53,747.73,-382.81,-1078.13,330.08,39.57,12.98,1.79,-3.72
3978,745.85,746.91,749.82,748.54,747.78,-460.45,-921.87,284.18,25.53,14.84,1.76,-7.15
4020,745.92,746.84,749.79,748.59,747.79,-533.20,-861.33,309.08,12.91,37.70,9.28,-5.29
4059,746.03,746.74,749.85,748.56,747.79,-544.43,-823.24,296.87,9.56,56.72,23.97,-9.04
4098,745.96,746.61,749.76,748.60,747.73,-539.55,-775.39,252.44,-0.76,73.65,33.79,-3.51
4137,745.95,746.66,749.79,748.63,747.76,-501.46,-772.95,252.93,-16.53,77.19,37.96,-4.93
4175,745.77,746.57,749.77,748.70,747.70,-420.90,-878.42,276.37,-26.58,76.91,44.40,-3.25
4214,745.65,746.48,749.77,748.70,747.65,-313.48,-858.40,292.48,-32.21,71.60,56.07,-2.95
4253,745.50,746.49,749.75,748.68,747.61,-213.87,-897.46,349.12,-32.40,64.18,51.24,-2.29
4291,745.43,746.46,749.72,748.63,747.56,-79.10,-931.64,356.45,-24.15,63.61,44.60,-1.31
4330,745.22,746.40,749.70,748.61,747.48,28.81,-967.77,407.71,-2.90,72.10,37.70,-0.36
4369,745.27,746.35,749.71,748.49,747.45,124.51,-969.24,395.51,34.47,66.73,24.97,-1.93
4405,745.19,746.25,749.68,748.28,747.35,73.73,-823.73,298.83,34.18,48.69,2.01,-2.83
4441,748.36,745.65,749.65,747.73,747.85,884.77,-573.73,987.79,-28.84,-65.42,-41.18,-6.87
4477,757.05,744.91,749.74,747.34,749.76,-370.12,-1021.00,190.92,-50.33,-84.11,-71.27,-15.23
4514,762.31,744.71,749.83,747.60,751.11,-11.72,-1038.57,522.95,-8.67,-58.26,-85.79,-16.44
4550,769.43,744.91,749.75,747.78,752.97,-271.48,-966.80,204.10,13.65,3.74,-92.30,-10.93
4586,781.02,745.44,749.81,748.04,756.08,-171.87,-1182.13,298.34,7.85,-23.56,-89.93,-17.24
4622,794.15,746.51,749.80,748.67,759.78,-122.56,-1190.43,169.92,33.27,-27.51,-92.01,-21.16
4658,806.81,748.39,749.94,750.57,763.93,-76.17,-998.54,333.98,57.72,-24.15,-73.34,-22.35
4695,815.61,751.55,750.59,754.05,767.95,-40.53,-1107.91,366.21,23.83,-9.97,-14.38,-54.37
4731,824.62,754.32,751.39,756.63,771.74,-33.69,-939.94,384.28,14.84,-1.37,-10.52,-216.32
4767,832.46,755.72,751.98,758.13,774.57,-26.37,-950.20,378.42,6.82,-0.12,-2.16,-324.85
4803,836.93,756.07,752.42,759.70,776.28,-25.39,-955.08,377.44,-4.09,0.03,-0.40,-347.87
4840,839.64,755.84,752.81,761.06,777.34,-29.30,-954.59,352.05,-5.81,0.05,1.73,-370.68
4876,841.05,755.52,753.19,762.24,778.00,-58.59,-937.99,378.42,-2.96,-5.02,4.51,-389.97
4912,840.68,755.51,753.52,762.68,778.10,-58.11,-943.36,393.07,-6.23,-1.56,-1.08,-400.38
4948,838.89,756.21,753.62,762.50,777.81,-54.20,-935.55,362.79,-14.37,7.49,-1.69,-393.86
4984,836.12,757.68,753.73,762.29,777.45,-41.99,-955.57,334.47,-14.58,10.19,-4.50,-381.20
5019,833.88,759.68,753.67,762.22,777.36,-59.57,-960.45,330.08,-12.82,15.73,-2.61,-377.88
5060,832.08,763.22,753.41,761.97,777.67,-55.18,-950.20,355.47,-17.95,12.40,-2.85,-404.01
5096,830.30,768.28,753.01,761.22,778.20,-74.71,-972.66,320.31,-20.79,10.90,-3.15,-502.78
5137,827.52,773.92,752.68,760.06,778.55,-87.89,-978.03,283.20,-19.91,10.66,-3.72,-533.80
5172,824.83,779.20,752.58,759.39,779.00,-71.29,-992.19,270.02,-17.88,9.60,-6.18,-539.62
5208,821.72,784.19,752.59,758.85,779.34,-45.90,-1000.49,271.00,-14.24,10.24,-7.68,-567.73
5244,818.46,788.74,752.65,758.66,779.63,-43.95,-1004.39,255.37,-7.97,13.41,-6.11,-584.77
5280,813.36,793.53,752.81,758.73,779.61,-51.27,-979.98,237.79,-6.42,12.56,-12.35,-610.76
5316,806.91,799.27,752.99,759.39,779.64,-47.36,-997.56,260.25,-5.15,11.72,-13.43,-652.09
5352,798.18,805.97,753.41,761.17,779.68,-35.64,-988.77,237.30,-6.36,15.41,-10.19,-707.77
5388,789.41,812.40,754.14,764.24,780.05,-25.39,-999.51,233.40,-1.82,12.82,-9.69,-756.99
5424,781.73,819.06,755.18,768.35,781.08,-29.79,-987.30,238.28,2.28,13.19,-11.18,-809.84
5460,774.04,825.19,756.45,772.65,782.08,-4.88,-997.07,255.37,0.82,9.98,-12.65,-863.46
5497,765.99,830.72,757.74,776.86,782.82,-26.37,-996.09,246.09,-8.11,8.12,-8.93,-917.92
5533,757.88,834.78,759.36,781.09,783.28,3.42,-1009.77,218.26,-9.31,6.88,-7.50,-963.53
5569,751.32,836.44,760.86,784.82,783.36,-52.25,-1022.95,196.78,-9.73,3.72,-9.75,-1028.36
5605,747.48,832.81,762.42,786.89,782.40,-139.16,-1096.68,290.53,-14.49,-28.10,-25.16,-1082.81
5641,745.37,822.30,762.77,784.14,778.65,-111.82,-1313.48,427.73,7.85,-46.34,-64.47,-1016.67
5677,744.14,805.01,760.87,774.72,771.18,-57.13,-1288.57,551.27,-77.66,-36.20,-105.24,-721.57
5714,743.60,783.43,756.83,761.88,761.43,-116.70,-1494.63,118.65,-78.94,-13.66,-177.82,-393.81
5750,743.05,764.76,752.28,753.60,753.42,137.21,-1769.53,-49.80,-18.04,4.62,-242.05,-108.34
5786,742.83,754.06,750.37,750.00,749.31,338.87,-1037.60,-36.62,-16.50,91.70,-217.12,-14.44
5822,743.07,750.66,749.96,749.27,748.24,-92.77,-818.36,375.49,-14.50,199.73,-73.95,-5.73
5858,742.90,749.27,749.79,748.92,747.72,-719.24,-752.44,169.92,27.57,210.65,-15.85,-2.47
5894,742.87,748.56,749.85,748.85,747.53,-629.88,-505.86,184.08,14.16,166.39,23.54,-5.76
5930,742.90,748.38,749.81,748.85,747.49,-570.31,-506.84,355.47,-20.71,130.15,70.31,-4.04
5966,742.82,748.23,749.84,749.01,747.47,-528.81,-713.38,562.01,-41.63,95.08,107.93,-3.50
6003,742.72,748.21,749.83,748.99,747.44,-353.52,-905.27,590.33,-42.36,88.11,136.16,-3.49
6039,742.76,748.26,749.76,749.05,747.46,-302.25,-1086.91,602.54,-29.17,98.02,146.06,0.27
6081,742.59,748.20,749.76,749.34,747.47,-231.45,-1227.54,587.89,-38.35,91.48,153.65,3.01
6120,742.52,748.08,749.77,749.54,747.48,-141.60,-1479.49,592.77,-45.94,66.40,125.98,5.18
6158,742.52,747.75,749.74,749.43,747.36,65.92,-1458.98,667.97,-41.61,61.37,119.89,5.61
6196,742.42,747.65,749.84,749.32,747.31,167.48,-1340.82,646.48,-20.75,69.25,174.47,-0.48
6233,742.42,747.46,749.79,749.21,747.22,229.00,-1244.14,658.20,-26.79,63.20,166.85,1.20
6269,742.37,747.30,749.76,749.11,747.13,430.18,-1122.56,663.57,0.87,56.44,139.43,1.74
6305,742.34,747.36,749.75,749.04,747.12,895.51,-870.12,347.17,22.62,52.60,79.37,1.13
6343,742.34,747.37,749.69,748.98,747.10,808.59,-1038.09,578.12,20.92,42.08,19.57,3.30
6379,742.39,747.44,749.71,748.78,747.08,555.18,-1009.77,466.80,86.76,-31.31,-43.15,0.01
6416,756.26,745.90,749.78,748.04,749.99,202.15,-2000.00,-1662.11,-203.56,111.95,-138.41,-10.04
6452,783.73,746.30,750.01,748.64,757.17,-316.89,-906.25,559.08,-46.99,-34.48,-168.92,-21.59
6488,828.74,748.21,750.01,749.46,769.10,-218.75,-1245.12,391.60,12.69,94.37,-217.36,-54.60
6525,847.74,750.82,750.03,749.56,774.54,-27.34,-1165.53,312.99,-0.67,42.08,-115.08,-103.01
6561,846.11,753.05,749.89,749.36,774.60,-29.30,-973.14,204.59,-12.68,20.78,-81.91,-76.32
6597,844.02,756.06,749.80,749.25,774.78,-55.66,-1038.57,155.76,3.06,-4.33,-11.94,-227.07
6633,845.80,759.28,749.85,749.25,776.05,-72.75,-986.82,267.09,2.44,-15.94,-7.40,-300.99
6669,845.53,762.75,749.85,749.47,776.90,-110.35,-988.77,143.07,-1.70,-7.91,-2.43,-342.38
6705,842.43,767.47,749.92,749.73,777.39,-104.98,-1030.76,141.60,9.54,-4.51,-11.44,-388.01
6741,836.58,774.93,749.96,750.12,777.90,-105.47,-984.37,213.87,8.89,3.66,-16.59,-458.31
6780,823.33,785.33,750.21,750.68,777.39,-64.45,-984.86,211.91,-5.89,14.24,-17.95,-548.97
6815,808.72,796.25,750.45,751.43,776.71,-56.15,-991.70,198.73,-6.99,14.63,-16.95,-679.42
6851,797.05,806.47,750.78,752.32,776.66,-58.59,-1003.42,163.57,-7.11,13.79,-10.93,-790.11
6887,790.22,813.47,750.99,753.27,776.98,-56.15,-1031.74,134.28,3.11,12.33,-10.79,-862.35
6923,786.88,818.28,751.55,755.68,778.10,-83.50,-1044.43,101.56,26.37,14.46,-9.60,-891.31
6959,785.63,822.58,752.25,758.90,779.84,-50.29,-962.40,260.74,27.95,9.02,-8.60,-903.51
6995,782.50,825.04,752.94,761.18,780.41,-48.83,-979.49,225.10,14.56,9.86,-7.19,-907.95
7032,779.17,826.33,753.51,763.96,780.74,-38.09,-1028.81,155.76,14.92,8.40,-9.79,-908.76
7072,775.41,828.34,754.43,767.13,781.33,-39.55,-979.98,235.84,14.76,7.91,-7.76,-911.93
7111,770.81,830.74,755.30,770.01,781.72,-48.83,-974.12,253.42,7.44,4.86,-4.76,-919.79
7149,765.93,833.81,756.16,773.11,782.26,-46.39,-1009.28,230.96,4.39,7.62,-9.63,-936.00
7188,760.64,837.28,756.98,775.84,782.68,-37.11,-978.03,263.67,-3.34,6.17,-8.34,-963.08
7227,755.04,841.06,757.83,778.75,783.17,-21.00,-988.28,231.45,-7.24,6.79,-12.84,-998.14
7266,749.96,843.65,758.86,782.30,783.69,-49.80,-1019.04,230.96,-17.83,2.39,-6.17,-1033.80
7304,746.97,843.70,760.42,786.40,784.38,-67.38,-1070.80,192.87,-20.59,-6.41,-15.25,-1071.32
7343,745.13,838.12,762.16,789.32,783.68,-114.75,-1013.67,228.03,-21.09,-24.02,-31.27,-1120.26
7382,744.07,825.51,763.31,789.83,780.68,-1.95,-1168.95,306.64,-2.44,-29.14,-60.53,-1159.18
7421,743.35,805.93,763.09,786.96,774.83,100.59,-760.25,640.62,-50.36,-7.40,-90.27,-931.47
7459,743.06,783.08,760.89,777.95,766.25,-173.34,-1578.61,119.63,-34.38,-26.03,-173.19,-480.21
7496,742.93,766.56,755.93,763.04,757.11,-37.60,-1744.63,9.28,-13.67,-24.30,-250.14,-46.12
7532,742.83,754.78,751.71,754.11,750.86,415.53,-1122.56,226.07,37.15,-14.75,-250.14,-26.15
7568,742.89,750.47,750.14,750.16,748.42,-414.55,-633.30,82.52,24.23,1.73,-209.39,-3.99
7604,743.02,749.25,749.95,749.51,747.93,-709.96,-930.18,145.51,45.59,118.59,13.76,-3.29
7641,742.97,748.29,749.78,748.94,747.49,-736.33,-458.98,95.21,55.17,86.71,96.64,-1.71
7677,742.79,748.02,749.77,748.86,747.36,-541.02,-408.69,185.55,-7.31,76.42,150.47,-2.22
7713,742.81,748.14,749.82,749.04,747.45,-453.61,-825.68,400.39,-29.92,40.65,154.70,-2.61
7749,742.77,748.43,749.81,749.22,747.56,-169.43,-968.75,423.34,-26.14,32.87,184.21,-0.40
7785,742.61,748.54,749.85,749.32,747.58,-50.78,-1377.93,411.62,-28.82,35.66,166.18,-1.06
7822,742.52,748.62,749.82,749.47,747.61,120.61,-1416.50,427.73,-15.89,40.04,167.24,1.49
7858,742.48,748.55,749.76,749.71,747.63,148.93,-1433.11,385.74,-21.39,16.50,146.78,7.16
7894,742.46,748.30,749.89,749.57,747.56,260.74,-1435.55,360.84,-20.63,-1.34,135.60,-0.45
7930,742.43,747.87,749.83,749.33,747.36,325.68,-1388.67,368.16,-8.07,14.74,147.06,-0.02
7966,742.43,747.64,749.72,749.24,747.26,254.88,-1310.55,261.72,14.54,43.41,178.57,4.53
8002,742.51,747.40,749.69,749.01,747.15,229.49,-1158.69,218.75,1.76,58.96,161.22,3.44
8039,742.43,747.17,749.69,749.03,747.08,227.54,-1053.71,262.70,-13.38,54.18,131.77,4.17
8075,742.43,747.20,749.73,749.05,747.10,365.72,-995.61,351.07,-19.14,53.45,96.50,2.28
8111,742.44,747.25,749.66,748.99,747.08,260.25,-977.05,443.85,-10.65,52.44,36.60,4.98
8154,742.48,747.26,749.72,748.92,747.10,-45.90,-884.28,380.37,20.95,5.93,16.21,1.69
8192,742.45,747.30,749.67,748.97,747.10,-181.64,-769.04,346.19,1.01,-51.95,6.04,4.19
8231,749.00,746.25,749.71,747.98,748.23,1689.94,-1077.15,-71.29,-223.18,-131.67,-90.32,-7.96
8267,769.65,745.71,749.90,747.86,753.28,27.83,-1243.16,229.98,-99.87,-32.97,-109.50,-17.78
8303,801.36,745.83,749.95,748.04,761.29,-560.55,-1299.32,124.51,-86.93,-52.87,-137.66,-49.52
8339,828.39,746.99,750.04,748.49,768.47,-288.09,-1190.43,60.55,-51.40,-9.98,-147.66,-60.62
8375,849.31,748.56,750.08,748.80,774.19,-154.30,-1079.59,153.32,28.10,-19.98,-120.48,-105.55
8411,861.36,750.23,750.03,748.90,777.63,-60.06,-1144.53,-172.85,42.08,8.77,-29.02,-158.63
8447,863.61,751.17,749.96,748.88,778.40,-125.98,-1062.99,222.66,3.92,5.94,-29.02,-167.03
8487,864.15,751.76,749.97,748.75,778.66,-144.53,-993.65,183.59,9.90,3.26,-18.12,-186.41
8523,867.66,752.58,749.95,748.70,779.72,-150.39,-978.03,185.55,13.92,7.47,-23.30,-301.52
8559,869.42,754.32,749.89,748.81,780.61,-112.79,-1039.55,189.94,22.59,11.73,-30.96,-351.52
8595,869.56,755.79,749.87,748.80,781.01,-101.56,-1000.00,204.59,21.21,9.23,-26.93,-371.17
8631,866.56,757.49,749.77,749.05,780.72,-105.47,-996.09,246.09,19.81,3.07,-16.86,-372.51
8667,859.29,759.82,749.81,750.16,779.77,-116.21,-981.45,224.12,22.45,-3.65,-17.60,-365.21
8703,849.87,763.18,750.31,753.32,779.17,-1.95,-924.32,327.64,9.90,8.65,-13.60,-394.67
8739,845.69,764.87,751.15,756.72,779.61,-81.05,-949.71,278.81,14.45,-0.21,-7.63,-494.01
8775,843.55,766.94,751.65,758.74,780.22,-41.02,-963.38,324.22,8.22,1.76,-2.54,-586.14
8812,842.46,768.04,751.88,759.38,780.44,-57.13,-978.03,274.41,5.56,5.97,-2.86,-601.73
8848,842.50,768.35,751.92,758.72,780.37,-24.41,-961.91,304.20,4.56,9.54,0.31,-598.66
8884,843.35,768.20,751.82,757.71,780.27,-67.38,-976.56,272.46,5.93,5.93,-2.66,-591.34
8920,844.75,767.67,751.59,756.91,780.23,-68.36,-979.98,285.64,4.43,4.62,1.43,-576.34
8957,845.02,767.48,751.66,757.25,780.35,-73.24,-1000.00,275.39,7.67,3.50,-4.50,-585.37
8993,844.27,767.82,751.70,757.79,780.40,-53.22,-980.47,299.32,11.06,3.96,0.45,-594.89
9029,844.51,767.76,751.69,757.44,780.35,-61.04,-951.17,318.36,7.11,2.77,1.60,-589.12
9065,844.64,767.49,751.59,757.10,780.20,-78.12,-975.10,295.41,6.86,2.92,-2.07,-577.81
9101,845.07,767.50,751.59,757.16,780.33,-62.01,-972.66,312.50,4.14,3.52,1.43,-582.94
9142,843.94,768.18,751.61,757.31,780.26,-57.62,-978.03,291.02,3.12,2.64,-2.65,-587.97
9181,840.43,768.10,751.64,757.48,779.41,-67.38,-965.82,294.43,7.42,3.89,-1.26,-569.00
9220,833.60,767.94,751.66,757.73,777.73,-53.22,-986.82,323.73,4.25,-0.34,-0.97,-520.30
9258,824.02,767.43,751.73,757.53,775.18,-48.34,-961.43,333.01,0.94,-0.02,-4.08,-412.96
9297,812.67,767.47,751.57,756.33,772.01,-68.85,-966.31,331.54,-10.27,2.21,-3.08,-352.34
9335,792.50,767.60,751.21,754.31,766.41,-74.71,-964.84,277.34,-13.04,-3.07,-3.05,-281.48
9374,767.23,762.52,750.49,751.16,757.85,-88.87,-1027.34,262.21,-50.64,-1.63,1.12,-43.70
9413,751.84,752.19,749.73,748.98,750.68,-34.18,-909.67,302.25,-2.95,-32.60,6.36,-2.87
9452,748.98,748.19,749.76,748.59,748.88,-210.45,-1661.13,656.25,59.23,24.58,19.70,-5.02
9490,748.09,747.78,749.83,748.63,748.58,-586.43,-775.39,215.82,53.52,54.95,73.57,-7.17
9531,749.54,747.21,749.66,748.72,748.78,30.27,-991.21,176.76,-23.64,-11.89,30.35,2.16
9568,748.15,746.83,749.64,748.99,748.40,38.57,-814.45,283.20,-42.05,-61.18,-32.81,6.64
9604,747.81,746.64,749.66,750.19,748.57,-3.42,-1197.75,478.52,-56.54,-56.48,-79.85,17.91
9640,751.26,747.51,749.77,751.24,749.94,241.21,-885.74,139.65,7.81,40.53,89.66,22.40
9676,762.83,749.82,749.94,753.24,753.96,42.97,-973.63,351.07,34.91,11.84,-17.54,22.62
9713,766.47,752.81,749.99,754.26,755.88,-110.84,-944.34,298.83,0.74,-0.89,-10.13,7.91
9749,765.47,756.67,750.38,755.69,757.05,-16.11,-999.51,218.75,6.60,4.51,-15.61,-36.02
9785,769.57,759.80,750.95,757.58,759.48,-67.38,-956.05,331.54,26.40,9.41,-10.72,-74.80
9821,777.78,763.78,751.47,758.99,763.01,-65.43,-943.85,376.95,21.67,7.94,-9.13,-133.35
9857,785.47,766.70,751.76,759.82,765.94,-62.50,-961.43,345.21,5.65,1.79,-8.39,-229.27
9894,788.20,767.07,752.07,760.56,766.98,-71.78,-991.21,302.73,10.24,1.44,-2.88,-265.67
9930,789.40,766.43,752.37,761.46,767.41,-78.61,-974.61,320.31,12.57,-0.44,-2.89,-271.58
9966,788.26,767.15,752.93,762.23,767.64,-41.02,-915.53,386.72,7.73,-4.64,-6.63,-289.76
10002,787.48,768.50,753.37,762.68,768.01,-58.59,-923.34,371.09,0.92,-0.68,-3.34,-328.86
10038,787.17,769.55,753.88,763.56,768.54,-68.36,-975.59,319.34,2.44,-2.23,-2.20,-361.21
10074,786.18,770.04,754.57,765.00,768.95,-66.89,-967.29,351.07,3.04,-0.81,-0.19,-363.82
10110,784.85,770.83,755.48,766.61,769.44,-50.78,-942.38,375.98,-2.30,1.05,-3.34,-368.72
10146,783.45,772.51,756.34,768.49,770.20,-45.90,-952.15,343.75,-3.35,1.89,-4.35,-390.25
10193,783.55,774.50,757.35,770.40,771.45,-41.99,-957.03,365.72,1.31,-1.66,-0.92,-422.16
10229,784.11,775.70,757.66,771.09,772.14,-39.06,-956.05,374.02,1.33,1.37,-3.74,-444.99
10265,784.63,777.11,757.89,771.05,772.67,-36.13,-965.33,354.49,-3.04,2.19,-1.44,-468.08
10300,785.03,778.45,757.63,770.35,772.87,-48.34,-952.15,354.98,-7.63,4.01,-1.82,-483.37
10336,784.70,778.86,757.26,769.44,772.57,-42.97,-975.10,333.98,-3.91,2.37,-1.24,-478.21
10372,784.69,778.73,756.91,768.83,772.29,-50.29,-953.12,350.10,-0.46,0.94,-1.47,-469.73
10408,784.01,778.44,756.79,768.31,771.89,-36.62,-954.59,361.33,-1.63,0.76,-1.83,-456.25
10444,782.86,778.25,756.66,767.90,771.42,-38.09,-952.64,349.12,0.00,-0.54,-2.64,-447.63
10481,782.27,778.01,756.58,767.72,771.15,-54.20,-957.03,345.21,-0.46,1.03,0.73,-441.02
10517,781.87,777.85,756.56,767.49,770.94,-40.53,-959.96,340.33,-1.21,-0.01,-0.38,-436.00
10553,781.95,777.19,756.39,767.10,770.66,-48.83,-957.52,350.10,-0.27,-0.29,1.44,-426.21
10589,782.11,776.73,756.25,766.73,770.46,-46.39,-947.27,359.37,-0.76,-0.88,-0.67,-419.09
10626,781.69,776.44,756.14,766.34,770.16,-42.97,-960.45,353.03,-1.75,0.46,1.34,-411.56
10662,781.25,776.19,756.00,766.22,769.91,-57.62,-959.96,350.10,-1.26,-0.35,-0.94,-405.94
10698,780.94,775.87,755.89,766.05,769.69,-50.29,-963.38,348.63,0.21,-2.08,0.18,-399.61
10734,780.81,775.50,755.87,765.82,769.50,-42.97,-958.01,358.89,1.66,-1.32,2.26,-393.32
10770,780.49,775.32,755.75,765.56,769.28,-47.36,-958.01,332.03,-1.60,-0.95,-0.64,-387.64
10807,780.13,775.24,755.71,765.52,769.15,-46.88,-975.10,345.70,-2.11,-0.64,-1.85,-385.01
10843,780.02,774.96,755.73,765.53,769.06,-43.46,-959.96,355.47,0.56,-2.26,-0.64,-381.44
10879,779.80,774.82,755.67,765.35,768.91,-43.46,-946.78,354.98,-0.40,1.27,-1.35,-377.15
10915,779.77,774.72,755.63,765.26,768.85,-42.48,-954.10,352.54,0.23,-1.26,-5.36,-374.83
10952,779.73,774.59,755.54,764.97,768.71,-49.32,-951.17,348.14,-1.57,1.22,0.59,-370.37
10988,779.77,774.42,755.47,764.87,768.63,-33.69,-970.21,343.26,-0.88,2.69,0.02,-367.52
11024,779.66,774.42,755.30,764.66,768.51,-41.99,-953.12,353.52,-1.66,3.06,-1.01,-364.83
11060,779.50,774.31,755.38,764.51,768.43,-53.71,-951.66,346.19,-2.64,0.82,-1.71,-362.11
11097,779.39,774.30,755.34,764.49,768.38,-56.15,-941.41,352.54,-0.55,-0.43,-2.72,-361.51
11133,779.38,774.32,755.30,764.39,768.35,-38.57,-950.20,348.63,-0.55,1.24,-0.28,-361.06
11169,779.25,774.35,755.30,764.28,768.29,-47.36,-950.68,337.89,-2.42,-0.17,1.39,-360.19
11210,778.97,774.41,755.18,763.95,768.13,-53.22,-953.61,354.00,-1.90,2.72,-0.92,-358.03
11249,779.07,774.21,755.10,763.80,768.04,-49.80,-960.45,328.12,-0.64,0.54,-1.63,-355.20
11287,779.26,774.26,755.01,763.44,767.99,-42.48,-965.82,356.93,-0.25,1.40,-0.85,-353.80
11326,779.57,774.21,754.90,763.11,767.95,-46.39,-958.01,349.61,0.38,-0.22,-1.15,-351.83
11365,779.92,774.07,754.81,762.82,767.91,-49.80,-968.75,346.68,-1.57,1.47,-1.97,-349.36
11403,780.24,773.88,754.69,762.43,767.81,-67.87,-952.64,339.84,-2.26,-1.24,-2.86,-345.63
11442,780.66,773.82,754.55,762.23,767.81,-56.64,-952.15,353.52,0.05,0.13,3.37,-344.99
11481,781.01,773.83,754.50,762.07,767.85,-44.43,-948.73,340.33,-1.53,-1.59,-0.14,-345.18
11518,781.43,773.95,754.46,761.81,767.92,-42.97,-966.80,344.73,-1.76,-0.60,-3.38,-346.29
11554,781.91,774.12,754.24,761.31,767.89,-39.55,-961.91,330.08,-1.45,-1.37,-0.02,-342.75
11590,782.02,774.29,754.12,760.83,767.82,-39.06,-961.43,331.54,-2.49,1.96,1.87,-341.30
11626,782.65,774.23,753.94,760.25,767.77,-48.34,-970.21,338.38,-2.82,1.78,-1.04,-339.75
11662,783.20,774.27,753.72,759.70,767.72,-39.55,-967.77,337.89,-3.50,0.43,-0.31,-339.92
11698,783.99,774.01,753.58,759.25,767.71,-43.95,-977.05,350.59,-0.85,-0.07,0.29,-336.10
11734,784.59,773.77,753.48,759.05,767.72,-57.13,-967.29,333.98,-0.09,-1.69,-1.60,-334.62
11770,784.93,773.46,753.42,758.73,767.63,-47.36,-960.45,340.33,-1.43,0.31,-0.96,-330.85
11806,785.49,773.14,753.31,758.50,767.61,-45.41,-963.38,338.38,-2.58,-0.21,-1.33,-332.43
11842,786.17,772.72,753.26,758.18,767.58,-56.64,-949.22,336.43,-1.16,0.08,-0.28,-324.50
11883,786.83,772.64,753.17,757.99,767.66,-53.71,-965.33,332.52,-1.20,1.70,1.50,-328.06
11919,787.40,772.36,753.08,757.71,767.64,-36.13,-973.14,328.12,-0.92,-0.45,1.11,-324.23
11955,788.06,772.13,752.90,757.40,767.62,-52.73,-961.43,332.52,-0.34,-2.83,-2.80,-327.59
11991,788.46,771.98,752.89,757.23,767.64,-46.88,-967.77,319.82,-0.95,-0.54,-1.76,-321.86
12027,789.32,771.65,752.77,756.84,767.65,-52.73,-976.07,326.66,0.76,-0.92,-0.44,-314.35
12063,790.46,771.19,752.64,756.46,767.69,-51.76,-973.14,326.17,1.17,0.72,0.85,-308.36
12099,791.08,770.86,752.49,756.21,767.66,-52.73,-966.31,333.98,1.02,-0.91,-2.17,-309.53
12135,791.11,770.82,752.38,755.93,767.56,-46.88,-964.84,326.17,-0.15,0.08,1.16,-314.12
12171,790.60,770.71,752.33,755.86,767.37,-55.18,-983.40,316.41,2.18,0.37,0.28,-314.50
12208,789.94,770.75,752.27,755.95,767.23,-72.27,-972.66,318.85,1.82,0.30,-0.08,-317.40
12250,788.00,771.00,752.28,756.26,766.89,-45.41,-958.50,335.45,4.56,1.34,-0.71,-318.41
12289,787.21,770.01,752.17,755.97,766.34,-24.90,-969.24,349.61,1.44,0.85,-2.10,-300.29
12327,786.04,768.92,752.13,756.19,765.82,-87.89,-949.22,323.24,3.27,-1.39,-0.34,-267.48
12366,785.93,768.66,752.12,756.11,765.71,-45.90,-945.31,375.49,0.76,1.06,-0.33,-259.97
12403,785.88,768.90,751.99,755.79,765.64,-69.34,-988.28,319.34,-3.54,1.63,-1.77,-274.80
12440,785.46,769.06,751.91,755.50,765.48,-38.09,-957.52,364.26,-3.63,3.47,-2.34,-284.30
12476,787.61,768.68,751.71,754.83,765.71,-42.97,-984.86,311.52,8.03,-0.14,-0.27,-289.59
12512,789.03,767.25,751.45,754.20,765.49,-52.73,-918.46,367.68,4.08,3.24,3.82,-267.28
12549,790.97,766.94,751.47,754.41,765.95,-55.18,-1001.46,323.24,3.13,-0.72,-4.01,-270.69
12585,791.29,767.64,751.56,754.93,766.36,-47.36,-958.01,361.33,6.86,-1.13,-2.43,-277.24
12621,791.45,768.98,751.72,755.56,766.93,-34.18,-965.33,327.64,5.73,-1.92,-4.52,-300.22
12657,789.90,769.80,751.89,756.23,766.95,-24.41,-943.36,370.12,1.60,0.83,-3.68,-315.31
12694,788.79,770.59,752.00,756.56,766.98,-6.35,-913.57,391.60,2.76,3.33,-2.05,-327.12
12732,788.05,771.48,752.02,756.84,767.10,-19.04,-977.54,354.98,-4.08,0.56,-2.54,-343.65
12768,786.45,772.21,752.17,756.81,766.91,-37.60,-955.08,347.66,-1.63,2.21,-3.47,-345.47
12805,787.43,771.85,752.05,756.57,766.98,-25.88,-970.21,371.09,6.96,1.03,-4.07,-343.57
12841,787.36,771.09,751.98,756.28,766.68,-13.18,-963.38,376.46,1.96,-0.55,-1.49,-329.74
12877,787.76,770.69,751.94,756.45,766.71,-56.64,-917.97,400.39,3.02,-0.26,-1.30,-326.85
12913,787.53,770.92,752.02,756.82,766.82,-15.14,-948.24,334.47,1.77,2.27,0.85,-331.98
12949,787.42,770.83,752.12,757.71,767.02,-34.67,-945.31,371.09,5.35,-2.21,-1.92,-338.69
12986,787.55,771.19,752.54,759.07,767.59,-33.69,-979.49,354.98,10.22,-3.66,-5.52,-348.67
13022,787.60,771.52,752.90,759.99,768.00,-15.14,-942.38,388.67,7.00,-3.24,-0.73,-362.66
13058,787.73,771.54,753.09,760.77,768.28,-32.23,-946.29,402.34,4.80,-1.69,-2.25,-369.00
13094,788.50,771.68,753.22,761.11,768.63,-16.11,-938.96,412.60,4.69,-0.37,-0.86,-360.77
13131,788.69,771.51,753.19,761.03,768.61,-19.53,-948.24,396.48,-0.75,-0.84,-0.67,-361.41
13167,789.19,771.43,753.14,760.73,768.62,-34.18,-953.61,387.21,1.08,-0.84,0.74,-362.04
13203,789.74,770.65,752.85,759.98,768.30,-31.25,-937.50,393.07,-1.60,-1.66,2.24,-355.98
13239,790.50,769.62,752.58,759.01,767.93,-38.09,-944.82,388.67,-1.52,3.41,1.79,-321.81
13280,791.79,768.49,752.24,757.82,767.59,-32.23,-953.61,360.84,-3.43,3.60,0.62,-296.99
13319,792.30,767.09,751.96,756.77,767.03,-22.95,-946.78,375.98,-3.25,0.41,3.54,-263.77
13357,792.50,765.94,751.75,755.83,766.50,-27.83,-955.57,382.32,-3.30,0.24,3.44,-252.18
13394,792.56,765.44,751.65,755.44,766.27,-28.81,-933.11,384.77,-3.52,2.09,0.93,-247.35
13429,792.88,765.28,751.52,755.07,766.19,-47.85,-962.89,357.91,-2.36,0.69,0.16,-242.86
13465,793.21,764.87,751.47,754.66,766.05,-23.44,-940.92,385.25,-2.77,2.95,4.21,-238.22
13501,793.75,764.14,751.39,754.32,765.90,-39.06,-947.27,369.14,-2.84,-2.60,4.05,-223.63
13538,795.12,764.04,751.31,754.34,766.20,-40.53,-953.61,368.16,2.21,1.15,-0.02,-228.36
13578,797.47,764.13,751.48,754.59,766.92,-56.15,-947.75,363.77,4.69,2.89,0.08,-247.37
13614,799.50,764.52,751.47,754.95,767.61,-47.85,-954.10,375.00,2.47,-1.82,-1.18,-256.57
13650,800.28,764.82,751.49,755.48,768.02,-30.27,-934.08,373.54,4.61,-1.26,-4.05,-260.41
13686,800.45,764.88,751.66,756.00,768.25,-40.04,-933.11,416.99,2.72,-4.18,-0.02,-267.37
13722,799.82,764.74,751.68,756.63,768.22,-16.11,-952.15,370.12,4.40,-3.27,-0.11,-265.39
13758,799.25,764.91,751.79,757.09,768.26,-39.55,-937.99,402.83,3.02,-2.07,0.02,-268.87
13794,798.28,765.04,751.76,757.56,768.16,-20.51,-931.64,414.06,0.50,-2.15,-0.28,-267.26
13830,797.20,765.27,751.82,758.10,768.10,-37.60,-944.34,405.27,-0.36,0.53,-1.53,-270.08
13866,796.05,765.29,751.81,758.32,767.87,-29.79,-940.92,397.46,-2.35,1.26,-0.46,-268.50
13902,795.19,765.26,751.81,758.27,767.63,-41.02,-929.69,406.74,-1.08,-0.76,2.25,-266.10
13938,794.41,764.79,751.83,758.14,767.29,-23.93,-942.38,392.58,-2.46,1.81,1.34,-261.03
13975,793.99,764.30,751.79,757.62,766.93,-34.18,-952.64,383.79,-3.96,-0.31,2.89,-254.98
14011,793.59,763.98,751.76,757.72,766.76,-40.53,-947.75,378.42,-2.50,-0.34,0.63,-251.73
14047,793.14,763.69,751.69,757.82,766.59,-26.37,-948.73,366.70,-3.71,2.70,2.04,-244.90
14083,793.34,763.66,751.81,758.09,766.73,-52.73,-951.66,391.11,-4.66,1.53,2.07,-248.64
14119,792.16,764.39,751.96,757.83,766.58,-44.92,-944.34,390.14,-4.37,2.92,-3.56,-252.19
14155,792.14,764.50,751.86,757.26,766.44,-63.48,-940.43,376.95,-4.69,5.86,-1.76,-250.68
14191,792.26,765.15,751.82,756.41,766.41,-32.71,-922.85,392.58,-7.08,-0.11,0.37,-253.86
14228,791.51,765.77,751.80,755.79,766.22,-37.60,-959.47,362.79,-6.55,1.63,2.53,-244.56
14264,790.86,766.25,751.72,755.17,766.00,-38.09,-944.34,364.75,-6.90,3.79,1.21,-242.30
14306,790.45,767.33,751.78,755.15,766.18,-53.22,-964.36,342.29,-5.29,-0.81,-3.70,-259.93
14345,789.81,768.15,751.78,755.27,766.25,-57.13,-977.05,322.75,-5.86,0.75,-1.59,-273.81
14384,785.52,768.03,751.72,754.96,765.06,-33.20,-951.17,356.45,-9.79,3.19,0.56,-264.16
14423,779.00,767.68,751.75,754.89,763.33,-55.18,-977.54,315.92,-11.24,4.36,0.58,-219.68
14461,777.26,767.46,751.74,755.40,762.96,-48.83,-964.36,307.13,1.25,-0.25,2.66,-198.18
14500,780.31,767.50,752.00,756.54,764.09,-42.97,-952.64,352.54,12.03,-7.48,1.82,-220.92
14539,784.92,768.73,752.32,757.58,765.89,-37.60,-925.29,394.04,5.31,0.84,-0.98,-257.29
14576,787.99,771.16,752.60,758.44,767.55,-39.06,-957.03,358.89,-0.83,1.15,-2.14,-336.37
14613,788.39,773.15,752.92,759.28,768.44,-41.99,-962.40,326.17,-3.47,0.05,-1.95,-368.46
14649,787.18,773.89,753.19,759.90,768.54,-43.95,-965.82,340.33,-2.80,2.11,-1.59,-354.80
14685,784.75,774.65,753.49,760.50,768.35,-42.48,-962.40,374.02,-3.80,3.11,-3.45,-342.43
14721,782.21,776.04,753.70,761.03,768.24,-47.36,-952.15,345.21,-4.40,2.36,-1.43,-346.19
14757,780.60,777.71,753.89,761.33,768.38,-34.67,-952.64,342.77,-2.50,0.98,-4.96,-365.94
14794,779.37,779.68,754.02,761.66,768.68,-31.25,-951.66,336.43,-4.53,5.61,-1.38,-395.21
14830,778.55,781.31,754.23,762.36,769.11,-45.41,-972.66,307.13,-2.76,3.38,-2.05,-411.22
14866,776.04,782.11,754.41,762.94,768.88,-40.53,-956.54,339.36,0.18,2.66,-1.95,-420.63
14903,774.72,782.09,754.61,763.40,768.70,-39.55,-969.24,342.77,0.34,1.18,-0.71,-421.62
14939,773.68,782.25,754.85,764.01,768.69,-36.62,-960.94,337.89,-1.26,-0.24,-1.55,-429.20
14975,772.32,782.26,754.94,764.27,768.45,-53.22,-961.43,343.75,-2.95,1.83,-1.69,-434.61
15011,770.74,782.36,755.03,764.71,768.21,-43.95,-956.05,329.10,-2.71,-0.57,-0.77,-438.18
15048,769.10,783.03,755.44,765.34,768.23,-59.08,-968.75,336.91,-1.96,2.06,-3.19,-449.21
15084,767.09,783.62,755.66,765.86,768.06,-23.93,-956.05,335.94,-3.94,1.10,-1.83,-455.13
15120,765.55,783.76,755.78,765.99,767.77,-38.57,-958.98,330.57,-0.71,0.39,-2.73,-457.03
15155,765.13,783.80,755.82,766.33,767.77,-32.23,-959.96,345.70,0.39,1.47,-2.84,-456.55
15191,765.28,784.39,755.97,766.60,768.06,-38.57,-965.82,332.52,-0.13,2.03,0.08,-463.14
15227,764.86,784.59,755.97,766.61,768.01,-41.99,-970.70,325.68,-0.92,-0.84,-3.31,-464.69
15264,764.88,784.44,755.96,766.67,767.99,-39.06,-965.82,328.61,-0.08,1.39,0.93,-463.08
15306,765.28,784.61,755.92,766.67,768.12,-41.50,-960.94,335.45,0.93,0.94,0.45,-464.61
15342,765.97,785.06,755.88,766.60,768.38,-19.53,-948.73,352.54,3.06,0.68,0.44,-466.87
15378,766.41,785.17,755.87,766.48,768.48,-52.25,-999.51,317.87,-1.89,-0.32,-1.19,-466.99
15414,765.15,784.90,756.04,766.72,768.20,-40.53,-949.71,323.73,-2.20,3.36,-2.92,-468.18
15450,765.26,784.86,756.00,766.46,768.15,-41.02,-955.08,340.33,-0.50,-2.08,1.08,-466.86
15486,765.30,784.79,755.90,766.00,768.00,-46.39,-965.82,331.54,-3.42,-0.56,0.37,-463.16
15522,766.03,785.11,755.68,765.70,768.13,-45.90,-965.33,333.01,1.95,1.30,0.67,-461.70
15558,767.55,785.20,755.54,765.56,768.46,-57.13,-969.24,332.03,3.71,0.74,0.73,-461.24
15594,768.00,785.08,755.51,765.26,768.46,-39.55,-972.66,326.17,-0.04,1.46,0.75,-459.08
15631,766.99,784.35,755.45,765.09,767.97,-48.83,-964.84,312.99,-3.79,0.17,-0.95,-453.63
15667,766.51,783.57,755.39,764.79,767.57,-23.93,-947.27,339.36,3.24,-1.24,-0.20,-448.50
15703,767.51,783.58,755.21,764.39,767.67,-27.34,-948.24,337.89,5.89,-1.30,0.44,-445.97
15739,769.18,783.58,754.99,763.69,767.86,-35.16,-962.89,336.91,5.60,-1.83,-1.28,-440.13
15776,771.19,783.00,754.64,763.19,768.01,-55.66,-979.00,327.64,4.63,1.44,-0.15,-431.60
15812,772.46,782.05,754.51,763.14,768.04,-62.99,-959.47,330.08,5.79,0.28,-0.45,-421.23
15848,772.50,781.17,754.47,762.85,767.75,-31.25,-944.34,354.49,5.60,-4.57,-0.86,-415.13
15887,772.21,780.32,754.43,762.54,767.38,-46.88,-960.94,355.96,-0.38,-4.65,-0.94,-413.79
15923,771.63,779.04,754.30,762.60,766.89,-21.97,-951.66,332.03,2.88,-3.75,0.76,-401.64
15960,770.63,779.70,754.39,762.37,766.77,-17.09,-937.99,358.89,-2.45,-1.33,-2.47,-408.98
15996,769.66,779.47,754.08,761.17,766.09,-40.53,-952.64,350.10,-4.62,1.21,0.07,-394.88
16032,770.72,778.86,753.78,761.15,766.13,-53.71,-955.57,317.87,2.27,1.24,-2.05,-381.10
16068,770.39,780.78,753.88,760.69,766.43,-18.55,-954.10,378.42,-4.89,-2.51,-5.82,-413.84
16104,771.87,779.62,753.08,758.52,765.77,-21.97,-950.20,383.79,3.47,-1.44,0.85,-420.93
16141,779.32,775.78,752.15,756.28,765.88,-59.57,-980.47,317.87,2.24,1.79,2.63,-393.42
16177,781.84,773.01,751.69,755.00,765.38,-62.50,-994.63,297.85,-1.81,-3.88,1.11,-361.96
16213,785.40,772.81,751.70,755.05,766.24,-23.44,-968.26,393.07,8.27,0.96,-2.48,-356.75
16249,788.05,773.17,751.79,755.56,767.14,-32.23,-952.64,362.30,6.33,-0.02,-2.79,-365.18
16286,787.94,772.59,751.95,756.34,767.21,-35.64,-950.20,356.93,6.27,-6.76,-2.11,-359.01
16322,787.56,772.99,752.24,757.63,767.61,-13.67,-935.06,408.20,6.31,-2.61,-1.35,-370.15
16365,784.95,773.56,752.53,758.57,767.40,-47.36,-974.61,368.16,-5.67,-2.94,-4.40,-371.83
16403,782.14,774.19,752.93,759.74,767.25,-41.99,-923.34,369.14,2.89,-0.50,-6.77,-373.03
16442,780.85,775.59,753.32,760.59,767.59,-34.18,-967.29,359.86,0.96,-1.15,-5.12,-360.41
16479,778.52,775.41,753.62,761.53,767.27,-21.00,-952.64,383.30,3.79,-3.24,-3.56,-356.99
16517,777.98,775.43,754.16,762.77,767.59,-23.44,-942.38,390.14,6.95,-0.15,-1.63,-361.15
16553,778.18,776.27,754.61,763.88,768.24,-45.41,-948.73,392.58,3.95,-3.37,-3.40,-383.81
16589,777.95,777.16,755.03,765.02,768.79,-25.39,-923.34,409.67,4.31,0.18,-0.28,-404.80
16625,777.21,777.83,755.55,766.41,769.25,-18.07,-976.56,344.73,1.63,-0.76,-4.31,-420.19
16661,776.15,778.07,756.43,767.95,769.65,-22.95,-937.99,393.07,6.21,-2.53,-7.83,-422.65
16698,776.00,778.19,756.84,768.82,769.96,31.25,-918.46,440.43,5.81,2.27,-3.51,-427.73
16734,776.40,777.72,756.89,769.04,770.01,-10.74,-921.39,391.60,2.66,-4.37,0.89,-426.09
16770,777.07,776.61,756.75,768.65,769.77,-7.32,-957.03,390.62,2.84,-2.77,-0.30,-410.86
16806,778.00,774.62,756.20,767.83,769.16,38.09,-892.09,457.03,1.00,-2.53,3.36,-390.52
16842,780.08,774.23,755.54,766.77,769.16,-36.62,-964.84,397.95,-2.72,3.55,3.63,-387.26
16878,780.69,773.42,755.05,765.05,768.55,-10.74,-930.18,412.60,-6.85,4.66,-2.08,-362.09
16914,780.62,771.80,754.41,763.57,767.60,-29.30,-951.17,372.07,-7.82,0.76,2.33,-341.90
16950,781.09,770.37,753.75,761.99,766.80,-10.25,-921.87,420.90,-5.95,3.05,0.30,-317.99
16989,783.94,769.64,753.02,760.28,766.72,-12.70,-927.73,404.30,-4.73,4.67,3.89,-294.52
17025,787.43,769.03,752.61,758.94,767.00,-35.16,-949.22,373.05,-2.86,5.58,2.31,-284.43
17061,790.40,768.03,752.30,757.91,767.16,-31.74,-962.40,372.07,-3.50,0.41,3.53,-276.62
17097,792.41,766.79,752.05,757.26,767.13,-22.46,-943.85,392.09,-1.97,0.14,3.16,-268.15
17133,794.61,765.62,751.95,756.59,767.19,-57.13,-949.22,398.93,3.61,-0.14,1.60,-265.49
17169,795.57,764.74,751.77,755.89,766.99,-17.58,-928.71,398.93,0.66,2.01,0.72,-256.44
17205,797.27,763.97,751.64,755.13,767.00,-49.32,-947.27,380.37,-0.63,1.89,3.37,-249.42
17241,798.27,763.69,751.48,754.48,766.98,-50.29,-951.17,383.79,-4.21,0.92,1.29,-246.80
17277,798.77,763.28,751.31,753.93,766.82,-47.36,-949.71,374.51,-3.07,-1.11,1.04,-236.39
17313,799.40,763.28,751.32,753.76,766.94,-41.02,-940.92,392.09,-1.39,2.63,-3.29,-237.72
17354,799.53,763.67,751.29,753.78,767.07,-45.90,-952.64,377.93,-3.36,0.92,-0.66,-241.34
17393,799.29,764.17,751.28,754.06,767.20,-46.88,-949.22,372.07,0.26,1.36,-2.13,-247.28
17432,798.59,764.95,751.29,754.53,767.34,-45.90,-954.10,388.67,0.97,-0.73,-0.12,-256.43
17470,797.58,765.48,751.30,755.13,767.37,-27.34,-922.85,390.14,0.11,1.33,-0.60,-258.87
17509,796.18,765.66,751.40,755.68,767.23,-41.02,-949.22,371.09,-0.16,3.21,-1.44,-257.18
17548,795.72,765.98,751.39,755.97,767.26,-48.34,-953.12,378.42,0.16,1.60,0.45,-259.02
17587,794.73,766.17,751.41,756.07,767.09,-42.48,-957.03,390.14,-1.09,-0.47,0.17,-259.33
17625,794.23,766.37,751.53,756.94,767.27,-57.13,-946.29,377.44,-2.59,1.89,0.59,-258.16
17664,793.38,766.79,751.62,756.94,767.18,-6.35,-941.89,382.81,-0.98,2.73,-0.07,-262.01
17703,792.74,766.45,751.62,756.91,766.93,-40.04,-951.66,366.70,-4.24,3.62,0.84,-256.63
17741,791.89,766.24,751.67,757.11,766.73,-58.59,-947.75,365.72,-2.97,0.96,-1.14,-252.02
17778,791.54,766.00,751.61,756.91,766.52,-51.76,-945.80,379.39,-0.73,-0.49,1.15,-249.48
17814,791.32,766.05,751.67,756.84,766.47,-43.95,-949.71,370.12,-3.98,3.92,-0.24,-249.75
17850,791.44,766.13,751.67,756.53,766.44,-30.27,-953.61,376.46,-2.37,1.91,-0.03,-252.37
17886,792.63,765.75,751.55,755.72,766.41,-47.85,-952.15,370.61,-6.11,1.73,-0.23,-250.31
17923,793.39,765.29,751.44,754.95,766.27,-62.01,-960.94,339.84,-7.76,2.85,-0.06,-244.52
17959,793.82,764.94,751.31,754.44,766.13,-49.80,-944.82,369.63,-6.21,0.71,-1.92,-236.52
17995,794.31,764.82,751.21,753.81,766.04,-39.06,-954.10,354.49,-6.86,-0.46,0.24,-238.88
18031,794.61,764.65,751.22,753.46,765.99,-66.89,-970.70,330.57,-2.71,0.37,3.20,-235.95
18068,792.93,764.37,751.22,753.03,765.39,-45.90,-953.12,354.98,-7.55,-0.26,3.20,-215.77
18104,791.40,764.72,751.18,753.02,765.08,-52.25,-965.33,343.26,-3.42,-1.40,-3.06,-217.14
18140,789.37,765.29,751.26,753.15,764.77,-47.85,-969.24,337.40,-1.84,0.91,-1.76,-220.54
18176,787.18,765.75,751.28,753.35,764.39,-47.85,-950.68,354.49,-5.01,-2.94,-0.82,-220.72
18212,785.75,767.08,751.53,754.19,764.64,-53.71,-990.23,325.68,3.62,-2.13,0.22,-245.82
18249,786.31,767.36,751.74,755.09,765.13,-59.08,-950.68,349.12,6.99,-0.18,-0.27,-248.31
18285,787.34,768.43,752.03,755.71,765.88,-49.32,-923.83,378.91,-0.56,1.62,-1.86,-265.11
18321,787.76,769.82,752.14,755.54,766.32,-45.41,-949.71,360.35,-9.17,2.95,-2.95,-299.05
18375,787.53,770.82,752.05,755.40,766.45,-43.95,-966.31,333.98,-7.08,4.22,0.09,-322.11
18412,788.26,770.82,752.10,755.37,766.64,-49.32,-965.82,343.75,-2.16,2.41,-1.15,-321.24
18449,788.95,770.90,752.10,755.34,766.82,-45.41,-956.54,345.70,-2.98,2.45,0.15,-323.41
18485,788.95,770.83,752.07,755.25,766.78,-48.83,-960.94,325.68,-2.23,0.16,-0.67,-323.05
18521,788.03,771.24,752.08,755.43,766.70,-44.92,-966.31,340.33,-7.02,2.64,-3.47,-327.99
18557,786.84,772.08,752.18,755.88,766.74,-54.20,-969.73,335.94,-0.62,4.56,-0.98,-335.95
18593,785.60,773.08,752.25,756.53,766.86,-51.76,-963.87,327.15,0.73,1.83,-4.30,-354.02
18629,783.47,774.29,752.54,757.29,766.90,-32.23,-964.84,353.52,1.52,2.71,-3.46,-366.11
18665,780.55,775.30,752.91,758.26,766.75,-48.34,-972.66,331.05,-1.66,0.73,-2.07,-367.87
18703,777.76,776.28,753.29,759.18,766.63,-29.30,-971.68,334.47,0.42,-1.39,-3.01,-356.08
18739,776.92,776.80,753.53,759.64,766.73,-41.99,-946.29,344.24,2.59,1.89,-1.38,-352.65
18775,775.85,777.63,753.69,760.01,766.79,-41.02,-965.33,346.19,-2.92,1.31,-4.06,-360.78
18811,775.47,778.60,753.77,760.14,766.99,-37.60,-965.33,354.00,-1.24,2.25,-0.47,-377.69
18847,775.15,778.92,753.79,760.34,767.05,-50.29,-966.31,323.73,-0.43,-0.53,-2.82,-383.73
18883,774.54,779.00,753.82,760.43,766.95,-46.39,-951.17,336.43,-0.48,1.95,0.53,-384.77
18919,774.48,779.12,753.84,760.46,766.98,-42.48,-970.21,348.14,-1.64,-0.50,0.40,-386.91
18955,774.77,779.19,753.83,760.36,767.04,-45.41,-956.05,357.42,2.72,-2.53,0.71,-388.32
18991,775.56,779.30,753.75,760.17,767.20,-46.88,-972.66,340.82,0.76,0.53,0.07,-390.55
19027,776.18,779.02,753.68,759.89,767.19,-45.41,-958.98,337.89,0.37,-2.69,0.24,-386.18
19064,776.63,779.05,753.67,759.81,767.29,-41.50,-965.82,349.12,-0.14,4.34,-0.45,-387.11
19113,777.03,779.66,753.77,760.44,767.72,-49.80,-973.63,336.91,-1.45,-1.29,1.32,-398.65
19149,775.78,779.69,753.90,760.65,767.51,-34.18,-959.96,338.38,0.10,0.03,-1.45,-397.07
19185,774.89,779.71,753.97,760.87,767.36,-44.92,-957.52,331.54,1.64,0.44,-0.67,-397.38
19221,774.54,779.82,754.04,760.94,767.34,-37.11,-958.98,342.77,0.76,2.00,-2.50,-399.69
19257,774.42,780.04,754.09,760.99,767.38,-39.06,-970.21,343.75,3.04,2.47,0.23,-403.45
19293,774.80,779.85,754.15,761.22,767.51,-42.97,-984.37,344.24,3.47,0.74,-1.60,-400.57
19328,775.03,780.13,754.26,761.51,767.73,-50.78,-953.61,339.84,2.67,-1.30,2.30,-404.92
19365,774.82,779.71,754.25,761.32,767.53,-44.92,-959.96,356.45,3.85,-3.27,-0.74,-400.57
19407,775.83,778.94,754.29,761.57,767.66,-39.06,-966.80,349.61,1.30,-0.92,0.11,-393.07
19446,775.70,778.54,754.28,761.44,767.49,-53.71,-969.24,345.70,1.79,-0.36,-1.69,-389.22
19484,776.12,776.04,753.86,760.49,766.63,-18.07,-937.50,371.58,4.98,-1.34,5.05,-350.81
19522,777.14,775.36,753.57,759.92,766.50,-52.73,-966.31,376.46,-2.92,1.15,-1.00,-345.60
19558,776.75,774.07,753.35,759.18,765.84,-25.39,-948.24,356.45,1.03,-3.88,2.62,-329.53
19594,778.37,772.50,753.20,759.04,765.78,-48.83,-962.89,361.82,3.18,-1.31,-0.55,-308.53
19630,778.24,772.72,753.22,759.30,765.87,-24.41,-964.84,343.26,2.26,0.91,-1.12,-312.77
19667,778.51,771.31,752.88,758.30,765.25,-62.99,-972.66,361.33,-1.31,-2.18,-0.49,-272.70
19703,780.18,768.80,752.46,757.34,764.70,-51.76,-959.47,363.77,3.86,-2.02,1.47,-232.56
19739,783.21,767.55,752.04,756.56,764.84,-41.02,-920.41,388.18,1.98,-0.38,-1.82,-231.21
19775,785.81,767.07,751.88,755.78,765.13,-61.04,-974.12,335.94,1.05,3.19,-1.75,-231.75
19812,788.38,767.30,751.73,755.58,765.75,-46.39,-968.26,354.00,5.96,2.52,-1.63,-255.44
19848,789.22,767.96,751.72,755.63,766.13,-65.43,-937.50,366.70,-2.17,2.79,-1.34,-270.47
19884,788.21,769.08,751.81,756.18,766.32,-18.55,-954.10,343.26,-0.34,4.75,-5.36,-291.01
19920,787.15,770.54,751.95,756.62,766.57,-51.27,-990.72,351.56,-2.40,2.91,-3.98,-324.55
19957,786.37,771.75,752.11,757.15,766.85,-26.86,-922.85,384.77,1.38,3.44,-4.04,-344.68
19993,786.49,773.27,752.26,757.56,767.40,-20.51,-966.31,345.70,1.39,3.23,-3.90,-370.18
20029,786.80,774.02,752.29,757.87,767.75,-22.95,-937.99,361.82,3.27,-0.53,-3.80,-379.23
20065,787.01,774.76,752.43,758.71,768.23,-12.70,-942.38,391.11,2.08,1.23,-4.38,-392.60
20101,785.57,775.01,752.76,759.69,768.26,-13.67,-971.68,349.61,3.27,-3.37,-2.15,-393.41
20138,784.78,775.12,753.07,760.83,768.45,-36.13,-932.13,402.83,6.15,-3.99,-2.92,-390.17
20174,783.19,775.00,753.42,761.81,768.36,-19.04,-949.71,389.16,4.42,-1.27,-3.17,-367.39
20210,781.91,774.64,753.65,762.58,768.19,-8.30,-942.87,380.86,3.82,-1.37,-0.79,-367.42
20246,781.34,775.02,754.03,762.99,768.35,-32.71,-941.89,394.04,1.10,0.11,-2.66,-364.28
20282,780.43,775.01,754.17,763.13,768.18,-43.95,-946.78,378.42,-0.88,0.02,-2.76,-364.03
20318,779.77,774.91,754.27,763.46,768.10,-27.34,-944.82,390.14,-0.68,0.38,-1.09,-366.14
20354,780.52,775.12,754.42,763.96,768.51,-16.11,-957.03,357.91,4.50,0.34,-4.24,-374.71
20396,781.50,774.17,754.45,763.98,768.53,-16.60,-925.29,394.04,1.97,-4.83,1.00,-366.78
20432,782.47,773.47,754.44,763.96,768.58,-28.81,-942.87,386.23,3.68,-1.44,0.52,-363.25
20468,783.79,773.25,754.27,763.59,768.72,-34.18,-948.73,365.72,-2.22,-2.40,1.62,-363.28
20504,784.74,772.61,754.11,763.06,768.63,-25.39,-937.50,388.67,-3.05,-0.75,1.61,-357.28
20540,785.63,771.90,753.79,762.56,768.47,0.49,-929.69,384.28,0.44,1.51,1.94,-352.80
20576,786.66,771.01,753.55,762.03,768.31,-41.99,-941.89,395.02,-1.84,-0.85,0.81,-350.94
20612,786.27,770.34,753.30,761.56,767.87,-30.27,-936.04,381.35,-3.29,0.21,1.07,-343.89
20648,785.96,770.12,753.22,761.23,767.63,-27.83,-941.89,380.37,-2.63,1.50,2.73,-329.93
20684,786.08,770.05,753.17,760.76,767.52,-20.51,-952.15,380.86,-3.27,1.20,-1.26,-319.56
20721,786.32,770.01,753.03,760.51,767.47,-10.74,-945.80,377.44,-1.92,-2.46,-2.74,-315.15
20757,786.77,769.89,752.91,760.05,767.41,-35.64,-960.45,377.93,-2.08,-0.89,3.96,-306.54
20793,787.18,769.90,752.72,759.75,767.39,-34.18,-946.29,374.51,-3.08,-2.32,-1.55,-311.89
20829,787.81,770.00,752.67,759.62,767.52,-34.67,-959.47,357.91,-0.44,2.85,-2.39,-319.67
20865,788.47,770.02,752.73,759.62,767.71,-21.97,-945.31,363.28,1.74,1.33,-0.38,-319.55
20902,790.39,770.77,752.74,760.05,768.49,-44.43,-942.87,366.70,3.69,-1.73,-0.24,-364.16
20938,793.08,771.88,752.73,760.38,769.52,-15.63,-942.87,398.44,5.31,2.20,-1.78,-391.98
20974,794.91,772.65,752.83,760.48,770.22,-34.67,-940.92,381.84,4.15,4.39,2.12,-394.69
21010,795.89,773.06,752.75,760.42,770.53,-30.27,-955.57,381.84,-0.53,3.05,-1.35,-402.60
21047,795.17,773.48,752.50,760.12,770.32,-35.64,-933.59,382.81,-2.76,2.08,-2.89,-416.40
21083,793.36,773.87,752.35,759.92,769.87,-29.79,-953.12,382.81,-6.15,3.27,-2.05,-420.05
21119,791.40,774.39,752.30,759.82,769.48,-40.53,-950.20,368.16,-6.09,1.54,-0.80,-421.40
21155,789.66,774.99,752.21,759.49,769.09,-32.71,-934.57,403.32,-4.62,2.77,1.13,-420.88
21191,788.07,775.55,752.26,759.59,768.87,-48.34,-973.14,345.70,-4.28,2.40,-2.88,-421.67
21227,786.91,776.19,752.25,759.63,768.75,-29.79,-955.08,376.95,-3.90,0.34,1.65,-424.39
21264,785.98,776.71,752.40,759.63,768.68,-35.64,-962.89,375.00,-4.02,1.94,-0.92,-422.92
21300,785.07,776.65,752.41,759.36,768.37,-15.63,-942.87,354.49,-3.51,-0.92,1.31,-416.32
21336,784.50,776.57,752.41,759.09,768.14,-63.96,-959.96,344.73,-4.38,2.16,0.65,-411.94
21372,783.19,776.55,752.59,758.80,767.78,-36.13,-971.19,349.12,-3.92,-0.31,-0.58,-402.34
21408,782.80,775.81,752.54,758.14,767.32,-38.57,-953.61,348.14,-2.27,2.07,-3.08,-387.67
21451,782.73,775.00,752.43,757.40,766.89,-38.09,-956.54,337.89,-2.84,0.01,1.49,-376.68
21488,783.55,774.59,752.37,756.78,766.82,-40.04,-961.91,333.50,-2.85,-0.89,1.88,-371.95
21524,784.00,773.53,752.18,756.01,766.43,-57.62,-958.98,357.42,-3.83,1.28,4.73,-358.66
21561,784.12,772.17,752.08,755.57,765.99,-36.62,-953.61,351.07,-0.85,0.37,-1.41,-339.29
21597,783.16,771.23,751.99,755.49,765.47,-40.04,-958.98,347.66,-2.40,-1.26,1.09,-324.26
21634,782.75,770.15,751.97,755.39,765.06,-63.96,-966.80,353.03,-0.53,-0.58,4.64,-301.71
21670,782.60,769.28,751.92,755.39,764.80,-42.97,-955.08,354.49,0.09,-2.83,2.11,-282.14
21706,781.27,768.97,751.96,755.72,764.48,-44.43,-959.96,340.82,-2.97,-0.76,-0.82,-261.36
21742,778.65,769.80,752.26,756.28,764.25,-52.73,-966.31,341.31,-3.81,1.56,-0.56,-264.01
21779,777.04,770.51,752.41,757.12,764.27,-43.95,-970.70,354.00,0.88,-1.56,-2.19,-269.52
21815,777.47,771.39,752.75,758.25,764.96,-43.46,-962.89,333.50,5.99,-4.41,-1.32,-274.44
21851,778.79,772.19,753.14,759.29,765.85,-42.48,-965.82,377.93,5.31,-3.11,0.56,-303.19
21887,779.69,773.86,753.42,759.79,766.69,-49.32,-950.68,374.51,-1.21,2.14,0.10,-334.49
21923,779.79,775.42,753.58,760.00,767.20,-50.29,-963.38,353.03,-8.34,1.63,-3.43,-343.61
21959,779.35,776.18,753.68,760.40,767.40,-42.48,-979.00,334.47,-3.49,1.85,-4.21,-347.20
21995,779.27,777.37,753.87,760.68,767.80,-59.08,-968.26,346.19,-2.92,2.29,-2.26,-359.95
22031,777.97,778.64,754.02,761.10,767.93,-56.15,-968.26,341.31,-4.86,-0.55,-1.74,-380.65
22067,776.96,780.36,754.30,762.01,768.41,-42.48,-959.96,333.50,-0.80,-0.79,-2.31,-404.17
22106,775.28,781.49,754.62,762.58,768.49,-43.95,-969.24,333.98,-3.20,0.64,-1.36,-418.60
22142,773.89,782.25,754.96,763.33,768.61,-43.95,-955.57,347.66,-0.24,7.15,-4.28,-432.97
22179,771.90,783.36,755.42,764.30,768.75,-53.22,-966.31,343.26,-2.37,2.55,-3.49,-447.67
22215,769.30,783.89,755.69,764.71,768.40,-34.67,-959.96,349.12,-0.71,2.38,-3.13,-454.46
22253,768.30,784.22,755.92,765.54,768.50,-50.29,-965.82,343.75,-0.01,0.05,-2.02,-459.84
22289,767.24,784.57,756.13,765.77,768.43,-34.67,-956.05,342.29,0.48,1.74,-2.66,-464.80
22325,766.23,784.21,756.10,765.81,768.09,-39.06,-942.38,341.80,0.82,0.57,-1.83,-463.32
22361,765.58,784.35,756.25,765.89,768.02,-22.95,-954.10,333.98,-0.10,0.85,-0.99,-466.29
22397,765.29,784.21,756.21,765.96,767.91,-31.74,-965.33,333.98,3.24,-0.79,-0.24,-465.54
22438,765.73,784.16,756.05,765.77,767.92,-32.71,-949.71,340.33,3.73,-0.62,-0.09,-462.50
22477,766.20,784.06,755.99,765.56,767.95,-38.57,-965.82,337.40,0.43,0.26,0.08,-461.00
22516,766.77,783.80,755.92,765.22,767.92,-41.02,-974.12,338.38,0.62,3.17,-3.34,-459.42
22555,767.06,783.56,755.80,765.03,767.86,-38.57,-951.66,356.45,1.41,-1.31,-1.55,-456.92
22592,767.46,783.21,755.58,764.72,767.74,-31.25,-964.36,340.82,-3.05,2.84,-1.73,-450.91
22629,768.04,782.87,755.56,764.43,767.72,-40.04,-967.77,338.38,-0.12,1.09,-0.15,-449.36
22665,768.31,782.94,755.49,764.23,767.74,-36.62,-963.87,342.29,-2.15,0.50,1.40,-448.07
22701,768.54,782.95,755.36,763.95,767.70,-41.50,-963.38,339.36,-0.48,0.76,-3.31,-445.92
22737,769.05,782.85,755.24,763.77,767.73,-30.27,-964.84,350.10,-0.04,-1.08,1.94,-443.27
22774,769.34,782.86,755.30,763.71,767.80,-30.27,-968.26,347.66,-2.15,-0.16,-0.39,-444.44
22810,769.29,782.90,755.29,763.67,767.79,-52.73,-969.73,340.33,-1.98,-1.31,-0.83,-444.37
22846,769.50,782.88,755.15,763.45,767.74,-42.97,-949.22,345.21,-0.65,-2.57,1.08,-442.26
22882,769.76,782.73,755.02,763.31,767.71,-44.43,-961.91,344.24,-2.07,-1.34,0.05,-439.52
22919,769.65,782.79,755.09,763.22,767.69,-44.43,-965.82,350.10,0.49,3.69,0.48,-441.23
22955,769.50,782.78,755.02,763.00,767.57,-28.81,-946.78,338.38,-0.43,1.35,-0.16,-440.97
22991,769.40,782.75,754.92,762.88,767.49,-31.25,-967.29,345.70,-0.16,-1.01,0.43,-438.80
23027,768.93,783.10,755.09,763.04,767.54,-41.02,-979.00,333.98,-0.43,-1.38,-3.01,-444.33
23064,768.01,783.29,755.16,763.25,767.43,-36.13,-954.10,336.91,-2.73,-0.02,-2.85,-446.38
23100,766.83,783.49,755.27,763.41,767.25,-47.36,-972.66,348.14,-1.83,3.66,-1.15,-449.02
23136,765.54,783.41,755.43,763.82,767.05,-39.06,-966.31,330.08,-3.03,0.89,-2.62,-450.31
23172,764.07,783.22,755.58,763.95,766.71,-49.80,-970.70,338.87,-1.72,-1.41,-1.44,-452.08
23209,763.43,781.83,755.41,763.83,766.13,-21.48,-942.87,357.91,2.53,0.16,2.78,-436.72
23245,763.42,782.38,755.61,764.22,766.41,-42.97,-960.94,337.40,-1.10,-3.30,-2.54,-443.27
23281,763.43,782.57,755.36,763.11,766.12,2.44,-948.24,366.21,-2.60,0.52,-0.20,-446.98
23317,765.43,780.94,754.73,762.19,765.82,-22.95,-971.19,313.96,5.06,0.47,0.20,-424.66
23354,766.73,782.21,754.79,762.32,766.51,-42.97,-965.33,352.05,-3.21,0.73,-2.41,-440.86
23390,765.79,782.40,754.39,760.61,765.80,-18.07,-922.85,396.97,-4.53,-3.86,-3.95,-443.88
23426,771.26,780.48,753.39,758.94,766.02,-49.80,-959.47,295.41,9.41,3.30,5.34,-419.86
23462,772.01,779.95,753.10,757.94,765.75,-2.44,-939.45,383.79,-6.53,2.58,-3.04,-424.22
23503,775.01,777.63,752.43,756.33,765.35,-33.20,-975.10,324.71,1.41,-0.55,3.15,-409.11
23542,781.04,774.93,751.93,755.02,765.73,-42.48,-958.98,325.68,6.22,-1.82,1.85,-389.57
23579,785.35,773.35,751.68,754.39,766.19,-49.80,-982.42,346.68,7.38,-5.22,-0.69,-368.78
23615,789.35,772.71,751.49,754.33,766.97,-84.47,-945.80,360.84,4.43,-1.41,-1.69,-362.30
23651,789.57,773.07,751.55,754.83,767.26,-30.76,-929.20,384.28,-0.19,-1.66,-1.85,-366.53
23687,789.05,773.95,751.68,755.45,767.53,-17.58,-963.87,349.12,2.33,1.15,-0.18,-382.64
23723,788.31,774.51,751.89,756.03,767.69,-28.32,-961.91,364.26,0.02,3.21,-2.66,-389.09
23759,787.13,775.21,751.88,756.48,767.67,-10.74,-945.31,375.00,1.70,1.79,-3.48,-398.33
23799,787.70,776.06,752.07,757.37,768.30,-31.25,-969.24,371.09,5.69,3.66,-1.34,-405.61
23837,787.34,777.01,752.30,758.72,768.84,-52.73,-963.87,380.86,1.92,0.89,-0.98,-421.17
23876,786.12,777.81,752.68,759.89,769.13,-23.44,-953.12,369.63,3.62,0.87,-1.15,-427.66
23912,784.66,778.27,752.92,760.67,769.13,-15.14,-942.87,396.97,-2.11,-2.80,-1.98,-429.26
23947,783.76,779.33,753.17,761.87,769.53,-32.71,-953.61,354.49,0.68,-1.32,-1.29,-444.97
23983,783.13,780.31,753.48,762.61,769.88,-36.62,-953.12,367.68,-2.76,0.40,-1.59,-438.57
24019,781.23,781.51,753.71,763.35,769.95,-20.02,-961.91,338.87,-2.31,-0.80,-4.87,-444.06
24056,781.30,782.52,753.95,763.71,770.37,-34.18,-940.92,383.79,-2.15,-0.28,-2.45,-440.94
24091,780.75,782.52,753.84,763.46,770.14,-16.11,-939.94,390.62,0.97,1.17,-0.89,-447.15
24128,780.98,782.07,753.70,763.36,770.03,-11.23,-968.26,349.12,-2.09,2.60,-1.26,-450.36
24164,781.43,782.25,753.66,762.95,770.07,-45.41,-965.33,333.01,-1.93,1.47,-1.28,-450.39
24200,781.23,781.74,753.59,762.24,769.70,-15.63,-952.64,385.25,-4.44,3.50,-3.15,-442.61
24236,781.14,780.59,753.31,761.80,769.21,-24.41,-967.29,336.91,-0.62,-0.21,-3.16,-439.69
24272,781.82,780.80,753.31,761.51,769.36,-21.48,-951.66,381.35,-1.65,1.76,0.57,-439.90
24309,782.75,780.95,753.15,760.93,769.45,-16.11,-958.01,350.10,-2.70,4.47,0.35,-448.55
24345,783.78,780.36,752.80,759.75,769.17,-23.44,-942.87,370.12,-3.82,3.44,2.22,-448.66
24381,784.58,779.53,752.57,758.94,768.90,-36.13,-958.01,337.89,-1.45,4.47,-0.14,-441.17
24417,785.18,778.45,752.30,758.05,768.49,-27.83,-960.94,350.10,-4.45,0.89,3.59,-430.25
24453,785.48,776.93,752.05,757.48,767.99,-31.25,-965.82,349.61,-2.68,0.45,1.67,-415.88
24493,785.65,775.75,751.93,756.95,767.57,-23.93,-957.52,355.96,1.41,1.60,2.05,-403.57
24532,786.46,774.92,751.87,756.59,767.46,-18.55,-954.10,360.35,-0.41,-0.61,-0.15,-394.81
24571,787.69,773.79,751.75,756.29,767.38,-37.60,-963.87,353.03,0.67,-2.82,1.99,-383.34
24610,788.46,772.79,751.72,756.01,767.24,-29.79,-960.94,365.23,0.14,-0.60,1.23,-364.14
24648,789.58,771.84,751.56,755.74,767.18,-37.11,-962.40,357.42,0.31,-1.27,-0.49,-345.11
24687,790.71,770.59,751.54,755.33,767.04,-38.09,-960.94,344.24,2.90,-4.34,2.73,-326.43
24726,791.77,769.68,751.42,755.03,766.98,-46.88,-963.38,336.91,1.52,1.82,1.53,-314.01
24765,793.07,768.91,751.28,754.65,766.98,-21.97,-943.85,381.84,1.98,0.32,1.56,-306.68
24803,795.04,768.21,751.27,754.51,767.26,-60.06,-951.66,352.05,2.40,-1.27,1.18,-299.28
24840,797.12,768.02,751.25,754.49,767.72,-54.69,-942.38,381.84,4.09,0.87,0.93,-300.31
24876,799.48,768.35,751.26,754.66,768.44,-55.18,-960.94,336.43,2.89,2.44,-0.94,-308.33
24912,800.88,768.46,751.16,754.86,768.84,-49.80,-954.10,393.55,2.31,1.90,-0.11,-312.99
24948,800.05,768.56,751.16,754.90,768.67,-36.13,-934.57,379.88,-0.22,1.37,-1.95,-313.24
24985,799.22,768.92,751.17,755.03,768.59,-29.30,-943.36,369.63,-0.07,2.04,-0.93,-316.03
25021,798.11,769.49,751.17,755.06,768.46,-31.74,-948.24,378.91,-2.00,2.91,-2.52,-321.71
25057,797.03,769.47,751.13,755.09,768.18,-62.01,-963.87,343.75,-0.59,2.17,-1.32,-320.35
25093,796.73,769.17,751.21,755.18,768.07,-52.25,-942.38,387.21,-1.48,-0.35,-0.47,-316.30
25130,796.45,768.81,751.18,755.07,767.88,-35.16,-951.66,375.00,-2.88,1.02,-1.58,-310.35
25166,796.02,768.60,751.18,755.27,767.77,-61.04,-950.68,371.58,-2.93,1.22,0.45,-305.33
25202,795.40,767.58,751.14,754.70,767.21,-29.30,-948.73,389.16,-4.16,-0.07,2.83,-287.64
25238,795.58,765.88,750.99,754.38,766.71,-51.76,-944.82,373.05,-2.93,-1.39,2.05,-254.05
25274,794.38,765.59,751.14,754.87,766.50,-53.71,-950.68,364.75,-3.89,0.23,-2.43,-246.64
25310,793.23,764.81,751.14,754.26,765.86,-45.90,-962.40,356.93,-5.01,0.05,2.89,-226.90
25346,793.39,763.15,751.06,753.76,765.34,-63.96,-953.61,356.93,-3.63,4.34,0.95,-165.07
25382,793.19,763.44,751.11,753.71,765.36,-59.57,-940.43,353.52,0.15,-0.13,-4.04,-177.00
25417,791.72,763.92,751.17,753.42,765.06,-44.92,-941.89,322.75,-4.66,1.02,-0.85,-179.05
25453,790.78,763.70,751.13,753.15,764.69,-59.08,-960.45,336.43,-4.68,0.92,1.26,-146.73
25496,788.88,763.95,751.18,753.28,764.32,-56.64,-958.50,357.91,-1.51,-1.31,-0.16,-139.06
25539,787.81,764.25,751.28,753.43,764.19,-41.99,-949.22,357.42,-2.57,-0.66,0.24,-145.41
25577,787.33,764.43,751.37,753.73,764.22,-71.29,-972.66,334.96,-2.29,-2.16,0.76,-153.81
25616,786.35,764.89,751.40,753.81,764.11,-39.55,-937.01,366.70,-2.65,-0.11,0.43,-166.55
25652,785.67,765.38,751.50,754.43,764.24,-47.85,-973.14,308.11,-0.31,1.98,-0.53,-188.04
25688,785.68,766.24,751.68,755.27,764.72,-50.78,-964.36,324.71,3.54,-2.89,-0.17,-225.49
25724,786.90,767.15,751.99,756.21,765.56,-44.92,-945.80,354.49,7.11,-2.99,-0.18,-235.10
25760,788.93,768.75,752.33,756.89,766.73,-34.18,-947.75,374.51,1.23,1.14,-0.35,-270.56
25797,790.01,770.37,752.49,757.05,767.48,-39.55,-967.77,328.61,-3.69,1.76,-0.87,-310.40
25833,790.71,770.51,752.47,757.03,767.68,-43.46,-920.90,366.21,-13.06,7.39,2.58,-317.26
25869,791.55,770.10,752.43,756.86,767.73,-52.25,-961.43,351.07,-3.80,-0.09,2.49,-312.33
25905,791.87,769.46,752.29,756.48,767.52,-51.27,-961.91,356.45,-4.80,1.84,0.87,-302.34
25942,792.28,769.83,752.37,756.70,767.80,-54.69,-961.91,345.70,-2.38,2.85,-1.94,-310.62
25978,790.13,770.57,752.50,757.40,767.65,-36.62,-969.24,334.47,0.15,3.02,-2.91,-321.45
26014,788.00,771.80,752.79,758.62,767.80,-49.80,-959.96,357.42,4.18,3.49,-2.50,-348.11
26051,784.90,773.91,753.41,759.87,768.02,-30.76,-944.34,365.72,0.18,3.14,-3.83,-340.75
26087,781.43,775.32,753.75,760.63,767.78,-28.81,-963.38,342.77,-2.76,4.26,-5.76,-346.24
26123,779.40,776.78,754.22,761.78,768.04,-48.83,-967.77,344.73,0.72,-1.08,-3.56,-372.67
26159,776.92,778.40,754.52,762.42,768.06,-46.88,-973.14,339.84,-2.47,-0.27,-1.47,-399.32
26196,774.60,779.05,754.80,762.85,767.82,-44.43,-951.66,343.26,-0.85,2.46,-0.85,-412.24
26232,772.85,780.02,754.99,763.55,767.85,-41.02,-966.31,342.29,-1.38,-3.18,-5.66,-423.07
26267,771.47,780.57,755.19,763.69,767.73,-36.13,-953.12,349.12,0.37,2.19,-0.95,-429.54
26304,771.65,780.69,755.25,763.68,767.82,-39.06,-957.52,352.54,2.91,1.17,-2.46,-431.93
26340,772.19,780.78,755.19,763.51,767.92,-29.79,-960.94,350.10,2.08,1.52,-0.73,-431.87
26376,772.69,780.52,754.96,763.03,767.80,-34.18,-956.54,350.59,-0.13,-1.20,-0.47,-427.45
26412,773.50,780.05,754.77,762.73,767.76,-53.22,-953.12,334.96,1.38,-0.52,-1.53,-422.06
26448,774.17,779.71,754.73,762.48,767.77,-44.43,-953.12,353.52,-0.06,1.21,1.65,-418.54
26485,774.39,779.53,754.65,762.23,767.70,-32.23,-970.70,341.31,-0.30,1.38,0.52,-414.89
26521,774.68,779.23,754.64,762.12,767.67,-51.76,-961.91,334.96,0.85,0.50,-1.29,-410.87
26560,774.86,779.06,754.55,762.07,767.64,-42.97,-953.61,349.61,-1.31,-2.14,1.23,-406.89
26596,774.91,778.91,754.60,761.99,767.60,-39.06,-954.59,348.63,-0.96,-0.46,-0.73,-405.71
26633,775.03,778.73,754.52,761.85,767.53,-42.48,-965.33,342.77,-0.54,-1.00,-1.78,-400.84
26669,775.48,778.50,754.55,761.68,767.55,-42.97,-961.43,337.89,0.45,-0.05,-0.56,-397.53
26707,775.76,778.59,754.47,761.70,767.63,-28.81,-959.96,341.31,-0.22,-0.85,-2.18,-397.30
26746,775.67,778.78,754.44,761.74,767.66,-43.95,-963.38,338.38,-2.27,0.76,0.17,-398.98
26784,775.50,779.00,754.49,761.95,767.74,-50.29,-963.87,354.49,2.60,2.17,-0.48,-404.01
26823,775.22,779.33,754.53,762.07,767.79,-58.11,-957.03,348.63,-2.27,-0.34,-2.53,-409.15
26859,774.85,779.63,754.56,762.13,767.79,-48.83,-960.94,338.38,0.08,3.87,-0.66,-413.00
26898,774.55,779.89,754.58,762.17,767.80,-43.46,-961.43,348.63,-0.81,1.17,0.73,-415.12
26937,774.27,780.23,754.51,761.92,767.73,-41.02,-966.31,347.66,-0.53,-1.36,-0.45,-413.04
26973,774.08,780.60,754.41,761.56,767.66,-47.85,-977.54,338.87,-2.08,-0.58,-3.65,-413.25
27009,773.87,781.29,754.24,760.64,767.51,-39.55,-942.87,352.05,-6.73,2.95,-0.52,-422.94
27045,773.57,782.41,753.93,759.13,767.26,-26.37,-955.57,336.43,-8.16,-0.48,-3.07,-445.26
27081,773.16,783.50,753.55,758.38,767.15,-42.97,-968.75,331.05,-7.59,3.89,-2.02,-470.56
27117,772.56,783.99,753.58,758.49,767.15,-43.46,-979.98,316.41,1.73,-1.40,-2.29,-478.35
27153,772.57,783.64,753.60,758.77,767.15,-33.69,-982.91,333.50,3.98,0.03,-0.11,-470.65
27192,772.76,783.45,753.65,759.11,767.25,-38.09,-960.45,328.61,3.05,-2.30,0.04,-464.91
27228,773.15,782.39,753.75,759.35,767.16,-31.74,-958.98,338.87,5.05,-1.98,1.55,-443.57
27264,773.78,781.23,753.71,759.30,767.01,-23.44,-970.21,346.68,5.15,-5.82,-1.25,-423.94
27300,774.30,780.79,753.73,759.66,767.12,-73.73,-952.64,355.47,1.76,0.76,-3.79,-415.41
27335,773.21,780.50,753.79,759.82,766.83,-52.73,-973.14,316.89,-0.13,0.92,0.14,-409.22
27371,772.28,781.10,753.97,760.44,766.95,-83.50,-962.40,347.66,-5.90,1.31,-2.96,-418.81
27407,771.38,780.87,754.03,760.05,766.59,-23.44,-928.71,340.33,1.89,1.94,-0.46,-415.62
27447,773.34,779.51,753.65,759.44,766.49,-57.62,-977.05,322.75,1.37,4.04,-0.45,-392.17
27485,773.33,778.99,753.45,758.85,766.16,-60.06,-960.94,340.82,-4.54,0.20,-2.85,-388.15
27524,775.60,776.30,752.73,757.11,765.43,-33.20,-926.27,385.74,6.93,-4.88,3.69,-377.01
27563,782.26,772.89,752.20,755.83,765.80,-62.50,-971.19,321.78,5.63,-7.21,3.56,-345.26
27606,787.58,771.12,751.89,755.27,766.46,-63.96,-968.75,347.17,4.23,-1.49,-1.93,-331.48
27642,789.76,770.92,751.84,755.16,766.92,-56.15,-979.00,340.82,3.08,-1.49,0.89,-329.40
27678,791.53,770.69,751.66,755.03,767.23,0.49,-915.04,417.48,7.54,-0.31,-1.95,-326.96
27715,793.48,771.13,751.76,755.35,767.93,-38.57,-966.31,378.42,3.11,-1.15,-0.60,-335.04
27751,792.98,772.14,751.78,755.49,768.10,-40.04,-956.54,361.82,-1.82,0.90,-1.56,-350.86
27787,791.81,772.56,751.76,755.76,767.97,-21.48,-959.47,371.58,2.34,2.77,-1.79,-360.38
27823,792.31,772.71,751.81,756.14,768.24,-23.44,-937.50,398.93,6.19,0.14,-0.84,-367.02
27859,792.58,772.90,751.95,756.75,768.54,-34.67,-966.31,375.98,2.43,-1.56,-0.37,-376.88
27895,790.90,773.06,752.01,757.56,768.38,-29.79,-946.78,372.07,3.49,-3.40,-0.40,-382.26
27931,789.34,772.87,752.21,758.28,768.17,-9.28,-938.96,393.55,1.39,-4.54,-1.66,-381.96
27968,787.55,773.44,752.51,759.31,768.20,-50.29,-951.66,395.02,0.11,-1.18,-3.21,-392.03
28004,785.37,774.23,752.87,760.52,768.25,-29.30,-943.85,397.46,3.02,3.03,-2.63,-395.18
28040,783.18,774.69,753.20,761.25,768.08,-36.13,-931.15,369.14,-2.37,-1.18,-3.85,-377.95
28076,781.15,774.84,753.48,761.87,767.84,-27.83,-950.68,365.72,0.09,-2.99,-1.41,-361.98
28112,780.60,775.25,753.79,762.43,768.02,-32.71,-936.04,380.37,0.86,-2.10,-0.21,-361.71
28148,780.36,774.99,753.90,762.62,767.97,-14.16,-963.87,369.63,1.38,-3.78,0.57,-361.35
28184,780.84,774.79,753.92,762.64,768.05,-23.93,-938.96,396.48,3.06,1.85,-0.69,-360.36
28220,782.11,775.31,753.93,762.53,768.47,-19.04,-938.96,378.42,2.18,0.05,-1.18,-362.93
28257,783.42,775.33,753.79,762.20,768.68,-22.95,-955.08,368.16,-1.49,-3.75,-1.44,-356.96
28293,784.22,775.01,753.68,761.96,768.72,-29.79,-938.48,381.84,-0.56,-1.02,2.16,-353.80
28329,784.53,774.48,753.62,761.66,768.57,-43.95,-947.27,396.48,-3.92,-0.27,-0.20,-350.10
28365,785.05,773.92,753.37,761.07,768.35,-22.95,-943.36,403.32,-2.76,0.40,1.47,-353.12
28401,786.05,773.57,753.17,760.26,768.26,-26.37,-941.89,395.02,-4.59,1.98,1.59,-356.37
28437,786.57,773.09,752.81,759.53,768.00,-32.71,-950.68,368.16,-3.37,2.17,-0.06,-379.27
28473,787.17,772.58,752.52,758.78,767.76,-13.67,-943.36,384.28,-4.52,-1.68,1.50,-367.47
28509,787.56,771.73,752.33,757.92,767.38,-25.39,-956.54,359.37,-5.56,0.57,-0.14,-350.73
28546,787.48,770.85,752.09,757.18,766.90,-47.36,-964.36,359.37,-3.74,3.43,-0.13,-333.05
28586,788.19,770.48,751.95,756.77,766.85,-34.67,-958.98,369.63,-1.70,-0.15,0.06,-329.19
28625,788.79,770.40,751.88,756.67,766.94,-45.41,-943.36,370.61,-1.50,-2.31,-1.16,-330.64
28667,788.83,770.27,751.86,756.51,766.87,-27.34,-948.73,374.51,-3.80,1.05,-1.69,-326.91
28703,788.91,770.04,751.85,756.47,766.82,-41.99,-941.89,356.45,-1.60,-3.60,2.55,-322.15
28738,788.95,769.80,751.83,756.39,766.74,-21.00,-951.66,368.16,-0.19,0.03,-1.28,-316.70
28774,789.03,769.58,751.85,756.25,766.68,-45.41,-954.10,373.54,-1.50,0.47,-0.69,-309.48
28810,789.04,769.41,751.84,756.14,766.61,-27.34,-945.80,374.02,-2.15,-1.56,0.12,-303.31
28847,789.88,769.66,751.84,756.29,766.92,-52.25,-943.85,367.19,0.95,2.49,-0.87,-314.70
28887,791.72,770.35,751.85,756.78,767.67,-18.55,-962.40,380.37,4.42,-1.18,-0.73,-338.49
28923,794.92,771.36,752.05,757.42,768.94,-41.99,-945.80,352.54,8.01,-2.34,-0.33,-365.41
28959,797.00,771.96,752.07,757.76,769.70,-51.27,-959.96,376.46,6.76,1.55,-1.18,-378.22
28995,797.21,771.82,752.00,757.61,769.66,-40.04,-937.99,390.14,1.49,-0.57,2.28,-373.91
29031,796.14,771.61,751.86,757.37,769.24,-46.88,-955.57,368.65,-3.72,-0.27,-1.79,-368.81
29067,794.68,771.84,751.79,757.10,768.85,-59.57,-951.17,369.63,-5.33,1.44,-1.91,-367.04
29103,793.03,772.01,751.78,757.18,768.50,-37.60,-947.75,380.86,-3.66,3.02,0.18,-368.12
29139,792.07,772.31,751.71,757.13,768.31,-33.20,-963.38,368.65,-5.35,0.27,-1.19,-372.27
29175,791.04,772.54,751.77,757.41,768.19,-12.70,-956.54,358.40,-3.15,2.25,0.99,-374.45
29212,790.05,772.69,751.76,757.64,768.04,-30.27,-952.15,376.46,-3.69,0.11,-0.23,-377.67
29248,789.16,773.04,751.87,757.97,768.01,-31.25,-935.55,382.81,-0.66,0.37,-2.56,-384.10
29284,788.19,773.21,752.08,758.38,767.96,-4.39,-960.45,361.82,-2.92,-0.49,0.23,-384.90
29320,787.80,773.03,752.15,758.25,767.81,-23.93,-960.45,368.65,-3.68,-1.32,1.60,-379.67
29356,787.90,772.61,752.18,757.76,767.61,-32.71,-958.01,354.49,-3.31,2.79,-0.68,-369.41
29393,788.94,771.68,752.11,757.13,767.46,-38.57,-967.29,350.10,-1.66,-0.21,1.11,-351.22
29429,789.92,770.65,751.91,756.39,767.22,-40.53,-958.50,354.98,-0.81,-2.19,3.58,-332.33
29465,790.77,769.74,751.67,755.58,766.94,-58.11,-945.31,376.46,-2.88,0.44,2.77,-315.76
29501,791.10,768.72,751.63,754.75,766.55,-62.50,-964.36,349.61,-5.35,-2.69,-1.12,-296.00
29538,790.61,767.18,751.49,754.28,765.89,-50.29,-958.50,346.19,-3.56,1.98,3.67,-274.20
29580,789.25,766.73,751.46,754.28,765.43,-42.97,-971.19,328.61,-1.05,-1.02,0.52,-260.16
29618,788.02,766.71,751.57,754.70,765.25,-50.29,-960.45,372.56,0.45,-2.77,2.87,-251.43
29655,786.92,766.94,751.74,755.24,765.21,-31.25,-969.73,350.10,4.13,-2.59,2.80,-241.57
29694,785.56,767.55,751.98,755.61,765.18,-45.90,-961.91,345.21,-0.71,0.68,0.44,-232.96
29733,782.94,768.31,752.07,755.85,764.79,-35.16,-965.33,353.03,-4.19,2.40,-2.67,-241.96
29771,781.75,769.05,752.13,756.15,764.77,-38.57,-951.66,353.52,0.52,1.04,-1.51,-256.29
29810,782.07,769.53,752.28,756.81,765.17,-37.11,-947.75,332.03,-1.91,4.79,-0.29,-265.55
29849,782.56,769.75,752.40,757.14,765.46,-44.92,-944.34,359.37,1.34,0.02,-1.34,-267.92
29886,782.60,770.65,752.62,757.24,765.78,-31.25,-956.05,364.75,-2.98,-0.89,0.92,-276.71
29923,782.96,771.18,752.66,757.18,766.00,-41.50,-954.10,329.59,-4.93,1.38,-0.64,-287.93
29959,784.30,771.52,752.54,757.33,766.42,-43.46,-964.36,343.26,-0.37,2.58,-0.45,-312.67
29995,784.92,771.86,752.64,757.34,766.69,-41.99,-957.52,345.21,-0.86,4.15,-1.61,-316.21
30031,785.19,772.23,752.66,757.40,766.87,-44.92,-939.94,339.84,-0.68,0.04,0.02,-324.91
30067,784.88,772.71,752.73,757.72,767.01,-50.29,-955.08,347.66,-1.18,-2.19,-3.60,-336.77
30104,782.90,773.15,752.91,758.32,766.82,-46.39,-968.26,331.05,-0.83,2.31,-0.81,-339.51
30140,781.93,773.62,753.03,758.95,766.88,-42.97,-960.45,340.82,2.63,3.30,-0.78,-345.87
30176,780.11,774.57,753.42,759.59,766.92,-45.41,-964.84,356.93,-0.26,2.53,-4.29,-341.82
30212,778.70,775.30,753.59,760.23,766.96,-34.18,-955.08,340.82,-0.27,1.54,-1.74,-346.40
30249,777.87,776.49,753.91,760.95,767.31,-45.90,-958.98,353.03,1.64,-2.31,-2.42,-355.91
30285,776.98,776.99,753.96,760.94,767.22,-35.64,-957.52,355.96,-1.18,2.90,-3.46,-361.86
30321,777.23,777.22,754.01,761.11,767.39,-49.32,-963.38,347.17,1.36,-1.82,-0.60,-365.82
30357,777.28,777.77,754.08,761.32,767.61,-39.06,-958.50,338.87,-0.03,-0.61,0.81,-373.12
30393,777.20,777.67,754.05,761.25,767.54,-49.80,-955.57,339.84,-1.02,0.19,-0.02,-370.89
30429,777.56,777.59,754.09,761.28,767.63,-48.83,-963.87,350.10,1.10,1.36,0.85,-371.98
30465,777.74,777.55,754.04,761.23,767.64,-34.18,-954.59,346.68,-0.05,-2.44,0.60,-369.10
30501,777.74,777.53,754.03,761.15,767.61,-26.37,-959.47,346.19,-2.65,2.46,0.98,-368.17
30537,777.87,777.45,753.95,760.89,767.54,-49.32,-958.50,340.33,-0.98,1.56,1.18,-364.07
30573,778.10,777.46,753.93,760.85,767.58,-42.48,-959.47,350.59,-1.40,-1.33,-2.06,-363.40
30619,778.33,777.44,753.93,760.74,767.61,-39.55,-964.84,336.43,0.17,2.14,-1.49,-362.87
30655,778.58,777.51,753.98,760.86,767.74,-43.46,-955.08,348.63,1.45,0.81,-1.61,-365.07
30691,778.66,777.66,753.97,760.87,767.79,-54.69,-962.89,354.00,-0.63,0.31,0.11,-366.20
30726,778.99,777.76,753.94,760.83,767.88,-41.50,-967.29,352.54,0.18,1.02,0.17,-366.42
30762,779.23,777.80,753.95,760.89,767.97,-51.27,-952.64,340.82,-0.62,1.34,-1.19,-367.00
30798,779.14,778.05,753.96,760.98,768.03,-43.95,-958.98,332.52,-1.50,1.77,-2.38,-370.77
30834,778.86,778.32,754.04,761.09,768.08,-33.20,-963.87,347.66,-0.97,3.71,0.37,-375.23
30873,778.08,778.60,754.18,761.25,768.03,-43.95,-962.89,343.75,-0.36,1.51,-1.21,-382.58
30909,777.52,778.86,754.12,761.40,767.98,-50.78,-957.52,348.14,-0.41,0.49,-1.50,-384.08
30945,777.10,779.14,754.21,761.56,768.00,-55.66,-964.36,345.70,-1.04,-2.29,-1.73,-389.92
30982,776.76,779.31,754.18,761.51,767.94,-40.53,-953.61,345.70,-0.75,2.08,-2.70,-391.44
31018,776.68,779.34,754.19,761.58,767.95,-44.43,-962.40,333.98,-2.50,-2.31,0.14,-392.15
31054,776.66,779.56,754.23,761.49,767.98,-41.99,-960.45,335.45,-0.61,1.82,-1.54,-395.14
31090,776.47,779.71,754.18,761.48,767.96,-30.27,-961.43,339.84,-1.05,0.73,0.05,-397.25
31126,776.30,779.95,754.21,761.54,768.00,-42.48,-959.96,347.66,0.99,0.46,-3.05,-401.01
31162,776.15,780.13,754.28,761.65,768.05,-31.25,-950.20,355.96,0.30,1.90,-1.14,-403.19
31198,775.68,780.45,754.37,761.86,768.09,-45.41,-955.57,339.84,-1.82,0.92,-0.56,-407.22
31235,775.07,780.83,754.44,761.91,768.06,-47.36,-963.38,352.05,0.12,0.79,-2.60,-412.83
31271,774.66,781.25,754.43,762.15,768.13,-41.50,-956.05,338.87,-0.52,0.63,0.39,-416.35
31307,774.00,781.52,754.53,762.24,768.07,-46.39,-949.71,345.21,-1.40,-0.41,-1.54,-419.66
31343,773.40,781.58,754.52,762.17,767.92,-35.64,-957.52,345.70,-1.37,-0.97,-2.73,-421.93
31379,773.64,781.64,754.45,762.16,767.97,-39.55,-975.59,334.96,2.84,2.05,-0.51,-421.55
31416,773.65,781.85,754.45,762.21,768.04,-42.97,-972.17,345.70,-1.03,-2.58,-1.21,-423.17
31452,773.61,781.90,754.49,762.15,768.04,-37.60,-958.01,341.31,0.65,-1.89,0.61,-424.19
31488,773.68,781.90,754.44,762.22,768.06,-41.02,-955.57,334.47,-0.63,0.03,2.39,-423.59
31524,773.43,782.18,754.53,762.27,768.10,-40.04,-962.89,352.05,-1.67,1.79,-1.02,-426.40
31565,773.02,782.43,754.50,762.14,768.02,-48.83,-987.79,322.27,-2.73,0.52,-1.24,-429.65
31604,772.69,782.51,754.53,762.30,768.01,-38.57,-961.43,343.26,-1.73,-0.33,-1.34,-430.06
31642,771.78,782.80,754.59,762.18,767.84,-38.57,-963.38,336.91,-1.18,-2.19,-1.24,-435.03
31681,771.08,782.75,754.53,761.78,767.54,-31.25,-965.33,329.10,-2.63,-0.02,-0.50,-438.71
31720,771.19,782.95,754.44,761.72,767.58,-34.18,-952.64,337.40,-0.55,-0.49,-1.70,-440.07
31759,770.95,783.35,754.29,761.39,767.50,-33.69,-971.19,327.64,-2.77,-1.96,-1.68,-446.09
31798,770.45,782.90,754.22,761.15,767.18,-30.27,-961.43,330.08,0.78,1.34,1.43,-442.85
31836,770.65,782.53,754.28,760.92,767.09,-38.57,-952.64,354.49,0.66,2.59,-2.15,-439.59
31877,769.03,782.35,754.09,760.80,766.57,-44.92,-974.12,327.64,-3.84,1.80,-0.47,-439.13
31915,766.84,782.65,754.34,761.37,766.30,-41.02,-959.47,326.66,1.42,0.31,-1.37,-444.03
31951,766.40,782.63,754.41,761.15,766.14,-22.95,-943.85,364.75,2.71,-4.01,1.60,-445.94
31988,768.93,780.83,754.04,760.60,766.10,-49.32,-968.26,339.36,9.60,-2.54,0.53,-414.62
32024,768.93,782.05,754.24,760.80,766.50,-46.39,-959.96,334.47,-6.60,0.08,-4.90,-435.61
32060,768.79,781.54,753.78,759.49,765.90,6.84,-953.61,338.38,0.88,0.97,-0.04,-428.93
32096,772.03,780.07,753.44,758.83,766.10,-41.50,-986.82,316.41,4.11,2.31,-0.85,-408.81
32132,771.66,781.10,753.47,758.88,766.28,-34.67,-960.94,349.12,-4.52,2.36,-2.50,-427.62
32168,773.78,780.44,753.22,758.38,766.46,-35.16,-933.11,348.14,6.28,-3.03,1.85,-431.37
32204,775.18,780.65,753.20,758.40,766.86,-58.59,-980.47,324.71,-3.71,-4.38,-3.61,-437.28
32240,776.23,780.07,753.13,758.31,766.94,-32.71,-949.71,349.61,7.10,-2.61,-0.72,-432.19
32276,779.85,778.51,752.87,758.35,767.39,-40.53,-949.22,358.40,10.11,-6.98,1.20,-418.94
32314,783.60,777.58,752.92,758.32,768.11,-56.15,-966.31,328.61,7.84,-9.29,-0.18,-403.92
32350,785.70,777.59,753.00,758.58,768.72,-30.76,-930.66,374.51,6.17,-4.60,-0.87,-405.15
32386,785.56,778.02,753.11,758.97,768.91,-53.71,-960.94,340.33,-1.63,-2.00,-3.69,-406.90
32422,784.26,778.69,753.26,759.53,768.94,-23.44,-925.78,390.14,-1.31,1.20,-3.14,-408.78
32458,782.73,779.80,753.52,760.10,769.04,-32.71,-944.82,359.37,-1.50,1.63,-5.13,-412.73
32494,781.18,780.77,753.71,760.43,769.02,-31.25,-969.73,338.87,-3.70,-0.84,-4.52,-419.97
32530,780.39,781.36,753.70,760.58,769.00,-29.30,-948.73,362.79,-0.69,0.60,-4.07,-428.46
32569,779.92,781.40,753.60,760.20,768.78,-40.53,-962.40,333.01,0.26,0.84,0.86,-434.40
32608,779.80,781.04,753.33,760.09,768.57,-36.62,-956.05,352.54,1.87,-5.48,1.15,-438.87
32646,779.73,780.64,753.41,760.26,768.51,-21.48,-949.71,363.77,1.02,-1.19,-0.25,-429.48
32685,779.43,780.59,753.29,760.41,768.43,-22.95,-973.63,354.49,-1.02,0.92,-2.29,-434.47
32724,779.32,780.09,753.30,760.55,768.31,-21.48,-953.61,375.98,1.92,0.59,-2.60,-427.25
32763,779.60,780.24,753.40,760.76,768.50,-34.18,-946.29,380.37,0.89,0.02,-0.84,-425.06
32801,780.16,780.14,753.43,760.88,768.65,-27.83,-949.22,363.28,3.09,2.06,-1.21,-423.05
32838,780.99,779.47,753.34,761.00,768.70,1.46,-955.57,379.88,3.93,-3.25,0.51,-418.31
32874,782.09,778.80,753.19,760.77,768.71,-5.86,-968.26,368.65,2.11,0.83,-0.10,-415.98
32911,782.69,778.39,753.24,760.71,768.76,-11.72,-949.22,381.35,-0.10,-1.91,1.27,-407.04
32947,783.43,777.87,753.19,760.65,768.78,-17.09,-958.98,378.91,0.05,2.27,-1.79,-403.47
32983,784.02,776.98,753.05,760.30,768.59,-2.93,-937.50,385.74,-3.91,-0.55,0.94,-399.90
33019,785.48,775.89,752.86,759.75,768.49,-23.93,-958.98,366.70,0.11,-0.78,0.75,-397.99
33055,786.46,774.81,752.73,759.37,768.34,-33.69,-959.47,375.98,0.92,-2.19,1.53,-389.73
33092,787.27,773.62,752.56,759.14,768.15,-15.63,-937.50,377.93,-0.43,-2.11,2.63,-386.57
33128,787.71,772.92,752.45,758.97,768.01,-30.76,-943.85,381.35,0.40,-1.21,-0.80,-383.56
33164,787.61,772.49,752.41,758.76,767.82,-7.32,-943.85,378.91,-2.75,-1.69,1.37,-372.02
33200,787.19,772.31,752.37,758.53,767.60,-23.44,-956.54,368.65,-2.37,3.11,-0.08,-363.83
33236,786.67,772.02,752.34,758.49,767.38,-38.09,-961.43,359.86,-0.82,-1.17,-1.55,-359.02
33273,786.17,771.64,752.34,758.48,767.16,-22.46,-963.87,372.56,1.22,-0.84,0.54,-351.11
33309,786.00,770.98,752.33,758.30,766.90,-28.32,-955.08,355.47,1.31,1.30,-0.32,-336.26
33345,785.75,770.64,752.29,758.24,766.73,-33.69,-944.82,352.54,0.03,-2.33,2.03,-329.98
33381,785.66,770.33,752.27,758.06,766.58,-25.88,-952.15,373.05,0.46,1.61,-1.05,-321.46
33418,785.58,770.27,752.15,757.79,766.45,-21.48,-943.36,373.05,-1.91,3.33,-0.19,-323.45
33454,785.85,770.03,752.08,757.72,766.42,-44.92,-956.54,353.03,-1.14,1.29,1.48,-322.06
33490,785.96,769.98,752.11,757.58,766.41,-42.48,-959.96,348.14,-1.06,2.46,0.27,-317.37
33526,786.25,769.75,752.10,757.52,766.40,-31.25,-960.45,356.45,-1.37,-1.69,-0.57,-311.85
33566,786.56,769.71,752.06,757.59,766.48,-34.18,-948.73,376.46,1.80,0.70,1.40,-316.28
33605,786.89,769.73,752.09,757.46,766.54,-22.46,-943.85,373.05,-0.50,0.53,-2.23,-315.35
33642,787.48,770.01,752.06,757.63,766.80,-33.69,-948.24,375.00,-1.80,0.59,-0.17,-325.91
33678,788.26,770.18,752.17,757.67,767.07,-37.11,-962.40,366.70,1.63,-0.39,-0.11,-327.26
33715,789.47,770.63,752.21,757.94,767.56,-37.11,-951.66,379.39,3.54,0.53,-0.31,-340.16
33751,791.54,771.18,752.28,758.32,768.33,-50.29,-958.98,366.70,3.79,2.40,-0.86,-361.74
33787,793.14,771.07,752.28,758.55,768.76,-41.99,-943.85,387.21,5.33,-0.96,-0.17,-368.33
33823,793.86,770.75,752.38,758.44,768.86,-33.69,-952.15,413.09,4.63,-0.79,-0.30,-363.14
33859,793.12,770.39,752.14,757.97,768.41,-23.44,-960.45,395.02,-0.06,1.93,-0.01,-355.49
33895,792.26,770.27,752.07,757.59,768.05,-29.30,-924.32,406.25,-3.01,4.94,-1.27,-343.32
33931,791.43,770.82,751.85,756.97,767.77,-28.32,-934.57,376.95,-5.71,7.04,-0.18,-346.48
33967,791.03,771.20,751.84,756.62,767.67,-37.11,-946.29,366.70,-3.95,2.76,1.36,-348.48
34008,790.70,771.93,751.72,756.54,767.72,-54.69,-953.12,359.86,-4.37,1.59,-0.05,-358.02
34043,790.44,772.28,751.68,756.36,767.69,-22.46,-938.48,386.72,-0.84,2.02,1.48,-360.23
34079,790.52,772.08,751.66,756.25,767.63,-21.00,-944.82,385.25,0.02,1.17,3.67,-355.38
34115,790.93,771.45,751.57,755.91,767.46,-23.93,-948.24,354.98,0.45,-0.82,4.26,-341.38
34151,791.75,770.72,751.48,755.38,767.33,-33.69,-944.34,376.95,-3.32,-2.22,2.72,-329.56
34187,792.74,769.20,751.34,754.76,767.01,-51.76,-949.22,359.86,-1.87,-1.78,4.42,-308.76
34223,793.15,768.59,751.32,754.91,766.99,-74.71,-955.08,356.45,-2.69,-1.17,2.02,-301.88
34259,793.13,767.60,751.30,754.54,766.64,-37.60,-946.29,363.77,-1.31,-1.49,1.43,-284.40
34295,792.77,766.99,751.31,754.64,766.43,-31.25,-949.71,370.12,-5.01,-1.06,0.26,-268.99
34331,792.66,766.50,751.33,754.62,766.28,-43.46,-962.89,356.93,-5.45,0.33,1.11,-265.42
34367,792.49,766.49,751.45,754.45,766.22,-51.76,-952.15,352.05,-2.25,0.21,0.13,-268.23
34403,791.14,766.88,751.49,754.55,766.02,-44.43,-963.38,340.33,-1.30,-2.71,-0.15,-269.21
34439,789.30,767.85,751.65,754.85,765.91,-46.88,-957.52,372.07,-2.59,3.32,-1.58,-274.84
34475,786.88,768.80,751.78,755.20,765.67,-51.27,-949.71,359.86,-4.15,-0.48,-0.85,-284.94
34512,782.92,770.01,752.01,755.56,765.13,-47.36,-965.33,347.17,-6.20,-1.32,0.52,-297.27
34548,778.57,771.02,752.17,756.10,764.46,-44.43,-960.94,340.33,-5.28,-0.71,-1.77,-301.68
34589,776.45,771.86,752.36,756.73,764.35,-45.41,-922.36,335.94,-12.39,10.18,-3.11,-303.77
34627,774.77,773.27,752.74,757.74,764.63,-45.41,-955.08,356.93,-0.56,0.89,-3.67,-312.85
34666,775.43,774.40,753.14,758.95,765.48,-58.11,-966.80,343.75,4.32,1.53,-1.67,-334.98
34705,775.96,775.36,753.48,759.92,766.18,-24.90,-901.37,413.09,2.56,0.92,-2.73,-348.07
34743,775.82,777.30,753.92,760.95,767.00,-48.34,-958.50,345.21,-2.72,2.21,-4.41,-363.15
34781,774.90,779.29,754.33,761.94,767.62,-29.30,-967.77,356.93,-2.37,2.02,-1.42,-400.06
34818,774.74,780.76,754.74,762.70,768.24,-54.20,-957.03,338.38,-4.35,2.98,0.85,-421.91
34854,774.16,782.02,754.99,763.33,768.62,-34.67,-958.50,331.05,-1.92,1.09,-0.34,-432.83
34890,773.17,782.74,755.27,763.76,768.73,-44.92,-960.94,349.12,-0.89,1.53,-1.93,-441.35
34926,771.47,783.29,755.43,764.03,768.56,-35.16,-964.36,343.75,-3.32,1.16,-3.02,-446.67
34962,770.05,783.88,755.63,764.49,768.51,-39.55,-958.01,327.64,-1.76,1.22,-2.70,-453.16
34998,768.46,784.47,755.81,764.73,768.37,-35.16,-962.40,346.19,-4.81,3.66,-3.95,-459.65
35035,766.70,784.93,755.92,765.03,768.15,-33.20,-959.47,338.87,-3.27,2.32,-3.28,-463.47
35073,765.48,785.55,756.17,765.37,768.14,-45.41,-948.73,350.59,-1.18,1.09,-2.40,-470.15
35109,764.57,785.65,756.29,765.59,768.02,-26.86,-958.50,336.91,-0.76,-0.70,-0.79,-473.27
35145,763.75,785.79,756.50,766.14,768.04,-41.02,-965.33,338.87,0.29,0.13,-1.82,-475.43
35182,762.99,785.69,756.65,766.27,767.90,-31.25,-962.89,351.56,-1.35,0.27,-2.95,-477.30
35218,762.43,785.54,756.69,766.59,767.81,-26.86,-957.52,341.80,0.71,0.33,-0.64,-478.45
35254,762.11,785.50,756.77,766.71,767.77,-17.58,-966.31,332.52,0.05,0.87,-0.43,-479.78
35290,761.86,785.13,756.89,766.89,767.70,-44.92,-981.93,343.75,1.44,-1.50,-2.92,-477.78
35326,761.63,784.91,756.90,766.89,767.58,-37.60,-952.15,336.91,0.85,1.40,0.05,-474.32
35363,761.51,784.77,756.80,766.80,767.47,-35.64,-950.20,352.54,0.57,-0.69,-0.56,-471.85
35399,761.71,784.56,756.73,766.56,767.39,-30.76,-969.24,337.40,1.01,-0.41,-1.50,-469.72
35435,762.01,784.42,756.63,766.58,767.41,-34.67,-961.91,349.61,1.30,-0.27,0.11,-468.60
35471,762.19,784.40,756.62,766.56,767.44,-30.27,-959.96,355.47,0.31,1.51,1.53,-468.89
35507,762.48,784.35,756.58,766.37,767.45,-37.60,-957.52,343.75,0.02,-1.82,-2.18,-469.36
35543,762.93,784.22,756.48,766.18,767.45,-39.06,-974.12,355.96,-1.29,-0.10,-0.90,-469.02
35579,763.37,784.17,756.31,765.84,767.42,-46.39,-965.82,352.05,-1.02,-0.48,-1.63,-467.54
35620,763.85,784.11,756.13,765.49,767.39,-32.23,-963.38,348.63,-1.47,2.39,-0.24,-463.73
35656,764.34,784.22,756.00,765.29,767.46,-50.29,-964.36,336.91,0.59,3.25,-0.17,-462.49
35696,764.77,784.21,755.89,765.12,767.50,-38.57,-958.01,342.77,0.66,2.33,1.49,-461.16
35735,765.04,784.36,755.90,765.11,767.60,-59.57,-965.33,330.57,-0.19,1.42,0.08,-462.18
35774,765.11,784.52,755.83,765.07,767.63,-34.67,-954.59,355.47,-0.06,0.02,-0.14,-460.70
35813,765.17,784.60,755.85,765.02,767.66,-30.76,-956.54,350.59,-2.91,2.89,-2.08,-461.27
35851,765.28,784.73,755.87,765.01,767.72,-35.64,-966.31,339.84,-2.27,1.08,1.36,-461.87
35889,765.37,784.90,755.88,764.97,767.78,-34.67,-958.50,354.00,1.06,-0.31,-1.98,-462.49
35928,765.51,784.94,755.82,764.84,767.78,-51.76,-961.43,354.49,-1.46,0.71,-1.50,-461.88
35965,765.73,785.05,755.82,764.87,767.87,-16.60,-958.01,340.82,1.23,-1.55,-0.27,-462.51
36002,765.77,785.13,755.78,764.87,767.89,-39.06,-959.47,329.59,-0.92,0.18,-1.25,-462.69
36038,765.81,785.16,755.72,764.95,767.91,-26.37,-960.45,349.61,-0.37,0.24,-0.53,-461.80
36074,765.78,785.19,755.81,764.92,767.93,-34.18,-980.96,335.94,1.02,1.10,-1.86,-463.38
36110,765.76,785.17,755.79,764.77,767.87,-48.83,-957.03,357.42,-0.55,0.02,0.86,-463.10
36147,765.66,785.19,755.77,764.78,767.85,-36.13,-958.01,341.31,-1.51,0.13,-1.02,-463.00
36183,765.84,785.21,755.77,764.81,767.91,-41.50,-972.17,341.31,-2.11,-0.13,-2.31,-462.90
36219,765.77,785.39,755.78,764.85,767.95,-44.43,-960.45,343.26,-0.98,-1.91,2.68,-463.78
36256,765.68,785.35,755.74,764.77,767.89,-36.62,-969.73,336.91,-2.69,1.82,0.38,-463.16
36292,765.63,785.48,755.69,764.70,767.87,-37.11,-967.29,341.80,-0.72,0.88,-2.06,-463.10
36328,765.67,785.39,755.77,764.75,767.90,-27.83,-958.98,334.47,-0.85,-1.19,-0.47,-463.77
36363,765.64,785.50,755.77,764.72,767.91,-50.29,-957.03,335.94,-2.53,1.27,1.54,-464.34
36400,765.76,785.45,755.70,764.71,767.90,-33.69,-955.57,343.26,0.12,-0.85,-0.73,-462.90
36436,765.73,785.44,755.71,764.66,767.88,-27.34,-963.38,338.87,-1.37,-1.50,-0.27,-463.18
36472,765.81,785.42,755.70,764.66,767.90,-33.20,-954.10,338.38,-0.91,-2.59,-1.11,-463.00
36508,765.75,785.35,755.77,764.71,767.89,-34.18,-963.87,325.20,2.48,-2.20,-0.89,-463.58
36545,765.85,785.32,755.66,764.66,767.87,-24.41,-961.91,340.33,-0.60,-0.64,-0.10,-461.88
36581,765.88,785.49,755.72,764.58,767.92,-41.02,-956.54,331.05,0.16,0.22,-0.39,-463.57
36617,765.82,786.04,755.60,764.22,767.92,-46.88,-975.59,310.06,-1.92,2.90,-1.66,-464.93
36659,765.81,787.37,755.41,763.70,768.07,-62.99,-979.49,322.75,-8.24,12.29,-6.88,-476.46
36697,764.99,788.40,755.27,763.26,767.98,-28.32,-973.14,338.87,-2.89,7.38,-4.34,-496.04
36736,763.53,789.30,755.19,763.20,767.80,-41.50,-964.36,332.03,-4.56,-0.60,-3.42,-510.81
36773,761.46,789.86,755.35,763.31,767.49,-15.63,-972.66,335.94,-3.73,1.14,-2.78,-519.35
36809,760.58,789.19,755.52,763.63,767.23,-39.06,-983.89,304.69,2.62,-2.71,-1.33,-508.60
36845,760.91,787.78,755.55,764.06,767.07,-38.57,-940.43,354.49,7.07,-2.87,2.99,-488.25
36882,761.05,787.23,755.61,764.05,766.98,-9.28,-963.87,342.29,3.36,-3.05,2.12,-483.02
36918,762.21,785.14,755.28,763.57,766.55,-14.65,-949.22,353.52,6.14,-5.75,2.34,-466.04
36954,764.13,783.99,755.10,763.35,766.64,-38.57,-964.36,351.56,1.98,-6.21,2.19,-454.14
36991,764.63,783.92,755.04,762.69,766.57,-34.67,-960.45,356.93,-0.44,-2.24,1.61,-455.65
37027,765.72,781.92,754.44,761.06,765.78,-17.09,-950.20,330.57,-0.40,-0.05,2.39,-436.25
37063,769.93,779.10,753.67,759.83,765.63,-32.71,-973.63,343.26,2.34,-0.62,2.71,-384.47
37099,771.31,779.87,753.60,759.35,766.03,-35.64,-972.66,350.59,-5.17,0.58,0.77,-398.79
37136,772.88,778.80,753.07,758.11,765.72,2.44,-930.18,373.54,8.58,-3.92,1.92,-405.43
37172,778.56,775.35,752.44,756.57,765.73,-38.57,-961.91,349.12,7.81,-3.52,3.07,-375.27
37208,782.35,774.02,752.19,756.20,766.19,-52.25,-979.00,299.32,4.62,-1.57,1.95,-365.13
37243,784.89,773.80,752.10,756.18,766.74,-46.39,-958.50,354.49,3.22,-2.23,-2.17,-369.42
37280,784.54,774.16,752.12,756.40,766.81,24.41,-754.39,556.64,2.13,-2.02,-1.82,-374.55
37316,784.93,775.56,752.37,757.19,767.51,-57.62,-984.86,326.66,4.01,0.34,-0.59,-387.55
37352,786.50,776.81,752.56,757.85,768.43,-48.34,-965.82,368.65,6.53,0.98,-2.35,-404.60
37398,786.36,777.43,752.69,758.25,768.68,-35.64,-948.24,369.14,2.27,0.63,-2.95,-410.18
37434,786.76,777.81,752.71,758.38,768.91,-52.25,-939.94,405.27,1.97,3.49,-4.10,-415.43
37470,785.29,777.52,752.70,758.10,768.40,-23.93,-967.29,354.49,-0.15,3.09,-1.80,-410.03
37506,784.55,777.48,752.74,758.14,768.23,-26.37,-930.66,391.60,-0.89,0.20,-1.82,-407.56
37542,784.23,777.31,752.79,758.30,768.16,-20.51,-943.85,373.05,0.77,0.64,-0.25,-403.70
37578,784.02,777.04,752.69,758.51,768.07,-22.95,-942.38,385.25,1.69,-0.97,-1.25,-404.67
37620,784.36,776.76,752.75,758.82,768.17,-33.69,-945.80,366.21,1.18,-3.20,-0.48,-401.29
37658,785.35,776.65,752.95,759.59,768.64,-33.20,-945.80,365.23,4.86,-2.20,0.82,-398.97
37695,786.11,777.22,753.08,760.26,769.17,-29.30,-962.89,380.86,-0.74,-2.18,-0.66,-404.75
37731,785.33,777.26,753.29,760.55,769.11,-28.81,-955.08,381.84,-0.97,-2.69,-0.61,-391.26
37768,784.86,776.41,753.34,760.79,768.85,-22.95,-950.68,386.72,-0.27,-1.50,-0.22,-375.84
37803,785.03,775.66,753.31,760.46,768.61,-9.77,-926.27,400.88,-1.44,1.02,-3.57,-367.23
37840,785.57,775.12,753.19,759.98,768.46,-11.23,-946.29,389.65,-3.68,-0.63,1.36,-366.36
37876,786.86,774.89,753.02,759.61,768.60,-52.25,-946.29,369.63,-3.06,0.56,0.91,-376.11
37912,788.34,775.05,752.84,759.37,768.90,-24.41,-957.52,389.65,-0.75,1.37,-0.47,-390.56
37948,789.69,774.53,752.72,758.83,768.94,-35.64,-943.36,373.54,-2.94,0.45,0.34,-386.26
37984,789.57,773.74,752.47,758.25,768.51,-35.16,-946.78,386.23,-3.86,3.13,2.63,-383.83
38020,788.98,772.79,752.24,757.76,767.94,-10.25,-956.05,373.54,-5.65,3.67,0.15,-373.82
38057,788.62,772.27,752.06,757.10,767.51,-39.06,-956.05,358.40,-6.27,1.17,-0.24,-363.28
38092,788.59,771.78,751.98,756.61,767.24,-32.23,-943.36,366.70,-3.66,1.01,2.03,-349.13
38129,789.12,771.29,751.83,756.03,767.07,-19.04,-949.71,367.19,-0.69,4.29,0.88,-337.65
38165,789.69,770.83,751.77,755.88,767.04,-49.32,-957.52,352.05,-0.75,0.45,-0.42,-331.60
38201,790.16,770.38,751.78,755.84,767.04,-35.64,-962.40,364.75,0.98,-1.82,-0.11,-326.36
38239,790.31,769.95,751.77,755.87,766.98,-28.81,-940.92,370.12,0.89,0.08,-0.08,-319.39
38275,790.39,769.75,751.77,755.87,766.94,-20.51,-948.73,371.09,-0.79,-1.40,-0.56,-315.26
38311,790.25,769.72,751.72,755.72,766.85,-12.70,-944.82,370.61,-0.85,0.36,-0.69,-315.43
38348,790.38,769.79,751.72,755.57,766.86,-26.37,-963.38,365.72,-1.24,0.67,-0.70,-316.41
38384,790.66,769.61,751.70,755.49,766.87,-30.76,-953.61,358.40,-1.44,0.42,1.41,-313.64
38420,790.87,769.30,751.69,755.26,766.78,-21.97,-953.61,375.49,2.56,-1.73,0.82,-306.55
38456,791.12,768.68,751.57,755.24,766.65,-18.55,-956.54,356.45,0.82,-0.18,-1.69,-295.15
38492,791.24,768.18,751.58,755.07,766.52,-38.09,-946.29,373.54,-2.07,1.56,-0.51,-285.89
38528,791.61,768.08,751.65,755.07,766.60,-40.53,-942.87,365.23,1.55,-3.31,1.09,-281.01
38564,792.46,768.24,751.63,755.26,766.90,-22.46,-958.98,358.89,2.50,2.28,-3.37,-287.09
38600,794.49,768.88,751.75,755.87,767.75,-28.32,-944.82,396.48,8.11,1.54,-0.69,-309.90
38641,796.39,769.30,751.76,756.30,768.44,-26.37,-949.22,372.56,6.47,0.27,0.32,-328.57
38680,797.02,769.35,751.77,756.56,768.68,-39.06,-938.96,395.02,2.11,-0.47,-1.82,-334.73
38719,796.31,769.42,751.73,756.47,768.48,-33.20,-938.96,396.48,-1.40,2.13,-2.57,-332.22
38757,795.05,769.77,751.66,756.39,768.22,-36.62,-956.05,368.16,-4.78,2.56,0.08,-332.96
38796,793.63,770.36,751.62,756.17,767.94,-29.79,-954.10,373.54,-4.32,0.95,-2.06,-334.41
38835,792.54,770.98,751.57,756.04,767.78,-40.04,-948.73,388.18,-2.92,3.24,1.76,-339.66
38874,791.66,771.28,751.58,755.98,767.62,-38.57,-926.76,375.98,-2.11,3.23,2.73,-341.33
38910,791.36,771.65,751.61,756.07,767.67,-25.88,-946.78,383.30,-0.63,2.97,2.18,-347.80
38946,791.15,772.01,751.62,756.11,767.72,-28.32,-961.43,370.12,-2.31,1.52,-0.55,-353.54
38982,790.61,772.05,751.58,756.53,767.69,-63.96,-957.03,360.84,-1.24,0.91,1.10,-360.24
39018,790.20,771.85,751.59,756.04,767.42,-35.64,-948.24,373.05,0.68,-1.64,2.34,-348.54
39054,790.57,771.28,751.61,756.35,767.45,-41.02,-957.03,359.86,-2.63,3.44,3.61,-344.63
39090,789.62,771.36,751.89,756.52,767.35,-8.79,-943.36,409.67,-3.60,0.09,-2.10,-346.39
39132,789.51,770.84,751.78,756.26,767.10,-72.75,-971.19,341.31,-4.70,-1.23,2.57,-334.80
39171,789.27,770.66,751.93,755.78,766.91,-69.82,-954.10,363.28,-1.72,0.56,-1.43,-326.16
39210,789.89,770.51,751.76,755.14,766.82,-34.67,-933.59,367.19,-2.31,0.04,1.92,-323.95
39249,790.11,770.19,751.69,754.47,766.61,-41.02,-957.52,347.66,-4.27,-0.18,0.37,-317.17
39285,790.49,770.39,751.71,754.14,766.68,-39.55,-968.26,333.50,-3.28,-1.85,0.76,-319.99
39322,790.14,770.32,751.65,753.90,766.50,-51.27,-949.71,364.75,-2.17,-2.72,1.08,-318.25
39359,789.87,769.57,751.62,753.82,766.22,-49.80,-959.47,348.14,-2.06,-1.83,2.13,-306.31
39395,788.71,769.03,751.63,753.87,765.81,-49.32,-957.52,353.52,0.24,-1.34,1.92,-298.89
39432,786.98,769.23,751.70,754.33,765.56,-28.32,-960.94,350.59,0.89,-0.31,-1.60,-298.23
39468,785.14,769.61,751.76,754.84,765.34,-55.66,-959.96,350.59,-0.60,3.45,0.39,-299.88
39506,783.86,770.38,752.08,755.91,765.56,-56.15,-962.89,344.24,2.17,-0.63,-1.37,-304.08
39543,783.54,771.07,752.41,757.23,766.06,-52.25,-955.57,339.36,2.03,-4.36,-0.79,-306.13
39579,783.85,772.39,752.90,758.35,766.87,-52.25,-935.55,369.14,0.53,0.84,-3.21,-323.59
39616,783.58,773.77,753.12,758.95,767.35,-40.04,-953.61,365.72,-4.30,4.20,-1.32,-345.62
39652,783.06,774.58,753.33,759.34,767.58,-46.39,-978.52,333.50,-1.96,1.65,-2.68,-342.13
39696,782.16,774.82,753.51,759.72,767.55,-41.99,-957.03,355.96,-1.34,-1.03,-0.11,-340.73
39735,782.04,774.93,753.61,760.13,767.68,-45.90,-953.61,359.86,0.05,0.48,-2.24,-343.07
39774,780.91,775.52,753.67,760.11,767.55,-42.48,-957.03,364.75,-3.83,3.24,-3.14,-343.68
39813,779.54,776.18,753.73,760.26,767.43,-52.73,-960.45,345.21,-3.34,5.06,-1.11,-346.02
39852,778.11,776.66,753.99,760.77,767.38,-50.29,-966.80,335.45,0.47,2.89,-3.89,-359.22
39891,776.01,776.77,754.14,761.19,767.03,-31.25,-950.20,345.21,1.02,1.46,-3.21,-365.42
39930,774.68,777.67,754.42,762.11,767.22,-44.43,-963.38,346.68,0.85,-0.02,-0.48,-386.44
39968,773.24,777.99,754.62,762.33,767.05,-34.18,-952.64,343.75,0.86,0.28,-1.62,-392.45
40007,773.02,778.21,754.67,762.77,767.17,-36.13,-961.91,339.84,2.11,-1.62,-1.73,-397.26
40046,772.65,778.58,754.81,762.86,767.23,-41.50,-957.52,355.47,1.21,-0.78,1.27,-404.25
40085,772.71,778.64,754.65,762.72,767.18,-40.04,-965.33,349.12,-0.73,1.87,-0.05,-403.47
40125,772.84,778.74,754.79,762.74,767.28,-35.16,-962.89,357.91,-0.79,0.71,0.55,-406.12
40164,772.68,778.84,754.75,762.61,767.22,-34.67,-965.33,347.17,0.65,-0.43,0.55,-406.55
40203,772.45,778.92,754.76,762.67,767.20,-47.85,-957.52,345.70,-0.61,3.02,0.56,-407.84
40242,771.87,779.20,754.81,762.73,767.15,-50.29,-970.21,353.03,-1.24,-0.40,-2.66,-411.45
40281,771.35,779.51,754.80,762.82,767.12,-38.57,-972.66,351.07,0.44,-0.37,0.08,-415.21
40320,771.31,779.98,754.92,763.08,767.32,-44.43,-961.43,351.56,0.74,1.15,-0.27,-422.10
40359,771.04,780.50,754.90,763.21,767.41,-40.53,-960.94,343.75,-1.85,1.38,0.34,-426.36
40395,770.80,780.77,754.96,763.36,767.47,-30.76,-944.82,347.66,-0.74,-0.36,-1.59,-429.04
40432,770.67,781.18,755.03,763.59,767.61,-37.60,-967.77,346.68,0.31,-0.60,-1.60,-431.95
40468,770.33,781.52,755.07,763.76,767.67,-35.64,-956.54,344.24,-0.27,1.45,-0.26,-434.49
40505,769.89,781.73,755.12,763.79,767.63,-33.20,-956.54,349.12,0.50,3.99,-1.34,-436.32
40541,769.62,781.85,755.27,763.94,767.67,-41.50,-951.66,345.21,-2.37,-2.29,-0.98,-439.75
40578,769.28,782.01,755.35,763.95,767.65,-38.57,-958.50,343.75,-0.46,2.94,-0.13,-442.14
40614,769.19,781.79,755.24,763.81,767.51,-29.79,-947.27,364.75,0.31,-3.88,-1.89,-438.88
40651,769.15,781.78,755.19,763.74,767.47,-43.95,-973.63,356.93,-1.44,-0.76,-4.29,-438.10
40687,768.94,781.77,755.14,763.67,767.38,-41.02,-956.54,345.70,-1.85,1.60,-2.39,-437.33
40723,768.96,781.80,755.17,763.65,767.39,-40.04,-961.43,349.12,0.95,1.51,0.53,-437.88
40765,769.22,781.83,755.12,763.64,767.45,-39.06,-959.47,337.89,-0.46,0.77,1.15,-437.09
40801,769.19,781.93,755.14,763.63,767.47,-53.71,-957.52,344.73,-1.46,0.56,0.23,-438.06
40837,769.18,781.86,755.11,763.55,767.42,-40.04,-951.66,337.89,-1.11,3.98,0.58,-437.13
40879,769.26,781.87,755.17,763.58,767.47,-33.20,-965.33,350.10,-0.69,2.17,-0.26,-438.12
40915,769.25,782.10,755.11,763.55,767.51,-39.06,-967.29,356.93,1.76,1.76,-0.73,-438.25
40952,769.27,782.13,755.14,763.54,767.52,-30.27,-962.40,336.91,0.96,-2.20,-0.77,-438.88
40988,769.09,782.21,755.17,763.51,767.49,-19.04,-974.12,354.98,-1.86,-0.94,-0.54,-439.77
41024,768.83,782.15,755.15,763.64,767.44,-40.04,-965.33,342.77,-2.32,-0.79,1.01,-439.06
41061,768.84,782.21,755.15,763.57,767.44,-29.79,-967.29,343.75,-0.93,-0.82,-2.28,-439.45
41097,768.81,782.39,755.17,763.62,767.50,-36.13,-956.05,345.21,0.69,-0.04,0.81,-440.43
41134,768.79,782.59,755.15,763.60,767.53,-38.09,-960.94,332.52,-1.37,2.12,-1.56,-440.99
41170,768.66,782.68,755.21,763.62,767.54,-35.64,-961.43,334.47,-0.45,0.60,-2.85,-442.53
41207,768.55,782.89,755.28,763.80,767.63,-36.13,-959.96,353.03,-0.83,0.37,-0.15,-444.28
41243,768.25,782.97,755.24,763.84,767.57,-31.74,-962.89,346.19,-0.68,-0.14,-2.42,-443.94
41280,767.96,782.96,755.26,763.69,767.47,-42.97,-960.45,353.52,0.92,1.72,-0.76,-444.53
41316,767.93,783.04,755.27,763.79,767.51,-42.48,-956.05,343.75,0.11,-3.74,1.51,-445.00
41353,767.81,783.22,755.30,763.78,767.53,-31.25,-952.64,340.82,-1.62,-0.12,-0.59,-446.41
41389,767.71,783.25,755.29,763.81,767.52,-41.50,-968.26,352.54,-1.11,-0.56,0.65,-446.49
41426,767.61,783.28,755.30,763.74,767.48,-34.67,-969.73,353.03,1.02,-0.08,-1.79,-446.91
41465,767.58,783.17,755.27,763.61,767.41,-28.81,-965.33,345.70,-0.86,0.32,-2.59,-445.91
41502,767.50,783.09,755.28,763.65,767.38,-51.27,-955.57,342.77,-0.39,0.11,-0.39,-445.68
41538,767.37,782.86,755.27,763.49,767.25,-39.55,-953.61,334.96,1.97,-2.02,-2.73,-445.03
41575,767.55,782.54,755.22,763.35,767.16,-37.60,-961.91,332.03,-0.53,-0.98,-0.86,-442.74
41611,767.79,782.25,755.04,763.34,767.11,-45.41,-962.89,336.43,0.34,-0.18,-1.45,-438.03
41648,767.77,782.18,755.03,763.26,767.06,-40.04,-958.50,342.29,0.37,0.29,0.34,-437.90
41684,767.84,782.06,755.04,763.04,767.00,-31.74,-947.75,334.96,0.00,-1.29,-1.15,-438.51
41721,767.12,782.40,754.98,762.79,766.82,-28.81,-970.21,333.50,-2.81,0.95,-4.37,-441.63
41758,765.41,781.88,754.93,762.69,766.23,-29.79,-975.59,324.71,0.98,-1.85,-3.46,-437.29
41800,764.10,780.78,754.89,762.68,765.61,-36.62,-943.36,347.17,1.64,-2.40,-0.05,-424.34
41839,764.37,780.69,754.93,763.13,765.78,-39.55,-952.64,354.98,2.19,-3.90,-2.51,-424.17
41876,765.05,780.30,754.91,763.15,765.85,-41.50,-966.31,338.87,3.38,2.85,-1.70,-418.78
41913,766.32,780.11,754.76,762.88,766.02,-40.04,-946.29,362.79,3.82,-1.98,-1.47,-417.15
41949,767.48,779.58,754.43,762.00,765.87,3.42,-931.64,376.95,1.40,-0.18,-0.47,-403.92
41986,770.24,778.94,754.23,761.42,766.21,-35.16,-953.12,368.65,1.59,1.86,-0.69,-393.03
42022,771.31,778.32,753.87,760.48,765.99,-52.73,-945.80,354.00,-2.95,-0.73,-0.54,-372.12
42059,772.22,777.63,753.63,759.83,765.83,-65.92,-988.28,320.31,-0.66,-0.54,-3.36,-361.84
42095,775.24,775.89,753.10,758.75,765.74,-53.22,-960.94,349.61,2.33,-0.03,4.62,-364.84
42132,781.69,774.04,752.74,758.04,766.63,-49.32,-956.54,371.09,10.91,-4.34,1.91,-356.72
42168,785.60,773.17,752.50,757.60,767.22,-22.95,-952.15,372.56,6.10,-2.48,1.04,-355.66
42205,786.47,772.80,752.47,757.36,767.27,-50.29,-966.80,317.87,2.21,-6.67,-2.19,-350.37
42241,786.46,773.35,752.51,757.50,767.46,-21.97,-946.78,374.51,4.82,-0.03,-2.87,-360.53
42278,785.69,773.66,752.50,757.78,767.41,-26.37,-957.03,375.00,-0.02,-3.02,-3.13,-367.51
42314,785.32,774.61,752.57,758.19,767.67,-56.15,-943.36,373.05,-1.99,1.04,-6.09,-376.07
42350,784.22,775.72,752.66,758.52,767.78,-49.80,-953.12,378.91,-4.15,4.40,-3.98,-389.01
42386,782.06,777.05,752.86,759.26,767.81,-32.23,-968.26,369.14,-3.54,-2.37,-4.43,-401.95
42422,781.65,778.28,753.08,759.95,768.24,-41.02,-951.17,397.95,3.33,0.56,-5.23,-410.26
42459,781.28,778.74,753.38,760.61,768.50,-29.30,-968.26,349.61,3.97,0.76,-1.82,-402.42
42495,780.66,778.89,753.61,761.39,768.64,-11.23,-951.66,381.84,6.03,-2.60,-1.69,-394.76
42531,780.71,778.55,753.88,762.20,768.84,-20.02,-953.12,366.70,6.41,-3.50,-1.21,-383.74
42572,780.46,778.31,754.08,762.79,768.91,-13.67,-947.75,390.62,-0.21,-3.07,0.81,-382.88
42609,780.11,778.36,754.29,763.42,769.04,-43.95,-968.75,376.95,-0.50,1.47,-2.00,-394.51
42647,779.37,778.45,754.47,764.00,769.07,-22.95,-947.27,384.28,0.55,-0.29,-1.23,-405.89
42686,778.80,778.48,754.72,764.44,769.11,-8.79,-942.38,380.86,0.77,-2.61,-4.34,-413.89
42725,778.79,778.47,754.81,764.61,769.17,-24.41,-960.94,381.84,-0.55,-0.50,-0.50,-415.82
42764,780.03,778.24,754.75,764.40,769.36,-40.04,-933.11,376.95,-1.87,-3.21,1.15,-413.01
42807,780.81,776.85,754.45,763.51,768.91,0.00,-947.75,379.39,-3.68,-1.31,3.80,-387.50
42846,781.74,775.44,754.04,762.62,768.46,-12.21,-939.45,388.67,-1.06,-0.54,3.24,-364.17
42885,783.49,774.54,753.62,761.48,768.29,-31.74,-941.41,392.09,-3.94,-2.29,1.21,-349.20
42924,785.38,773.81,753.19,760.18,768.14,-25.88,-947.27,381.84,-3.80,3.80,-1.91,-355.39
42963,786.66,773.13,752.78,759.13,767.92,-35.64,-969.24,345.70,-4.11,-0.85,1.73,-375.04
43002,787.11,772.32,752.46,758.45,767.59,-25.88,-946.78,368.65,-4.94,0.52,3.45,-358.88
43041,787.21,771.81,752.30,757.87,767.30,-31.74,-952.64,362.30,-4.42,2.86,-0.54,-351.40
43080,786.54,771.64,752.12,757.36,766.92,-36.62,-973.63,352.05,-6.86,-0.11,-0.80,-345.79
43119,786.44,771.69,752.17,757.19,766.87,-18.07,-947.27,365.23,-2.69,0.00,-1.11,-341.73
43158,786.58,771.57,752.00,756.87,766.75,-30.27,-954.59,371.58,-2.56,0.27,1.07,-342.41
43197,786.87,771.28,751.96,756.73,766.71,-41.99,-946.78,353.52,-1.98,4.75,-0.47,-337.07
43236,786.98,770.85,751.91,756.57,766.58,-17.09,-952.15,366.21,-2.14,1.47,0.74,-330.21
43275,787.12,770.60,751.93,756.39,766.51,-40.53,-962.40,350.59,-0.70,1.37,-1.38,-323.27
43314,787.34,770.33,751.89,756.47,766.51,-30.27,-947.75,368.16,2.25,-1.65,-0.66,-320.98
43353,787.50,770.11,751.91,756.35,766.47,-37.11,-941.41,356.45,-1.06,-1.11,0.31,-315.26
43390,787.86,770.08,751.86,756.28,766.52,-25.39,-959.47,359.37,0.22,1.51,-0.31,-316.55
43426,788.34,769.95,751.90,756.26,766.61,-34.67,-962.89,350.59,1.62,0.89,-1.79,-313.63
43463,789.32,770.05,751.89,756.36,766.90,-43.95,-939.94,353.52,4.55,0.10,-1.82,-320.48
43499,791.19,770.90,752.05,756.78,767.73,-25.39,-955.57,365.72,4.13,0.94,-2.75,-340.71
43536,794.10,771.94,752.20,757.28,768.88,-34.67,-976.56,348.63,6.63,2.11,-1.19,-367.49
43572,795.85,772.73,752.13,757.28,769.50,-20.02,-953.12,401.86,5.12,1.31,-2.70,-382.82
43609,796.32,772.51,752.00,757.17,769.50,-36.62,-949.22,401.37,1.82,2.04,0.27,-378.83
43645,794.73,772.15,751.84,757.11,768.96,-41.02,-961.91,339.36,-3.40,1.01,-1.60,-371.61
43682,792.85,772.29,751.74,756.85,768.43,-44.92,-937.01,386.72,-5.22,2.98,-0.53,-370.92
43718,791.40,772.40,751.77,756.75,768.08,-31.74,-943.36,375.98,-1.31,2.61,-1.35,-369.39
43755,790.25,772.82,751.64,756.79,767.87,-56.15,-938.48,375.98,-3.98,1.63,-0.81,-375.14
43791,789.26,773.33,751.64,756.91,767.78,-33.20,-959.47,347.17,-2.64,-0.47,1.58,-383.47
43828,789.02,773.37,751.61,756.33,767.58,-29.79,-943.85,391.11,-3.73,2.50,1.29,-380.71
43864,789.13,773.13,751.57,756.23,767.52,-36.13,-967.29,333.01,-3.19,-0.76,-0.60,-375.27
43907,789.36,772.21,751.52,755.79,767.22,-16.60,-944.82,385.74,1.99,-4.10,2.05,-352.05
43946,789.92,771.51,751.55,756.04,767.26,-43.46,-972.17,354.49,-0.29,-0.89,2.46,-342.49
43985,789.46,771.12,751.66,756.50,767.18,-46.88,-946.78,374.02,-0.36,4.26,-0.98,-342.85
44024,788.76,770.47,751.91,756.41,766.89,-62.50,-959.47,353.03,-0.46,0.09,-0.17,-326.73
44063,787.48,770.08,752.09,756.41,766.51,-51.27,-958.50,345.70,-0.11,-2.99,1.90,-309.17
44099,786.52,769.63,752.17,756.48,766.20,-36.62,-945.80,366.21,-0.18,0.13,2.44,-289.44
44135,785.67,769.16,752.25,756.43,765.88,-33.20,-949.22,359.86,0.89,-2.21,-1.07,-268.28
44172,785.31,768.80,752.25,756.25,765.65,-41.50,-963.87,363.28,-2.18,-2.81,-0.37,-256.47
44208,784.22,768.67,752.20,756.25,765.33,-45.90,-962.40,363.77,-2.18,-2.18,0.44,-250.80
44245,782.68,769.04,752.29,756.46,765.12,-39.06,-978.52,346.19,-0.11,-1.66,-1.20,-252.98
44281,781.16,769.56,752.38,756.75,764.96,-39.55,-952.15,370.12,-3.05,-0.46,-1.81,-258.90
44323,779.83,770.54,752.54,757.15,765.01,-33.20,-956.05,363.28,-3.05,1.79,0.62,-270.76
44361,778.10,772.28,752.73,757.72,765.21,-39.06,-942.87,377.44,-4.14,1.05,-4.00,-296.35
44398,776.52,774.09,752.99,758.40,765.50,-51.76,-966.80,333.98,-1.20,2.56,-2.55,-329.65
44437,776.27,775.18,753.38,759.29,766.03,-43.95,-954.10,360.35,2.66,-3.60,0.84,-345.96
44476,778.45,775.41,753.69,759.92,766.87,-80.57,-990.23,330.08,1.05,0.73,-1.68,-345.46
44514,778.96,775.92,753.82,760.17,767.21,-24.90,-937.99,376.95,-0.95,2.49,1.83,-347.59
44553,779.31,776.07,753.81,760.06,767.31,-41.50,-956.54,345.70,-3.61,2.62,0.80,-346.58
44590,779.44,776.01,753.80,759.90,767.28,-42.97,-973.14,343.26,-1.19,0.08,0.18,-345.88
44627,779.97,775.38,753.71,759.84,767.23,-46.39,-961.91,351.56,-1.65,0.40,-1.14,-344.23
44663,779.83,774.94,753.65,759.43,766.96,-46.88,-950.20,355.96,-3.47,-0.51,2.40,-340.84
44700,779.15,774.77,753.52,759.33,766.69,-32.71,-955.08,351.56,-1.58,1.48,0.40,-338.77
44739,779.40,775.05,753.53,759.32,766.82,-42.97,-974.61,350.10,-0.26,-1.75,-0.33,-340.31
44776,777.98,775.05,753.62,759.54,766.55,-52.25,-961.43,343.75,0.49,-0.08,-3.07,-340.77
44812,776.56,775.59,753.81,760.26,766.55,-35.64,-961.43,344.73,1.06,3.52,-2.48,-347.51
44849,774.52,775.92,753.99,760.62,766.26,-28.81,-947.75,361.82,-0.92,0.79,-0.98,-352.81
44886,773.18,776.58,754.24,761.14,766.28,-26.37,-956.54,349.12,-0.02,2.28,-1.83,-363.44
44927,771.68,777.47,754.44,761.63,766.31,-39.06,-971.68,342.77,-0.79,1.68,-2.58,-377.79
44966,770.71,778.11,754.53,762.07,766.35,-35.16,-945.31,343.26,1.03,2.56,0.43,-388.42
45005,769.71,779.29,754.92,763.02,766.73,-45.90,-968.75,328.61,1.02,-0.63,-1.60,-409.13
45044,768.24,779.66,755.13,763.39,766.61,-34.18,-961.91,337.89,-1.14,1.79,-1.21,-414.02
45083,767.03,780.14,755.46,764.10,766.68,-44.92,-952.64,356.45,-2.65,4.12,-2.15,-419.07
45122,765.67,780.68,755.63,764.33,766.58,-42.48,-971.19,343.75,-2.67,-0.89,-0.79,-423.58
45161,764.95,780.89,755.77,764.64,766.56,-35.64,-964.84,345.70,-0.60,1.89,-2.68,-425.09
45200,764.31,781.39,755.94,764.91,766.64,-46.88,-975.10,350.59,-0.65,2.22,0.04,-430.93
45239,763.76,781.55,756.05,765.12,766.62,-42.48,-959.47,356.93,-1.53,0.12,-3.88,-432.30
45278,763.59,781.63,756.08,765.13,766.61,-25.88,-954.59,338.38,0.55,0.44,0.55,-433.28
45317,763.82,781.87,756.14,765.27,766.78,-31.74,-959.96,340.82,0.85,0.76,-0.53,-436.87
45356,763.87,781.88,756.13,765.33,766.80,-28.32,-970.21,352.54,0.54,1.08,-1.56,-436.86
45395,763.68,781.67,756.14,765.18,766.67,-38.09,-964.84,340.82,-0.71,1.87,-2.66,-434.33
45434,763.85,781.56,756.08,765.05,766.64,-35.64,-963.87,353.52,-0.53,-0.55,-0.76,-433.17
45473,764.40,781.68,755.95,764.97,766.75,-35.16,-960.45,333.01,-0.36,-2.52,-0.98,-435.03
45512,764.64,781.54,755.91,764.62,766.68,-39.55,-965.33,352.54,-0.63,-0.40,1.33,-434.65
45551,764.97,781.53,755.73,764.42,766.66,-40.04,-957.52,348.14,1.24,1.34,-0.95,-434.51
45590,765.80,781.31,755.68,764.26,766.76,-48.34,-958.50,339.84,-0.27,-2.26,-1.47,-433.36
45629,766.24,781.37,755.62,764.17,766.85,-46.88,-966.31,344.24,-0.19,-2.63,0.98,-434.79
45668,766.74,781.27,755.42,764.00,766.86,-51.76,-953.12,350.59,-1.11,-0.31,-1.38,-432.17
45705,767.12,781.39,755.43,763.98,766.98,-39.55,-967.77,344.73,-0.44,-1.06,-1.74,-434.77
45741,767.21,781.33,755.54,763.83,766.98,-38.57,-951.17,349.61,-0.04,-0.33,-1.07,-436.42
45778,767.27,781.10,755.46,763.76,766.90,-41.02,-965.33,354.49,0.34,-2.07,-0.69,-433.04
45814,767.25,781.04,755.37,763.54,766.80,-38.57,-957.52,346.19,-1.76,-2.10,0.20,-432.23
45851,767.39,780.83,755.32,763.36,766.73,-36.13,-953.12,351.07,-1.93,-1.97,0.19,-430.45
45887,767.82,780.68,755.20,763.24,766.73,-47.85,-945.31,346.68,0.64,-1.41,-0.09,-427.96
45923,768.33,780.64,755.11,763.00,766.77,-36.62,-957.52,336.43,0.39,-0.44,-0.56,-427.97
45959,768.71,780.50,755.09,762.90,766.80,-35.16,-960.45,357.42,0.54,2.84,0.07,-426.63
45995,769.01,780.39,755.02,762.84,766.81,-41.02,-957.52,354.49,0.31,2.91,2.24,-425.75
46038,769.33,780.23,754.95,762.65,766.79,-39.55,-970.70,343.26,-0.25,-1.42,0.43,-424.00
46080,769.50,780.10,754.86,762.51,766.74,-40.04,-954.59,350.10,-1.69,-0.70,-1.96,-421.93
46118,769.84,779.97,754.86,762.35,766.75,-42.48,-964.84,344.73,-1.73,-1.06,-1.95,-420.86
46157,770.09,779.80,754.85,762.23,766.75,-42.48,-966.80,348.14,-0.37,0.81,-1.97,-418.93
46196,769.98,779.68,754.70,761.99,766.59,-37.60,-953.61,353.03,-1.63,3.10,-1.73,-414.02
46234,770.29,779.58,754.70,761.90,766.62,-36.13,-939.45,337.40,-0.68,1.58,-0.37,-412.52
46270,770.39,779.51,754.67,761.81,766.60,-49.32,-961.43,348.14,-2.06,-1.04,-1.17,-410.79
46309,770.26,779.43,754.67,761.58,766.48,-33.69,-953.61,358.40,1.21,1.08,0.18,-408.70
46348,770.47,779.34,754.56,761.48,766.46,-43.46,-968.26,356.45,1.07,2.93,0.50,-405.26
46387,770.24,779.49,754.58,761.54,766.46,-48.83,-972.66,345.70,-1.11,0.43,-1.28,-407.78
46426,768.65,779.89,754.60,761.82,766.24,-42.48,-959.47,348.63,-1.56,1.69,-1.24,-412.75
46465,766.46,779.50,754.72,762.18,765.71,-30.27,-959.96,342.29,2.07,-3.60,0.75,-406.79
46504,764.86,779.34,754.93,762.75,765.47,-45.90,-950.68,347.17,2.79,-4.50,-0.31,-405.16
46541,764.60,778.69,754.81,762.38,765.12,-32.23,-916.50,391.60,5.08,0.31,0.82,-394.68
46577,766.18,777.42,754.58,762.32,765.13,-45.90,-969.73,341.80,6.38,-3.47,1.60,-377.64
46614,767.11,777.25,754.64,762.01,765.25,-20.02,-941.41,384.77,0.97,-2.64,-0.53,-375.88
46650,768.86,775.93,754.12,760.91,764.95,-21.48,-940.43,391.60,-0.05,3.86,0.66,-351.97
46687,769.73,777.05,754.19,761.16,765.53,-41.02,-974.61,311.52,-6.50,1.82,-3.21,-368.74
46723,769.20,778.28,754.29,761.40,765.79,16.60,-937.99,383.30,1.14,0.70,-2.15,-384.90
46760,771.36,777.83,753.78,759.89,765.72,-38.09,-947.75,365.23,0.39,0.58,1.63,-363.44
46796,774.68,776.86,753.27,758.51,765.83,-85.94,-988.77,340.82,-6.32,5.14,0.19,-365.41
46833,777.55,774.76,752.76,757.59,765.66,-31.74,-964.84,350.59,2.83,-0.17,1.60,-357.19
46869,782.56,773.10,752.52,756.90,766.27,-34.67,-970.70,364.75,4.71,-1.41,2.59,-336.65
46906,784.69,772.34,752.30,756.54,766.47,-56.15,-971.68,353.52,3.31,-1.37,-2.40,-335.01
46942,785.41,772.54,752.27,756.68,766.73,-55.66,-984.86,337.40,14.00,-9.32,-4.35,-343.86
46979,785.26,773.28,752.41,757.10,767.01,-40.04,-942.87,364.75,3.15,-1.10,-1.22,-355.21
47015,786.01,774.56,752.47,757.49,767.63,-31.74,-963.87,376.46,3.84,-0.92,-4.22,-373.77
47057,785.25,775.79,752.56,757.63,767.80,-44.43,-967.77,373.05,-2.41,1.37,-1.05,-388.00
47093,784.83,776.84,752.51,757.69,767.97,-5.37,-926.27,382.81,-1.73,3.86,-1.40,-404.16
47132,785.57,777.82,752.50,757.97,768.46,-63.96,-958.01,352.54,0.86,2.37,-1.84,-419.88
47171,786.13,778.30,752.62,758.48,768.88,-39.06,-958.01,373.05,2.15,0.29,-2.21,-423.75
47210,785.30,778.60,752.89,759.30,769.02,-35.64,-968.75,383.30,1.72,-0.76,-0.98,-423.40
47249,784.06,778.23,752.99,760.16,768.86,-24.90,-951.66,377.44,2.75,-1.78,-4.04,-418.59
47288,782.69,777.81,753.27,760.99,768.69,-24.90,-954.59,384.28,1.67,-3.50,-0.09,-398.37
47327,781.85,777.66,753.71,761.98,768.80,-27.83,-966.31,367.19,1.89,-3.24,-0.47,-376.59
47366,780.78,777.23,753.82,762.43,768.56,-9.77,-948.24,392.58,-0.38,-2.12,-1.44,-369.31
47405,779.67,777.21,753.99,763.10,768.49,-14.16,-953.12,357.91,0.21,-1.66,-3.09,-380.71
47444,780.24,777.44,754.10,763.04,768.70,2.44,-921.39,411.62,1.10,-0.21,-6.30,-382.78
47483,780.74,777.17,753.91,762.40,768.56,-13.67,-959.96,368.16,-1.97,1.17,0.79,-369.51
47523,781.18,776.56,753.67,761.81,768.30,-8.79,-932.13,380.86,-4.92,0.05,-1.48,-359.97
47561,783.29,776.48,753.53,761.54,768.71,-9.28,-946.29,390.14,3.15,1.68,1.23,-370.20
47601,785.21,776.09,753.22,760.68,768.80,-19.04,-950.20,387.70,-3.55,1.24,0.63,-381.74
47637,785.63,775.60,753.00,759.89,768.53,-5.86,-949.71,386.23,-3.50,2.37,3.81,-386.34
47673,786.14,774.62,752.74,759.26,768.19,-14.16,-958.50,370.12,-5.05,0.11,3.17,-386.10
47710,786.48,773.59,752.56,758.69,767.83,-9.28,-958.50,373.54,-4.46,0.02,1.15,-377.90
47746,786.78,772.50,752.35,758.17,767.45,-30.76,-964.84,357.42,-3.36,-1.82,2.18,-361.94
47783,787.19,771.44,752.25,757.88,767.19,-27.83,-951.17,361.82,-3.32,-2.43,0.82,-346.51
47819,787.83,770.83,752.17,757.58,767.10,-25.88,-947.27,382.32,-0.50,-1.24,1.79,-336.29
47861,788.55,769.94,752.15,757.41,767.01,-23.44,-943.85,382.81,-1.32,1.99,0.08,-321.56
47900,788.63,769.67,752.00,757.11,766.85,-24.41,-957.52,372.56,-1.36,-1.76,-1.03,-319.18
47938,788.88,769.49,751.92,756.77,766.77,-28.81,-956.54,374.02,-2.99,-0.50,-0.66,-313.32
47977,788.88,769.52,751.86,756.46,766.68,-41.02,-955.08,353.03,-3.27,0.91,-0.01,-310.20
48018,788.97,769.38,751.77,756.22,766.58,-21.48,-964.84,366.21,-1.65,1.82,-1.51,-306.41
48057,789.53,769.17,751.75,756.00,766.61,-41.50,-968.75,342.29,-1.21,0.21,-0.82,-300.07
48096,789.99,769.01,751.69,755.94,766.66,-45.90,-955.57,366.21,-2.56,0.08,1.61,-298.66
48139,790.36,769.12,751.73,756.01,766.80,-39.06,-968.26,354.00,3.44,-0.29,-0.39,-303.10
48178,791.43,769.42,751.75,756.18,767.20,-24.41,-947.75,375.00,1.75,3.07,0.31,-315.99
48217,792.63,770.11,751.88,756.50,767.78,-28.81,-966.80,354.49,2.34,0.91,0.31,-333.11
48255,794.22,770.89,751.89,756.69,768.42,-50.29,-951.17,376.95,5.76,0.19,0.63,-349.79
48295,795.61,771.47,751.91,756.70,768.92,-26.86,-950.20,350.10,3.51,1.62,-1.38,-360.59
48334,796.92,771.43,751.77,756.73,769.21,-41.02,-951.17,372.56,-0.11,3.25,0.09,-362.14
48373,795.45,771.37,751.67,756.43,768.73,-27.34,-949.22,364.75,-2.28,0.19,-0.50,-355.16
48412,793.60,771.64,751.54,756.07,768.21,-29.79,-933.59,408.20,-4.81,1.99,0.31,-352.54
48451,791.60,772.30,751.51,755.85,767.81,-25.39,-960.94,358.40,-5.11,3.49,-2.99,-358.11
48490,790.48,772.46,751.43,755.61,767.50,-21.48,-938.48,389.65,-4.35,3.32,0.37,-358.16
48529,789.79,772.34,751.41,755.55,767.27,-37.11,-968.26,354.00,-1.28,-0.18,1.18,-354.95
48568,789.73,772.16,751.36,755.53,767.19,-33.69,-949.71,367.19,-3.73,-0.21,1.18,-351.62
48607,790.21,771.82,751.27,755.20,767.12,-33.69,-962.40,361.33,0.24,-1.05,0.20,-346.34
48646,790.02,771.34,751.28,755.51,767.04,-42.48,-977.54,344.24,-1.50,-1.19,1.15,-338.66
48682,789.49,771.14,751.39,755.86,766.97,-26.86,-966.31,346.68,-4.84,-0.20,1.88,-336.33
48719,789.36,770.70,751.50,756.42,767.00,-45.90,-961.91,356.45,0.23,1.43,-0.58,-335.66
48755,788.08,770.77,751.72,756.80,766.84,-57.62,-970.21,351.56,-1.53,-0.50,-2.82,-339.04
48792,787.35,770.78,751.82,756.90,766.71,-28.81,-957.52,360.35,-0.53,1.21,0.78,-338.15
48828,787.49,770.52,751.89,756.77,766.67,-48.83,-954.59,359.37,0.22,0.21,1.21,-330.20
48865,787.73,770.63,752.01,756.67,766.76,-59.08,-964.36,366.70,1.56,1.29,0.50,-325.77
48901,786.89,770.67,752.18,756.64,766.59,-41.02,-953.61,364.75,-0.91,4.59,-1.82,-316.54
48938,786.57,770.72,752.23,756.79,766.58,-51.76,-962.40,340.82,-1.93,-0.91,2.05,-316.19
48974,785.75,771.59,752.39,756.94,766.67,-45.90,-961.43,358.40,-2.73,-2.07,-0.22,-322.71
49011,784.05,772.32,752.60,757.37,766.58,-49.80,-952.15,366.21,-1.07,-0.82,0.79,-325.53
49047,782.57,773.07,752.68,757.63,766.49,-31.25,-968.26,325.20,-4.17,0.53,-0.26,-335.09
49084,779.93,774.09,752.90,758.14,766.27,-53.22,-959.47,360.35,-6.73,0.85,-2.65,-347.78
49120,777.96,775.50,753.17,758.97,766.40,-60.06,-953.12,352.05,-4.65,0.12,0.12,-356.70
49157,776.01,777.00,753.62,759.68,766.58,-33.20,-950.68,358.40,-3.75,4.01,-3.01,-352.98
49198,774.21,778.95,753.91,760.34,766.85,-47.85,-961.43,343.75,-6.14,4.63,-1.72,-383.83
49235,773.65,779.60,754.20,761.02,767.12,-56.15,-972.17,345.21,1.56,-0.40,0.65,-399.07
49274,774.56,778.99,754.40,761.63,767.39,-62.01,-962.89,348.63,1.77,-0.32,1.56,-399.88
49313,776.01,778.61,754.47,761.53,767.65,-41.02,-954.59,359.37,-2.22,1.02,0.64,-396.45
49352,776.65,778.51,754.29,761.23,767.67,-44.43,-965.82,339.36,-1.66,3.33,-3.89,-388.90
49388,778.16,778.68,754.31,761.01,768.04,-40.53,-956.05,350.59,-1.28,2.34,-0.89,-388.10
49424,779.65,778.62,754.22,760.96,768.37,-41.99,-944.82,354.00,1.33,3.33,-1.29,-382.05
49461,780.98,778.74,754.17,760.67,768.64,-52.73,-958.50,338.38,-3.34,0.31,-2.20,-382.48
49497,780.89,778.38,753.92,760.09,768.32,-41.50,-967.77,331.54,-1.50,-1.16,2.24,-378.27
49533,781.80,777.75,753.84,760.09,768.37,-51.76,-966.31,327.15,-1.06,3.48,0.18,-367.25
49569,781.29,777.71,753.94,760.25,768.30,-38.09,-955.08,334.96,-0.40,1.23,-1.84,-366.42
49611,779.90,777.40,753.97,760.66,767.98,-50.29,-954.59,348.63,-0.28,2.31,-2.98,-362.04
49647,778.19,777.86,754.29,761.36,767.92,-39.06,-958.50,341.31,1.93,0.10,-3.02,-381.52
49683,776.43,777.58,754.40,761.44,767.46,-28.81,-968.26,347.17,2.28,-0.34,-1.92,-382.48
49719,775.77,777.41,754.42,761.79,767.35,-61.04,-967.77,321.29,3.18,0.72,-1.19,-382.68
49756,774.54,777.60,754.50,761.91,767.14,-30.76,-953.12,350.59,-0.18,0.12,-1.85,-384.98
49792,774.00,777.67,754.58,761.94,767.05,-49.80,-945.80,338.87,1.60,-0.56,-1.53,-386.57
49828,773.95,777.97,754.54,762.39,767.21,-45.90,-966.80,329.10,2.50,1.53,0.49,-392.41
49865,773.31,778.18,754.77,762.51,767.19,-40.53,-952.15,353.03,-0.54,0.07,-1.76,-398.05
49902,773.19,778.16,754.85,762.51,767.17,-44.92,-961.43,346.19,0.96,0.50,0.67,-398.41
49938,772.93,778.54,754.91,762.91,767.32,-32.71,-967.77,353.03,0.76,0.04,-1.57,-405.22
49975,772.43,778.73,754.93,762.83,767.23,-30.27,-955.08,345.21,0.11,-0.47,0.02,-407.29
50011,772.04,779.03,754.98,762.98,767.26,-40.53,-960.45,345.70,-1.82,1.21,-1.51,-411.05
50048,771.63,779.24,755.02,763.10,767.25,-38.09,-966.31,347.17,-1.05,1.25,-0.33,-413.45
50084,771.21,779.37,755.05,763.22,767.21,-37.11,-955.08,342.77,0.76,0.38,0.04,-414.58
50121,770.72,779.79,755.17,763.37,767.26,-39.06,-969.73,355.96,-1.32,-0.29,-0.78,-420.04
50157,770.46,779.93,755.18,763.41,767.25,-32.23,-954.59,364.75,-2.62,1.30,0.56,-421.14
50194,770.37,780.34,755.33,763.67,767.42,-35.64,-963.87,347.17,-0.60,0.76,-1.34,-426.88
50237,769.55,780.75,755.39,763.84,767.38,-34.18,-945.31,354.00,-0.02,-1.39,-0.07,-431.03
50276,769.12,781.02,755.48,763.98,767.40,-37.11,-958.01,342.77,1.08,-0.37,-3.76,-434.71
50315,768.98,781.27,755.51,764.03,767.45,-37.11,-949.71,357.42,-0.82,1.02,-1.08,-437.89
50354,768.87,781.29,755.46,764.01,767.41,-41.50,-965.82,341.31,0.61,-0.80,-2.45,-437.57
50393,768.82,781.32,755.49,763.87,767.37,-53.71,-950.68,351.07,0.19,0.69,0.16,-437.77
50433,768.94,781.39,755.44,763.77,767.38,-31.74,-961.91,357.42,-1.30,1.10,0.08,-438.32
50471,769.27,781.37,755.37,763.63,767.41,-34.67,-963.38,341.31,-0.85,-0.08,-3.13,-437.82
50511,769.45,781.41,755.31,763.56,767.43,-34.18,-951.17,345.21,-1.22,2.05,-1.05,-437.74
50549,769.58,781.38,755.28,763.44,767.42,-40.53,-967.29,346.19,-0.59,-1.34,-0.43,-437.65
50588,769.81,781.16,755.26,763.26,767.37,-31.74,-957.03,355.47,-0.39,-0.12,1.49,-435.95
50627,770.16,781.08,755.25,763.20,767.42,-30.76,-964.36,344.73,-0.36,1.31,0.98,-435.57
