currTime,s1,s2,s3,s4,s,AccX,AccY,AccZ,GyroX,GyroY,GyroZ,GRF,Frame,SubFrame,Weight,Fx,Fy,Fz,Mx,My,Mz,Cx,Cy,Cz
12450,774.53,767.68,758.35,756.59,764.29,67.38,-865.72,526.37,1.31,1.98,0.48,-137.77,2491,0,64,-0.744333,7.72976,-28.3653,-657.362,2835.11,1453.9,-407.975,24.362,0
12484,774.33,767.79,758.35,756.56,764.26,43.46,-867.68,526.86,-1.95,-0.65,-0.32,-137.49,2498,0,64,-5.35056,-14.8579,-89.1331,3001.56,9779.62,-780.658,-397.286,-33.7063,0
12519,774.2,767.79,758.39,756.65,764.26,64.45,-870.61,546.39,3.06,2.75,-0.85,-137.43,2505,0,64,-7.68317,1.13052,-157.628,3871.12,17850.7,1615.29,-393.757,-24.5426,0
12553,774,767.91,758.47,756.68,764.27,38.57,-862.79,536.13,0.91,-0.27,2.13,-136.27,2512,0,64,-12.8603,5.82067,-214.045,5299.3,24267.3,2132.07,-393.624,-24.7591,0
12587,773.7,767.88,758.49,756.67,764.19,51.76,-859.37,539.55,-0.97,2.07,0.31,-134.23,2518,0,64,-23.2065,4.96665,-247.242,6513.32,27393.1,1525.98,-396.205,-26.3428,0
12621,773.4,767.94,758.65,756.73,764.18,219.24,-1081.54,517.58,-23.08,-16.98,4.27,-130.76,2525,0,64,-34.6005,5.48751,-302.061,8393.88,33039.5,1188.85,-397.621,-27.7837,0
12656,773.38,768.04,758.59,756.82,764.21,-9.77,-761.23,518.07,11.5,4.1,0.37,-134.23,2532,0,64,-45.1953,4.27257,-409.644,12519.8,44911.3,866.377,-397.37,-30.5553,0
12690,773.4,768.06,758.53,756.78,764.19,120.61,-906.74,531.25,2.18,6.49,1.34,-135.29,2539,0,64,-54.0609,2.84395,-543.743,18169.8,60522.5,632.294,-395.696,-33.4119,0
12724,773.47,768.04,758.53,756.82,764.21,48.83,-844.24,529.79,-1.72,3.05,1.76,-135.92,2546,0,64,-62.0696,2.99705,-671.166,23256.8,75220.1,182.319,-394.925,-34.6499,0
12759,773.36,768.11,758.62,756.79,764.22,55.18,-849.12,520.02,2.54,0.97,-0.27,-133.39,2553,0,64,-67.366,2.82284,-716.843,25086,80115.9,-407.648,-395.238,-34.9952,0
12793,773.35,768.14,758.56,756.78,764.21,57.13,-879.88,530.76,-0.67,2.54,0.62,-135.11,2560,0,64,-66.4253,3.48107,-697.213,23290.7,77688.7,-659.93,-395.572,-33.4051,0
12827,773.36,768.09,758.63,756.82,764.23,37.6,-875,522.46,3.42,4.75,1.71,-133.5,2566,0,64,-60.8061,2.8163,-661.215,20817,73921.4,-675.337,-395.204,-31.4823,0
12861,773.26,768.11,758.61,756.87,764.21,38.09,-890.14,537.6,0.3,3.67,1.7,-134.7,2573,0,64,-54.764,3.9448,-628.693,17243.8,69978.6,-264.435,-395.692,-27.4273,0
12896,773.16,768.14,758.63,756.87,764.2,52.73,-879.39,533.2,0.98,0.21,-0.76,-134.1,2580,0,64,-50.0487,6.00931,-620.638,14449.5,69128.6,259.672,-395.617,-23.2818,0
12930,773.12,768.2,758.64,756.92,764.22,53.22,-884.28,522.95,-0.68,2.54,-0.4,-134.65,2587,0,64,-47.2187,6.67359,-633.222,12944.2,70703.6,670.603,-395.343,-20.442,0
12964,773.03,768.19,758.67,756.88,764.19,54.2,-867.68,534.18,1.17,1.86,1.25,-133,2594,0,64,-46.5974,2.66696,-638.648,12552,71458.6,367.299,-395.11,-19.6539,0
12998,772.99,768.26,758.67,756.86,764.2,63.48,-859.37,537.11,0.01,-0.23,0.74,-133.1,2601,0,64,-43.244,-0.798191,-596.961,10458.5,66655,387.622,-395.343,-17.5176,0
13031,772.99,768.21,758.73,756.93,764.21,58.11,-872.07,521,1.66,2.53,-2.58,-132.26,2607,0,64,-38.0386,-2.09145,-546.33,8083.09,60776.1,668.248,-395.756,-14.7929,0
13065,772.98,768.22,758.74,756.92,764.21,58.11,-873.05,527.83,1.73,2.56,0.1,-132.01,2614,0,64,-31.619,-0.475726,-492.502,5422.56,54674.5,1241.78,-395.986,-11.009,0
13099,772.82,768.2,758.74,756.89,764.16,55.66,-864.75,526.37,-0.44,-0.33,1.14,-130.69,2621,0,64,-27.8646,0.0712741,-460.473,3646.57,50935.9,1869.95,-396.383,-7.91847,0
13133,772.86,768.18,758.75,756.85,764.16,49.8,-857.42,531.74,0.25,2.08,1.31,-129.85,2628,0,64,-27.2777,-1.82355,-441.537,2973.56,48824.8,1806.82,-396.421,-6.73429,0
13166,772.9,768.22,758.71,756.86,764.17,64.45,-870.61,532.23,-1.24,2.7,-1.63,-131.52,2634,0,64,-26.3166,-3.60672,-431.366,2644.16,47650.6,1642.82,-396.535,-6.12979,0
13201,773.01,768.13,758.76,756.89,764.2,52.73,-861.82,534.18,1.04,2.4,0.73,-130.4,2641,0,64,-24.2986,-4.85433,-417.234,2135.12,46038.1,1876.24,-396.659,-5.1166,0
13235,773.06,768.11,758.64,756.88,764.17,69.82,-859.86,538.09,0.92,1.29,0.06,-133.16,2648,0,64,-22.2897,-4.04753,-389.671,679.301,42764.7,2230.09,-397.255,-1.74256,0
13268,773.06,768.06,758.67,756.84,764.16,55.18,-854.98,538.57,0.97,2.52,1.76,-131.56,2655,0,64,-21.1409,-1.52405,-356.036,-1119.96,38621.7,2612.73,-398.524,3.14768,0
13302,773.08,768.02,758.73,756.86,764.17,63.96,-865.72,546.39,0.31,0.58,1.59,-130.23,2661,0,64,-21.263,-1.18827,-328.655,-2184.61,35393.6,2744.46,-399.308,6.64802,0
13336,773.04,768.08,758.65,756.88,764.16,49.32,-863.77,521.48,1.45,2.95,-0.48,-132.78,2668,0,64,-19.7148,-1.05415,-303.263,-2967.44,32360,2870.73,-400.293,9.78633,0
13372,773.08,767.99,758.65,756.84,764.14,65.92,-858.4,528.32,0.43,0.44,-0.22,-131.54,2675,0,64,-19.0979,-1.47029,-287.494,-3351.71,30794.2,3028.83,-399.888,11.6582,0
13406,773,768.03,758.66,756.81,764.12,53.22,-859.37,537.11,-0.68,1.79,1.5,-130.82,2682,0,64,-18.1556,-2.93791,-278.93,-3122.07,30253.3,3133.83,-398.538,11.193,0
13440,773.03,767.92,758.65,756.81,764.1,61.52,-867.19,525.88,0.93,-0.26,-0.98,-130.29,2689,0,64,-17.8972,-4.10707,-280.787,-2447.24,31078.5,3078.62,-396.317,8.71603,0
13474,773.01,767.91,758.65,756.85,764.1,61.52,-871.58,525.88,-1.05,-0.75,-1.89,-130.67,2696,0,64,-18.321,-3.69459,-291.619,-1784.93,32667.9,3167.04,-394.977,6.12079,0
13509,772.96,767.92,758.69,756.74,764.08,48.34,-867.19,521.97,1.29,1.59,-0.27,-127.96,2703,0,64,-19.0372,-2.84439,-300.938,-1541.01,33858.3,3321.9,-394.491,5.12092,0
13543,772.95,767.83,758.77,756.7,764.06,77.15,-836.43,527.83,2.15,1.95,1.42,-124.79,2710,0,64,-19.7941,-2.7741,-309.789,-1021.93,34762.6,3324.28,-394.786,3.299,0
13577,772.76,767.88,758.81,756.7,764.04,62.99,-860.84,521,0.3,-0.43,-2.03,-123.37,2716,0,64,-20.6962,-3.82626,-317.875,-469.214,35720.8,3289.83,-394.627,1.47637,0
13611,772.72,767.68,758.89,756.61,763.98,52.25,-874.51,535.16,0.91,0.92,0,-118.37,2723,0,64,-21.1082,-5.35667,-322.592,253.081,36381.4,2994.91,-394.222,-0.784485,0
13646,772.51,767.65,759.07,756.61,763.96,34.18,-870.61,522.46,2.15,-2.23,0.89,-113.15,2730,0,64,-21.1772,-5.45001,-323.46,501.072,36430.2,2856.72,-394.373,-1.5493,0
13680,772.36,767.37,759.43,756.58,763.93,41.5,-859.37,542.48,5.05,-0.19,-0.89,-100.7,2737,0,64,-21.1214,-5.60736,-319.65,535.368,36014.9,2807.46,-394.33,-1.67484,0
13714,772.3,767.02,760.11,756.38,763.95,39.06,-869.63,533.2,4.44,-4.3,-2.02,-77.86,2744,0,64,-21.0363,-4.41723,-317.641,391.52,35669.9,2999.19,-394.704,-1.23262,0
13748,772.32,766.73,760.77,756.28,764.03,64.94,-866.21,541.5,4.83,-1.48,-0.02,-57.92,2751,0,64,-21.64,-4.33085,-317.795,303.179,35650.6,2971.72,-394.819,-0.954066,0
13783,772.26,766.57,761.21,756.29,764.08,58.59,-860.35,552.25,7.98,-3.26,-0.77,-45.6,2758,0,64,-21.9548,-4.04906,-320.087,248.075,35742.8,2787.17,-395.334,-0.774996,0
13817,772.33,766.55,761.39,756.34,764.15,61.52,-856.93,542.48,3.9,-2.72,-2.01,-41.95,2764,0,64,-21.7099,-4.28949,-323.18,185.747,36122.9,2687.15,-395.227,-0.574732,0
13851,772.43,766.39,761.37,756.54,764.18,81.54,-854.98,549.32,5.24,-0.21,-3.27,-44.21,2771,0,64,-22.0831,-3.59298,-324.486,-288.746,36221,2629.8,-395.374,0.889604,0
13885,772.72,766.24,761.42,756.77,764.29,59.57,-844.73,552.73,4.15,-0.71,-3.61,-46.25,2778,0,64,-22.2167,-3.30344,-327.764,-898.412,36434,2461.79,-395.84,2.74074,0
13920,772.78,766.27,761.48,757.1,764.41,67.87,-846.68,561.52,1.82,2.07,0.23,-50.14,2785,0,64,-22.1874,-3.60321,-334.059,-1543.72,37045.5,2434.68,-396.105,4.62082,0
13954,772.72,766.21,761.58,757.35,764.46,61.52,-848.14,558.11,0.34,0.13,0.41,-50.61,2792,0,64,-22.6581,-3.64956,-342.201,-2260.36,37950.4,2505.16,-396.099,6.60511,0
13988,772.77,766.21,761.63,757.59,764.55,72.27,-862.3,558.59,3.03,1.66,-3.47,-52.89,2799,0,64,-23.1821,-3.90747,-348.491,-3110.7,38518.8,2611.36,-396.47,8.92604,0
14022,772.98,766.11,761.59,757.91,764.65,62.99,-838.87,562.01,2.8,-0.13,-0.43,-58.46,2805,0,64,-23.2508,-4.08808,-348.981,-3994.32,38414.3,2705.04,-396.925,11.4458,0
14057,773.14,766.09,761.69,758.11,764.76,71.29,-841.31,558.11,0.53,0.95,-1.13,-59.38,2812,0,64,-24.128,-3.05103,-344.695,-5406.27,37800.7,2825.03,-397.336,15.6846,0
14091,773.31,765.96,761.84,758.37,764.87,74.71,-852.05,563.48,0.99,1.04,1.23,-59.08,2819,0,64,-24.1095,-1.76283,-340.934,-6754.1,37092.4,3115.79,-398.204,19.8108,0
14125,773.51,765.84,761.98,758.61,764.98,82.03,-836.43,561.04,1.37,0.35,-1.61,-58.88,2826,0,64,-24.2922,-1.06422,-341.549,-7861.57,37146.5,3268.33,-398.241,23.0173,0
14159,773.7,765.84,762.09,758.81,765.11,89.84,-848.14,557.62,0.63,0.36,0.37,-59.59,2833,0,64,-23.921,-0.790013,-342.104,-8831.45,37144.9,3473.67,-398.422,25.815,0
14194,774,765.78,762.26,758.92,765.24,100.1,-839.84,569.82,0.67,0.43,-1.89,-57.55,2840,0,64,-24.0553,-0.940275,-341.451,-9660.07,37018.4,3563.39,-398.585,28.2912,0
14228,774.33,765.72,762.33,759.06,765.36,77.64,-849.61,562.5,0.99,2.05,0.4,-58.68,2847,0,64,-24.169,-0.504261,-339.051,-10610,36550.5,3603.54,-399.197,31.2933,0
14262,774.95,765.72,762.22,759.11,765.5,95.21,-832.03,562.99,3.2,2.02,1.14,-64.24,2853,0,64,-24.323,0.409752,-336.413,-11367.9,36141.8,3895.07,-399.567,33.7916,0
14296,776.05,765.94,762.19,759.32,765.87,90.82,-832.03,586.43,4.46,2.75,-0.4,-73.44,2860,0,64,-23.7877,0.973921,-335.438,-12005.1,35888.1,4014.84,-400.011,35.7894,0
14332,778.06,766.08,762.11,759.57,766.45,96.68,-845.21,557.13,4.6,3.58,-2.97,-87.32,2867,0,64,-23.97,1.834,-336.336,-12298,36052.2,4092.64,-399.809,36.5647,0
14366,781.95,766.48,762.18,759.96,767.64,81.05,-843.26,572.27,8.95,6.15,0.32,-107.87,2874,0,64,-24.5488,1.97624,-341.21,-12393.7,36522,4135.58,-399.963,36.3231,0
14401,788.17,767.16,762.24,760.56,769.53,82.52,-834.47,553.22,8.28,6.34,-2.31,-141.99,2881,0,64,-25.1336,0.382399,-348.307,-11860,37448.6,4091.63,-399.484,34.051,0
14435,797.64,767.97,762.48,761.36,772.36,82.52,-838.87,562.99,9.16,5.11,-2.59,-186.81,2888,0,64,-25.2513,-1.74215,-356.148,-11233.6,38268.9,3784.62,-399.548,31.5421,0
14469,808.1,768.41,762.77,762.26,775.38,62.5,-841.8,574.71,9.23,4.05,-1.84,-232.17,2895,0,64,-26.4845,-3.1233,-357.653,-10606,38357.3,3630.22,-399.753,29.6543,0
14503,814.07,768.66,763.03,763.03,777.2,67.38,-839.36,568.85,9.63,1.07,-2.49,-259.59,2902,0,64,-26.8865,-3.62303,-356.925,-10166.8,38150.4,3517.37,-400.114,28.4843,0
14538,814.55,768.68,762.96,763.35,777.38,83.01,-812.5,593.75,1.56,3.1,0.52,-267.8,2909,0,64,-26.7618,-3.06376,-359.563,-9788.78,38582.4,3783.65,-399.697,27.2245,0
14572,813.35,768.45,762.78,763.31,776.97,77.64,-830.08,595.7,-0.25,3.25,-0.53,-265.73,2915,0,64,-26.952,-3.69737,-368.231,-9030.63,39669.7,3674.44,-399.269,24.525,0
14606,812.48,768.1,762.6,763.03,776.55,86.91,-828.61,596.68,-1.3,1.61,-1.05,-260.38,2922,0,64,-26.9222,-4.53533,-376.69,-8239.87,40745.7,3630.51,-398.832,21.8747,0
14639,812.82,767.67,762.38,762.7,776.39,82.52,-831.54,598.14,-1.15,1.18,-1.44,-258.61,2929,0,64,-26.6534,-4.00331,-375.911,-7858.82,40715.4,3680.3,-398.689,20.9062,0
14673,814.1,767.05,762.19,762.26,776.4,94.73,-829.1,592.77,-1.32,-1.96,-0.01,-256.35,2936,0,64,-27.0135,-2.50214,-365.08,-7819.47,39438,3945.61,-398.975,21.4185,0
14707,816.05,766.5,761.91,761.67,776.53,77.15,-833.01,596.68,-2.56,-0.74,-3.23,-256.85,2942,0,64,-27.0704,-2.06164,-359.358,-7598.49,38641,3922.44,-399.472,21.1445,0
14740,817.2,766.23,761.88,761.3,776.65,87.4,-837.89,579.59,-2.59,-1.01,0.24,-253.97,2949,0,64,-26.1621,-3.068,-358.132,-6848.69,38694.9,3972.68,-398.954,19.1234,0
14774,817.35,765.95,761.79,761.11,776.55,89.36,-834.96,589.84,-1.65,-0.24,0.7,-251.78,2956,0,64,-25.9274,-4.53389,-362.231,-5877.76,39355.8,3805.75,-398.352,16.2266,0
14809,816.61,765.9,761.82,761.2,776.38,89.36,-825.68,590.82,-2.33,1.18,1.7,-249.31,2963,0,64,-25.6948,-4.93928,-366.054,-5307.59,39847.8,3670.89,-398.142,14.4995,0
14842,815.39,766.09,761.92,761.52,776.23,86.91,-827.64,576.17,0.81,1.49,-1.78,-248.88,2969,0,64,-25.4746,-4.65627,-364.456,-5026.38,39878.6,3491.73,-397.58,13.7914,0
14876,813.85,766.22,762.08,761.95,776.03,85.45,-838.38,586.43,-1.42,3.77,0.44,-246.9,2976,0,64,-24.2232,-2.95344,-356.448,-5013.4,39110.9,3526.12,-397.276,14.0651,0
14910,811.96,766.62,762.35,762.69,775.91,82.03,-832.52,580.08,1.97,1.55,4.35,-247.82,2983,0,64,-23.3299,-1.71484,-347.293,-5113.92,38192.7,3353.74,-397.028,14.725,0
14944,809.59,767.14,762.77,763.69,775.8,97.66,-813.48,586.43,3.41,0.95,1.8,-248.18,2990,0,64,-23.0534,-1.98487,-344.155,-4722.67,37937.5,3048.06,-396.766,13.7224,0
14978,806.57,767.82,763.26,764.86,775.63,92.29,-831.54,586.91,3.44,3.1,0.42,-248.3,2997,0,64,-22.9531,-2.76933,-344.767,-4210.22,38158.2,2823.71,-396.322,12.2118,0
15012,803.29,768.54,763.73,765.96,775.38,89.84,-832.03,582.03,3.73,5.66,4.66,-247.13,3003,0,64,-22.752,-2.96972,-344.125,-3964.2,38230.3,2748.7,-395.906,11.5197,0
15046,799.54,769.52,764.55,767.39,775.25,79.1,-813.48,582.52,5.55,0.18,4.11,-242.84,3010,0,64,-22.3485,-3.1167,-341.854,-3773.46,38004.5,2367.99,-395.828,11.0382,0
15081,794.04,770.89,765.72,769.26,774.98,80.57,-812.5,600.1,2.69,4.38,2.34,-233.41,3017,0,64,-22.3201,-3.27093,-339.731,-3695.98,37913.5,2262.87,-395.402,10.8791,0
15115,788.11,772.57,767.19,771.21,774.77,81.54,-829.59,599.61,4.8,6.15,7.05,-218.65,3024,0,64,-22.0405,-3.49141,-340.303,-3544.47,38069.2,2198.05,-395.132,10.4156,0
15149,780.13,774.71,769.21,773.71,774.44,46.88,-811.04,601.07,4.69,4.89,5.25,-194.87,3031,0,64,-22.2995,-3.78208,-341.554,-3134.69,38324.2,2066.2,-394.795,9.17773,0
15183,771.83,777.07,771.88,776.43,774.3,69.34,-825.2,609.37,0.18,0.43,5.79,-158.83,3038,0,64,-22.3418,-4.56651,-342.229,-3010.08,38443.8,1919.6,-394.666,8.7955,0
15218,764.36,779.88,774.93,778.89,774.52,61.04,-821.29,606.93,-4.07,2.68,8.24,-116.03,3045,0,64,-22.3902,-5.59233,-341.02,-2785.52,38446.5,1815.14,-394.26,8.1682,0
15252,756.7,783.14,778.82,781.44,775.03,58.11,-876.46,558.11,-17.95,9.1,18.53,-56.32,3051,0,64,-21.9452,-6.06646,-336.627,-2756.52,38197,1914.65,-393.53,8.18869,0
15288,750.26,786.51,783.41,783.52,775.93,74.22,-842.29,599.12,-24.37,11.68,35.12,22.44,3059,0,64,-20.2834,-6.02188,-326.805,-3051.95,37562.7,1912.56,-392.061,9.33911,0
15322,749.13,787.94,786.42,784.35,776.96,172.36,-882.32,686.52,-42.74,15.38,47.03,77.67,3065,0,64,-19.333,-5.03894,-319.364,-3395.26,37104.2,1984.41,-390.818,10.6317,0
15356,748.55,787.06,787.94,783.47,776.75,30.76,-906.25,613.28,-40.82,39.02,68.85,137.33,3072,0,64,-18.5912,-4.28139,-312.641,-3885.45,36557.7,2054.09,-390.068,12.4279,0
15391,747.93,783.9,789.3,781.43,775.64,-34.18,-995.61,581.05,-58.3,46.73,86.96,228.86,3079,0,64,-18.2605,-3.84824,-305.447,-4181.09,35993.8,2232.36,-389.16,13.6884,0
15425,747.13,779.18,790.09,778.94,773.83,-54.2,-971.68,540.04,-55.5,54.65,113.67,325.84,3086,0,64,-17.0671,-3.67899,-297.231,-4474.28,35046.9,2334.21,-389.088,15.0533,0
15459,745.97,773.81,789.72,775.89,771.35,-90.82,-993.65,500.98,-54.58,62.98,131.05,408.42,3093,0,64,-15.8346,-2.35405,-290.198,-4882.94,34355.2,2620.34,-388.614,16.8262,0
15493,745.09,768.51,787.46,770.47,767.88,-198.24,-1276.37,471.19,-44.76,63.7,147.4,477.53,3100,0,64,-15.4684,0.0631411,-282.204,-5304.4,33463.5,2587.53,-388.421,18.7968,0
15527,744.58,763.93,781.11,763.35,763.24,-327.15,-1395.51,441.41,25.76,69.37,150.07,462.63,3106,0,64,-15.6089,1.92772,-279.898,-5684.01,33084.5,2681.4,-388.798,20.3074,0
15562,744.38,761.08,769.58,758.47,758.38,-349.61,-2000,416.5,89.58,34.66,131.83,270.61,3113,0,64,-15.9653,3.42551,-285.069,-5786.02,33698.8,2682.33,-388.787,20.2971,0
15596,744.38,758.61,755.95,755.03,753.49,-786.62,-1917.97,604.98,169.67,11.22,75.08,1.49,3120,0,64,-15.8885,3.78291,-298.482,-5394.44,35243.9,2675.02,-388.923,18.0741,0
15630,744.44,757.83,754.06,753.27,752.4,-1395.51,-329.59,279.3,250.13,37.06,80.03,-13.51,3127,0,64,-16.6975,2.94387,-317.376,-4625.94,37381,2616,-389.218,14.5766,0
15664,744.34,757.51,753.96,752.99,752.2,-137.7,-1569.82,359.37,123.92,-47.38,39.61,-9.02,3134,0,64,-17.3735,1.95065,-337.688,-3696.46,39630.7,2492.31,-389.641,10.9472,0
15699,744.27,757.43,753.76,752.65,752.03,127.93,-877.44,193.36,156.08,20.11,-6.09,-8.2,3141,0,64,-19.7396,1.40995,-357.73,-2781.75,41688.1,2296.29,-390.465,7.77711,0
15733,744.33,757.26,753.58,752.65,751.95,206.54,-713.87,60.55,134.08,85.89,-39.05,-11.52,3148,0,64,-21.0845,1.60804,-377.525,-1668.62,43860.2,2357.15,-390.821,4.42132,0
15767,744.28,757.15,753.51,752.62,751.89,195.31,-579.59,69.34,80.68,108.24,-85.01,-11.73,3154,0,64,-21.9069,1.3581,-400.845,-277.663,46453.4,2270.81,-391.111,0.694408,0
15801,744.27,757.19,753.5,752.5,751.86,178.71,-641.6,104.98,33.08,94.48,-133.88,-10.45,3161,0,64,-24.9228,-0.534237,-441.977,2177.29,51144,1981.49,-391.283,-4.92279,0
15836,744.35,757.05,753.45,752.41,751.82,86.43,-672.36,120.61,40.34,71.27,-165.76,-9.67,3168,0,64,-30.0565,-3.37616,-502.341,5578.66,58095.6,1545.75,-391.35,-11.1007,0
15870,744.32,757.07,753.41,752.43,751.81,-12.21,-624.02,116.21,27.79,27.11,-177.63,-10.91,3175,0,64,-34.9527,-6.70107,-554.61,9029.32,63978,809.761,-391.643,-16.2789,0
15904,744.24,757.09,753.37,752.41,751.78,-20.51,-796.87,105.47,-8.39,-28.84,-196.81,-11.48,3182,0,64,-37.8363,-9.3993,-583.206,11776.5,67156.9,118.915,-391.849,-20.1922,0
15938,744.1,757.1,753.33,752.35,751.72,-59.57,-1017.58,120.61,-25.37,-64.13,-213.49,-11.21,3189,0,64,-37.9594,-10.9096,-597.397,13948.2,68786.8,-301.565,-391.856,-23.348,0
15973,744.15,757.13,753.36,752.36,751.75,-217.77,-1143.55,161.13,-42.69,-68.81,-225.79,-10.94,3196,0,64,-36.0333,-11.7711,-599.421,15552.1,69202.1,-217.324,-391.552,-25.9454,0
16007,744.03,757.12,753.29,752.28,751.68,-223.14,-1516.6,202.15,-79.29,-31.97,-238.02,-11.18,3202,0,64,-33.4319,-11.8757,-592.163,16651.2,68529.3,-248.422,-391.273,-28.1194,0
16041,743.96,757.1,753.25,752.23,751.64,-374.02,-1507.81,236.82,-87.63,39.21,-239.45,-10.97,3209,0,64,-32.3219,-10.7851,-581.699,17758.6,67594.2,74.8212,-390.799,-30.529,0
16075,743.91,757.05,753.39,752.32,751.67,-511.72,-1664.55,349.12,-122.01,70.82,-222.37,-8.43,3216,0,64,-30.6842,-10.44,-574.101,18406.5,66736.3,217.227,-390.755,-32.0614,0
16110,743.99,757.05,753.3,752.33,751.67,-619.14,-1567.38,398.44,-95.34,87.08,-186.69,-10.84,3223,0,64,-29.0407,-10.2916,-569.251,18643.7,66287.3,371.466,-390.553,-32.7513,0
16144,743.86,757.08,753.27,752.4,751.65,-591.31,-1337.89,519.53,-117.07,59.47,-145.6,-12.4,3230,0,64,-30.0483,-8.76074,-558.915,17955,64922.3,414.761,-390.842,-32.1247,0
16178,743.85,756.98,753.33,752.31,751.62,-599.12,-1281.25,632.81,-144.31,19.83,-107.24,-8.65,3237,0,64,-30.7403,-7.67614,-534.469,16506.8,61933.3,313.784,-391.122,-30.8842,0
16211,743.84,757,753.23,752.33,751.6,-557.62,-1219.73,705.08,-138.95,-16.46,-89.31,-11.83,3243,0,64,-29.6679,-7.89868,-512.052,15405.6,59267,427.555,-391.256,-30.086,0
16247,743.86,757.1,753.19,752.34,751.62,-577.64,-1110.84,543.95,-86.36,-16.71,-71.04,-13.83,3250,0,64,-27.6631,-6.39888,-484.076,13678.5,56025.9,845.476,-391.262,-28.2561,0
16280,743.83,756.97,753.21,752.31,751.58,-834.96,-962.4,310.55,-45.25,0.72,-50.73,-11.57,3257,0,64,-26.9585,-4.28846,-459.34,11932.3,53057.5,1180.01,-391.492,-25.9763,0
16314,743.82,757.1,753.22,752.25,751.6,-1105.96,-507.81,306.15,-94.71,-13.63,-12.15,-11.34,3264,0,64,-26.5134,-3.20457,-435.053,10715.4,50099.7,1326.23,-391.843,-24.6298,0
16348,744.29,757.03,753.15,752.24,751.68,-831.54,-976.56,470.7,-96.76,-3.49,74.11,-14.23,3271,0,64,-25.4908,-3.33477,-404.115,9324.84,46476.5,1467.09,-391.992,-23.074,0
16382,748.81,757.15,753.27,752.18,752.85,1999.94,-2000,-2000,250.13,250.13,119.37,-26.77,3277,0,64,-23.4263,-2.87415,-372.108,7942.7,42744.1,1622.66,-392.13,-21.3436,0
16416,757.7,757.73,753.12,752.11,755.16,267.58,-1174.32,499.51,134.33,75.76,151.16,-64.5,3284,0,64,-20.9061,-2.73265,-327.213,6267.71,37449.1,1802.81,-392.552,-19.1541,0
16450,784.93,761.14,753.29,752.18,762.88,278.32,-169.43,1453.61,200.12,126.69,158.28,-182.06,3291,0,64,-19.5538,-2.688,-283.075,4784.84,32239.3,1905.36,-393.111,-16.9007,0
16484,806.03,764.28,755.34,753,769.66,75.68,197.27,895.51,250.13,56.98,12.48,-240.69,3298,0,64,-17.2738,-2.16954,-250.019,3610.43,28404.4,2025.82,-393.391,-14.4396,0
16518,812.6,765.51,757.13,754.72,772.49,370.12,-1154.79,657.71,25.76,-20.53,-0.07,-253.84,3305,0,64,-14.8348,-2.18126,-226.525,2792.01,25771.3,2258.41,-393.232,-12.3241,0
16552,816.81,766.79,757.82,755.24,774.17,143.07,-982.42,507.81,-13.38,-5.2,1.44,-269.12,3311,0,64,-13.0111,-2.0105,-210.428,2091.03,23924,2459.09,-393.309,-9.93563,0
16586,822.46,767.81,758.55,755.97,776.2,78.61,-877.44,514.16,4.83,3.65,2.5,-289.17,3318,0,64,-11.9062,-1.19342,-197.646,1378.48,22278.2,2584.24,-394.283,-6.97458,0
16621,824.97,768.97,759.36,756.94,777.56,97.17,-847.66,527.34,9.08,5.39,1.05,-301.29,3325,0,64,-11.77,-0.709888,-187.561,912.589,21096.9,2665.96,-394.52,-4.86484,0
16655,822.82,770.29,760.01,757.95,777.77,101.07,-882.81,539.06,5.12,4.15,3.97,-303.09,3332,0,64,-11.4522,0.421426,-180.962,410.991,20177.9,2832.79,-395.497,-2.271,0
16689,818.18,771.1,761.15,759.33,777.44,75.2,-846.19,580.08,11.4,4.41,1.05,-285.42,3339,0,64,-11.7641,0.654518,-176.958,164.093,19704.6,2744.27,-395.648,-0.927383,0
16723,810.71,771.7,762.19,760.56,776.29,89.36,-836.91,574.71,7.31,4.82,3.82,-256.86,3346,0,64,-11.8631,0.70152,-178.393,45.0688,19769.7,2704.08,-396.18,-0.252336,0
16758,803.68,772.31,763.09,761.64,775.18,79.59,-841.8,558.59,5.75,4.63,-0.19,-231.15,3353,0,64,-12.343,1.7366,-181.605,-43.8157,20101.5,2712.96,-396.312,0.24137,0
16792,798.92,772.83,764.22,762.85,774.7,49.8,-855.47,563.96,6.65,2.37,1.28,-208.65,3359,0,64,-13.4004,2.36311,-186.446,-8.19858,20617.4,2790.86,-396.419,0.0439682,0
16826,796.14,773.3,765.5,764.3,774.81,88.38,-858.89,604,8.14,2.87,0.16,-192.39,3366,0,64,-14.5947,3.24437,-192.696,-33.8937,21205.7,2804.4,-396.952,0.175853,0
16860,793.59,773.6,767.08,765.96,775.06,96.19,-845.21,571.29,7.56,-0.95,-0.22,-171.2,3373,0,64,-15.2708,4.25888,-199.224,108.264,21892.3,2759.45,-397.112,-0.543676,0
16895,790.22,773.98,768.82,768.08,775.27,72.75,-797.85,579.59,6.29,-3.4,0.42,-150.44,3380,0,64,-16.2189,4.49131,-204.414,229.507,22345.6,2705.72,-397.685,-1.12276,0
16929,784.22,774.87,770.37,770.51,774.99,88.87,-798.83,617.19,6.25,-0.25,1.22,-134.25,3387,0,64,-16.9689,4.42661,-206.737,463.145,22505.6,2809.22,-398.139,-2.24009,0
16963,775.62,776.64,772.24,773.25,774.44,76.17,-842.77,581.05,4.42,4.06,4.43,-112.48,3394,0,64,-17.0694,3.79895,-210.39,915.874,22946.6,2665.01,-397.933,-4.35267,0
16997,765.71,779.62,774.87,777.19,774.35,59.08,-805.18,596.68,3.97,9.28,4.37,-95.07,3400,0,64,-17.7415,2.68236,-215.17,1681.75,23500.4,2526.5,-397.782,-7.81553,0
17032,756.46,782.7,778.25,781.06,774.62,87.4,-923.83,591.8,-1.25,22.34,29.69,-60.76,3407,0,64,-18.4883,1.31057,-220.506,2714.83,24191.3,2209.98,-397.293,-12.3111,0
17066,749.91,784.58,781.63,784.18,775.08,70.8,-837.4,588.87,-24.5,19.94,38.86,-14.84,3414,0,64,-18.86,-0.364266,-226.277,3792.54,24952.5,2091.64,-396.726,-16.7596,0
17100,748.92,784.49,784.32,785.34,775.77,114.26,-891.11,646,-42,3.77,54.89,39.05,3421,0,64,-19.3696,-1.16544,-231.915,4786.4,25618.9,1973.17,-396.534,-20.6378,0
17134,748.52,781.86,785.99,784.1,775.12,20.02,-896.48,633.79,-59.82,50.27,71.01,121.42,3428,0,64,-20.0646,-1.93662,-242.564,6173.08,26861.9,1700.72,-396.258,-25.4481,0
17169,747.95,776.9,786.76,780.76,773.09,45.41,-994.63,644.53,-64.36,57.05,94.5,231.51,3435,0,64,-20.7487,-3.22373,-252.341,7689.66,27891.6,1602.29,-396.469,-30.4726,0
17205,747.06,770.34,787.23,775.46,770.02,-57.62,-1304.2,492.68,-25.91,61.4,127.8,376.9,3442,0,64,-22.3021,-4.60921,-260.036,9028.55,28518.6,1373.12,-397.328,-34.7197,0
17239,745.98,765.53,785.95,769.15,766.65,-99.61,-1413.57,365.72,19.89,50.47,177.4,480.1,3449,0,64,-23.4005,-5.505,-268.063,10224.5,29229.8,1107.82,-397.959,-38.1415,0
17273,745.07,761.66,779.28,762.51,762.13,-245.61,-1537.11,410.64,77.65,44.38,218.79,445.86,3456,0,64,-24.5822,-5.58627,-277.325,11300.9,30049.2,1077.74,-398.646,-40.7494,0
17307,744.74,759.65,768.25,757.15,757.45,-211.43,-1646.48,455.08,115.55,27.28,211.4,267.29,3462,0,64,-25.3312,-5.52815,-287.302,12337,31008.6,1150.93,-399.07,-42.9404,0
17341,744.8,758.34,755.13,754.23,753.12,35.64,-1172.36,239.26,200.34,5.95,195.57,-6.32,3469,0,64,-26.1151,-4.91201,-294.467,13039.8,31630.7,1069.75,-399.583,-44.2826,0
17376,744.86,757.78,754.2,753.1,752.49,154.3,-1060.06,217.77,32.94,-6.08,123.61,-8.69,3476,0,64,-26.5891,-3.85498,-294.029,13166.7,31402.1,1074.37,-400.201,-44.7801,0
17410,744.78,757.62,753.98,752.83,752.3,373.54,-922.36,20.02,21.85,-17.98,-47.11,-8.5,3483,0,64,-27.4211,-2.60077,-292.57,12841.6,30930.5,1121.95,-401.28,-43.8923,0
17444,744.78,757.38,753.8,752.67,752.16,338.38,-477.54,9.77,-29.27,-27.34,-138.79,-8.81,3490,0,64,-27.1496,-1.77189,-294.99,12440.4,31162.5,1240.93,-401.361,-42.1724,0
17478,744.71,757.3,753.67,752.52,752.05,276.37,-557.13,169.43,-94.73,-49.53,-184.56,-9.06,3497,0,64,-26.8779,-0.0577585,-297.99,11951.2,31513,1383.63,-401.248,-40.1063,0
17513,744.62,757.21,753.57,752.45,751.96,148.93,-704.59,327.64,-91.01,-65.2,-214.33,-9.24,3504,0,64,-26.2056,0.598632,-302.035,11520.3,31904,1595.67,-401.37,-38.1423,0
17547,744.56,757.18,753.53,752.43,751.92,-38.57,-821.78,467.29,-119.21,-92.89,-224.74,-9.56,3510,0,64,-26.3492,1.66217,-304.886,10858.1,32119.3,1633.02,-401.651,-35.6138,0
17581,744.42,757.11,753.46,752.33,751.83,-163.57,-1171.39,571.78,-132.75,-73.92,-221.52,-8.89,3517,0,64,-26.684,3.63187,-310.668,10118.1,32642.1,1943.25,-401.93,-32.5697,0
17615,744.4,757.14,753.45,752.33,751.83,-187.5,-1458.01,599.61,-111.53,0.57,-209.77,-9.37,3524,0,64,-28.497,8.06088,-322.524,9054.37,33816.6,2342.86,-402.15,-28.0741,0
17650,744.39,757.04,753.43,752.42,751.82,-535.64,-1501.95,660.16,-92.34,65.26,-195.44,-10.28,3531,0,64,-28.7279,9.92227,-326.725,8334.72,34224.2,2592.37,-402.251,-25.5099,0
17684,744.31,757.02,753.43,752.4,751.79,-904.79,-1357.91,712.89,-96.15,91.82,-176.93,-9.49,3538,0,64,-28.7738,10.7288,-323.188,7963.24,33841.8,2871.55,-402.288,-24.6398,0
17718,744.24,757.07,753.46,752.4,751.79,-1217.29,-791.5,885.74,-152.15,59.21,-127.47,-9.03,3545,0,64,-28.1516,8.07597,-322.543,8551.01,33753.9,2680.23,-402.351,-26.5108,0
17751,744.27,757.1,753.45,752.35,751.79,-1114.26,-1212.89,936.52,-132.24,16.14,-54.97,-8.72,3551,0,64,-27.9823,4.19659,-325.521,9695.51,34199.2,2263.86,-401.94,-29.7843,0
17785,744.28,757.01,753.41,752.27,751.74,-1327.64,-621.09,801.27,-32.01,-3.5,-2.73,-7.78,3558,0,64,-27.6683,1.20036,-324.92,10456.6,34202,2077.4,-401.737,-32.1823,0
17819,744.34,757.09,753.4,752.29,751.78,-1284.67,-509.28,696.78,-128.53,-84.08,27.95,-9.35,3565,0,64,-26.5886,-1.04823,-322.691,10742.5,33988.7,2005.82,-401.671,-33.2904,0
17852,747.06,757.14,753.35,752.29,752.46,1163.09,-1722.17,-2000,250.13,210.25,118.02,-20.15,3571,0,64,-27.5303,-5.04756,-325.435,11517.3,34347.8,1847.93,-401.456,-35.3905,0
17886,749.97,758.72,753.42,752.23,753.59,813.48,-2000,-0.49,129.93,-109.77,106.85,-40.25,3578,0,64,-29.8137,-8.46014,-332.182,12322.5,34938.3,1541.86,-401.822,-37.0956,0
17921,766.67,760,753.57,752.47,758.18,-25.88,34.18,789.06,154.39,-78.39,-8.17,-107.68,3585,0,64,-30.6322,-9.63326,-335.82,12591.8,35171.7,1211.33,-402.266,-37.4957,0
17955,778.1,761.91,754.71,753.63,762.09,-309.08,-111.82,1268.55,-4.78,-68.22,4.47,-150.84,3592,0,64,-27.6412,-8.19579,-335.08,12232.1,35382.7,1177.43,-401.405,-36.505,0
17988,780.28,763.23,755.15,754.31,763.24,-148.93,-642.09,625.98,-19.42,1.98,4.79,-168.18,3599,0,64,-24.6388,-6.4793,-331.441,12038.3,35407.7,1211.92,-400.17,-36.3211,0
18022,785.15,765.39,755.57,754.99,765.27,3.42,-720.21,584.47,23.34,24.27,5.2,-201.66,3605,0,64,-25.3204,-3.91639,-327.298,11619.4,34793.2,1342.69,-400.696,-35.5007,0
18056,798.95,768.08,756.5,756.35,769.97,28.81,-755.37,593.26,36.56,12.71,3.69,-267.31,3612,0,64,-25.8227,-1.54365,-320.913,11375.3,34072.3,1484.76,-400.827,-35.4466,0
18090,810.31,770.62,757.73,758.36,774.25,73.24,-839.36,585.94,31.31,4.22,4.24,-325.57,3619,0,64,-24.7441,-0.449026,-314.66,11765.7,33508.7,1584.09,-400.508,-37.3921,0
18124,812.36,772.49,758.68,760.11,775.91,75.68,-848.63,584.96,7.81,3.99,4.82,-349.72,3626,0,64,-22.2583,-1.10575,-308.79,12486,33199,1567.71,-399.487,-40.4354,0
18160,808.26,773.89,759.46,761.53,775.79,84.96,-837.89,589.36,4.92,1.88,-0.9,-348.57,3633,0,64,-21.9797,-1.18726,-304.391,12852.2,32808.1,1654.09,-399.217,-42.2229,0
18194,799.9,774.64,760.17,762.69,774.35,59.57,-829.1,573.73,7.53,5.86,1.34,-325.03,3640,0,64,-22.7277,-0.556439,-303.522,12967.8,32633,1753.44,-399.486,-42.7244,0
18229,791.64,774.99,760.98,763.71,772.83,77.64,-835.45,591.31,10.79,2.63,0.58,-294.41,3647,0,64,-22.4745,-1.83579,-302.55,12869.2,32488.7,1667.19,-399.617,-42.5358,0
18263,786.62,775.01,761.62,764.42,771.92,67.87,-817.38,595.21,10.05,3.2,-1.95,-271.82,3654,0,64,-22.5907,-1.65383,-299.545,12250.6,32085.8,1877.49,-399.885,-40.8974,0
18297,785.81,774.97,762.44,765.03,772.06,68.36,-823.73,579.1,6.87,0.56,-0.34,-257.15,3660,0,64,-23.7773,0.509027,-304.352,11767.1,32597.7,2199.13,-399.895,-38.6631,0
18331,787.41,774.99,763.23,765.63,772.82,85.94,-778.32,589.84,8.36,-3.27,-2.61,-252.12,3667,0,64,-22.5735,0.371541,-310.209,11387.4,33292,2124.09,-399.679,-36.7089,0
18366,788.82,775.33,764.09,766.59,773.71,64.45,-826.66,601.56,5.44,0.37,1.78,-252.39,3674,0,64,-21.2938,-1.02643,-308.846,10821.3,33215.3,1946.47,-399.454,-35.0378,0
18400,789.26,775.69,764.8,767.38,774.28,63.48,-823.73,606.45,2.9,1.11,-4.29,-250.81,3681,0,64,-21.9431,-0.753515,-306.301,10160.5,32856.8,1969.73,-399.73,-33.1715,0
18434,788.66,775.59,765.34,768,774.4,63.48,-827.15,589.84,3.18,-1.35,-1.46,-243.55,3688,0,64,-22.5677,-0.842218,-305.401,9604.67,32827.6,1952.32,-399.51,-31.4494,0
18468,788.08,775.16,766.03,768.36,774.41,61.52,-808.11,626.95,4.3,0.44,-0.51,-226.26,3695,0,64,-22.4765,-1.23747,-305.666,8846.94,32719.8,1913.84,-399.956,-28.9431,0
18503,787.74,774.56,766.39,768.44,774.28,82.52,-805.66,610.35,4.66,-2.37,-3.03,-212.44,3702,0,64,-23.0436,0.976733,-307.19,7552.88,32565.7,2250.65,-400.988,-24.587,0
18537,787.51,774.07,766.72,768.57,774.22,65.92,-820.31,612.79,3.22,-0.69,-4.95,-201.4,3708,0,64,-23.8186,3.00517,-309.99,6465.66,32729.1,2681.52,-401.419,-20.8578,0
18571,787.31,773.48,766.97,768.71,774.12,83.98,-806.64,609.86,1.98,-1.4,-2.36,-191.7,3715,0,64,-23.2809,4.25538,-308.351,5512.67,32454.8,2739.24,-401.747,-17.8776,0
18605,786.74,773.35,767.09,768.73,773.98,64.94,-800.78,592.77,-0.85,-2.31,-3.03,-186.07,3722,0,64,-22.4062,3.67591,-302.148,5316.46,31854.5,2538.46,-401.573,-17.5958,0
18640,784.9,773.49,767.24,769.28,773.73,85.45,-820.8,604.98,1.08,1.8,1.56,-185.22,3729,0,64,-20.5976,1.35798,-295.305,5916.05,31299.8,2314.83,-401.009,-20.0338,0
18674,782.79,773.72,767.43,769.92,773.46,77.15,-807.62,608.89,1.4,3.36,3.14,-184.45,3736,0,64,-19.5872,-1.94069,-295.749,6768.79,31410.9,2131.82,-400.792,-22.8865,0
18708,779.63,774.07,767.72,770.63,773.02,61.04,-796.39,592.29,-2.86,1.31,-0.09,-179.81,3743,0,64,-21.5504,-8.14751,-309.364,8292.04,32826.6,1812.58,-400.89,-26.803,0
18742,774.88,774.79,768.39,771.75,772.45,80.08,-800.78,610.84,0.95,2.73,1.85,-169.06,3749,0,64,-26.5969,-12.078,-338.361,9741.47,35727.4,1376.97,-401.41,-28.7903,0
18777,768.78,776.23,769.54,773.64,772.05,82.52,-797.85,607.91,-0.43,7.24,6.25,-158.71,3756,0,64,-27.6465,-10.2666,-342.752,9209.22,36015.7,1465.66,-401.922,-26.8682,0
18811,761.09,778.12,771.64,776.21,771.77,68.85,-835.45,626.46,-8.53,9.19,5.94,-133.04,3763,0,64,-25.9249,-4.31744,-336.837,7737.28,35333,2198.97,-402.104,-22.9703,0
18845,753.99,779.56,773.79,778.49,771.46,54.69,-831.05,584.96,-13.23,16.92,19.27,-100.22,3770,0,64,-25.1266,2.32389,-342.011,5462.25,35630.1,3326.19,-402.822,-15.9714,0
18879,749.39,780.03,775.75,780.14,771.33,85.45,-887.7,598.63,-19.37,28.44,36.07,-63.78,3777,0,64,-27.2464,5.37202,-349.101,3525.46,36174.6,3913.64,-403.378,-10.0994,0
18914,748.32,778.79,777.8,779.73,771.16,-6.84,-888.18,529.3,-18.69,42.96,50.94,6.9,3784,0,64,-28.7985,6.3081,-354.261,1986.24,36247.4,4185.82,-404.682,-5.60635,0
18948,747.66,776.38,779.91,776.41,770.09,19.04,-743.65,700.68,-46.95,53.74,73.32,129.98,3791,0,64,-27.1521,7.9041,-348.598,-259.813,35398,4653.93,-405.456,0.745449,0
18982,746.92,774.08,780.34,771.23,768.14,-34.18,-853.03,615.23,-65.27,66.12,86.97,237.84,3797,0,64,-26.5768,8.47011,-342.903,-1859.24,34544.8,4742.11,-406.258,5.42264,0
19016,746.24,771.38,778.92,766.24,765.7,-100.1,-1070.8,479,-60.98,59.85,105.59,300.02,3804,0,64,-27.1483,13.1938,-337.362,-4131.02,33602.9,5162.46,-407.395,12.2454,0
19051,745.51,767.82,775.37,761.53,762.56,-138.18,-1137.21,506.84,-67.73,48.76,129.33,311.95,3811,0,64,-26.3958,16.5374,-340.243,-5706.4,33927.6,5593.01,-407.284,16.7714,0
19085,744.89,763.72,768.54,757.61,758.69,-303.22,-1309.57,604.49,-82.89,29.66,141.52,234.57,3818,0,64,-25.9668,15.4921,-337.315,-6275.49,33443.4,5591.3,-407.854,18.6041,0
19121,744.78,760.83,757.19,755.02,754.45,-875.98,-1698.24,356.93,-85.44,6.15,114.92,13.45,3825,0,64,-22.9141,9.56718,-315.191,-4833.15,31234.9,4787.62,-407.903,15.3336,0
19155,744.81,759.43,754.6,753.33,753.04,593.75,-1290.53,195.31,76.18,-45.66,54.86,-15.19,3832,0,64,-22.8616,9.82668,-276.927,-3792.15,26957.4,4494.77,-409.655,13.6923,0
19189,744.89,758.71,754.21,753.04,752.71,354,-444.82,166.99,62.85,-43.01,-35.96,-15.22,3839,0,64,-23.6588,6.73487,-271.584,-2480.85,26321.2,4372.24,-410.083,9.13479,0
19223,744.84,758.28,753.89,752.69,752.43,329.1,-332.52,74.71,47.22,-54.56,-63.26,-14.28,3846,0,64,-22.9447,11.1426,-278.099,-1340.69,27395.2,4892.53,-408.492,4.82346,0
19258,744.82,758.02,753.76,752.54,752.28,399.9,-256.84,152.83,24.24,-61.96,-96.93,-13.01,3853,0,64,-22.7248,12.1287,-297.881,1607.94,30085.9,4977.12,-406.001,-5.39286,0
19291,744.73,757.93,753.72,752.39,752.19,355.47,-311.04,254.39,-0.24,-50.26,-127.28,-11.08,3859,0,64,-23.9786,12.7408,-322.989,5148.47,33649.7,4654.2,-402.819,-15.9371,0
19325,744.66,757.78,753.61,752.43,752.12,214.36,-435.06,350.59,5.34,-17.27,-126.51,-12.7,3866,0,64,-16.7334,5.63017,-310.526,8110.94,33381.2,3626.64,-399.5,-26.1242,0
19359,744.6,757.65,753.57,752.4,752.05,145.02,-907.71,530.27,-57.79,-9.46,-148.63,-12.03,3873,0,64,-16.8162,4.97399,-312.286,10110,34234,3243.7,-397.377,-32.3718,0
19392,744.46,757.62,753.57,752.3,751.99,-130.37,-1279.3,622.56,-47.08,17.05,-167.36,-10.04,3879,0,64,-15.0443,4.32825,-334.342,12667.4,37336.8,3237.53,-395.327,-37.8862,0
19426,744.4,757.53,753.53,752.39,751.96,-417.97,-1368.65,531.25,-27.53,51.51,-157.94,-11.43,3886,0,64,-13.9462,-2.9233,-325.039,14662.1,36708,2354.4,-394.065,-45.1102,0
19460,744.33,757.47,753.49,752.3,751.9,-491.21,-1351.07,451.17,-26.43,83.75,-132.32,-10.16,3893,0,64,-13.713,-4.10239,-314.776,14845.7,35792.5,2099.57,-393.292,-47.1628,0
19494,744.32,757.45,753.48,752.32,751.89,-562.99,-1259.77,425.78,-27.33,92.76,-95.85,-10.68,3900,0,64,-11.812,-4.73817,-311.36,15166.8,35674.1,1932,-392.425,-48.7117,0
19528,744.26,757.4,753.51,752.31,751.87,-606.93,-1070.31,358.89,-8.37,92.7,-48.03,-8.99,3907,0,64,-9.91718,-6.49478,-297.18,14792.8,34316.9,1567.08,-391.525,-49.7778,0
19562,744.34,757.21,753.47,752.39,751.85,-626.46,-833.01,479,-13.5,74.84,5.2,-10.04,3913,0,64,-8.38172,-7.4184,-295.045,15328.5,34225.3,1481.89,-391,-51.9529,0
19596,744.96,757.64,753.56,752.3,752.11,-850.1,-941.89,552.25,-66.27,41.32,69.64,-11.85,3920,0,64,-5.24606,-11.8614,-295.224,17572.8,34868.3,978.963,-388.892,-59.5233,0
19630,748.76,757.87,753.73,752.42,753.19,-604,-139.16,1211.43,-140.08,-60.4,-12.11,-24.35,3927,0,64,-3.95363,-13.9655,-299.319,19286.1,35643.8,876.295,-387.917,-64.4328,0
19664,755.1,759.25,754.38,752.68,755.36,-70.31,-395.51,475.59,34.02,-31.68,16.97,-44.91,3934,0,64,-4.12769,-13.1101,-315.77,20214.5,37689.1,1362.46,-387.644,-64.0175,0
19698,762.06,760.16,755.16,753.08,757.62,-4.39,-707.03,490.23,7.09,-5.91,1.08,-62.41,3941,0,64,-1.40717,-11.0468,-324.846,19910.1,38836.8,1946.57,-387.445,-61.2906,0
19732,767.16,760.89,755.73,753.34,759.28,39.55,-759.28,604,7.63,11.48,3.73,-75.53,3947,0,64,0.957049,-10.2739,-324.863,18478,38579.8,2371.77,-388.242,-56.8804,0
19767,774.28,761.73,755.98,753.47,761.36,80.08,-878.91,517.09,11.12,9.92,1.31,-102.42,3954,0,64,2.33735,-7.06111,-327.174,15741.9,38313.1,3310.41,-389.897,-48.1159,0
19801,788.83,762.92,756.53,753.86,765.53,76.66,-902.34,506.84,16.07,2.97,2.32,-153.89,3961,0,64,4.72944,-1.65254,-334.467,12992,38757.1,4553.63,-391.123,-38.8451,0
19835,807.54,764.23,757.62,754.41,770.95,74.71,-904.3,499.51,20.71,0.48,2.64,-209.56,3968,0,64,5.35992,0.716535,-344.513,10543.3,39694.7,5353.93,-391.78,-30.6047,0
19869,825.23,765.46,758.69,755.03,776.1,104,-873.54,533.69,21.05,0.74,-0.89,-262.63,3975,0,64,7.27694,5.37091,-347.365,7155.06,39549,6191.39,-393.146,-20.5984,0
19904,833.71,766.24,759.27,755.73,778.74,96.68,-848.14,527.34,7.27,1.69,-2.22,-293.76,3982,0,64,8.37003,7.39813,-354.369,3850.64,39946.7,6813.32,-394.274,-10.8664,0
19938,833.86,766.38,759.44,756.11,778.95,83.5,-872.56,539.06,3.8,3.41,-1.26,-296.78,3989,0,64,9.37961,7.77357,-364.573,771.416,40654.4,7325.09,-395.488,-2.11716,0
19972,831.12,766.42,759.52,756.33,778.35,78.12,-859.37,547.36,3.15,3.02,0.69,-288.74,3995,0,64,10.223,12.7615,-369.49,-2528.3,40714.2,7849.86,-396.81,6.84171,0
20006,827.34,766.6,759.56,756.38,777.47,82.52,-866.7,540.53,4.24,1.63,-1.32,-277.03,4002,0,64,11.1671,13.4748,-374.785,-5732.38,40863.3,7575.05,-397.969,15.2947,0
20041,824.61,766.95,760.11,756.8,777.12,52.25,-843.75,510.25,5.26,4.47,2.8,-262.99,4009,0,64,12.5626,12.8507,-381.502,-8366.75,41158.8,7416.56,-399.114,21.9312,0
20076,823.77,767.43,760.98,757.46,777.41,83.01,-834.47,551.27,8.21,1.53,2.31,-252.09,4016,0,64,9.58752,16.6516,-378.998,-11407.3,40033.6,7634.69,-401.37,30.0989,0
20111,823.51,767.73,761.65,757.93,777.71,44.43,-852.54,565.92,3.5,-0.93,-1.79,-243.9,4023,0,64,10.9122,15.1835,-380.385,-12335.2,39998,7525.4,-401.849,32.4281,0
20145,820.12,767.77,761.77,758.01,776.92,84.96,-854,553.22,-0.88,2.21,1.74,-230.69,4030,0,64,11.2113,11.9721,-377.779,-12306,39656.8,7211.01,-402.026,32.5747,0
20179,814.3,767.61,761.72,757.95,775.4,83.01,-867.19,548.83,-0.79,2.37,1.76,-209.72,4037,0,64,11.1928,7.41388,-369.701,-11444.3,38845.5,6695.4,-401.927,30.9555,0
20213,808.09,767.43,761.52,757.78,773.7,83.01,-849.61,556.64,-3.92,1.27,1.32,-189.48,4044,0,64,12.5265,5.38248,-359.245,-10837.6,37864.4,6377.45,-401.6,30.1678,0
20248,803.46,767.38,761.27,757.8,772.48,92.77,-852.05,536.13,-5.98,3.15,-0.37,-179.72,4051,0,64,13.5597,5.61037,-353.254,-10273.2,37487.1,6245.02,-400.881,29.0817,0
20282,800.87,767.32,760.92,757.85,771.74,77.15,-855.47,538.09,-1.59,3.2,2.58,-179.69,4057,0,64,15.8727,5.46017,-351.172,-9200.81,37743.7,6247.23,-399.52,26.2001,0
20316,799.01,767.27,760.55,757.89,771.18,80.57,-847.17,547.85,-0.82,1.69,4.21,-182.89,4064,0,64,17.0474,6.08586,-346.266,-8257.19,37560.8,6249.75,-398.526,23.847,0
20350,797.03,767.24,760.31,757.9,770.62,70.31,-863.77,550.29,0.31,3.24,0.53,-182.04,4071,0,64,18.5193,4.55857,-350.781,-7501.01,38145.6,6050.71,-398.255,21.3836,0
20385,793.05,767.15,760.26,757.83,769.58,79.59,-855.96,544.43,0.26,4.67,0.26,-167.77,4078,0,64,19.1866,5.71483,-345.016,-6908.19,37587.1,6057.83,-398.057,20.0228,0
20419,788,767.05,760.12,757.73,768.23,49.32,-857.91,552.25,1.95,1.6,0.59,-151.66,4085,0,64,20.7897,4.67025,-352.895,-5493.77,38638.2,5963.34,-397.511,15.5682,0
20453,783.08,766.93,759.97,757.67,766.91,62.01,-859.86,563.96,-4.05,3.36,2.45,-136.63,4092,0,64,20.157,3.33805,-361.54,-4854,39677,5519.37,-397.256,13.4259,0
20487,779.45,766.83,759.71,757.46,765.86,67.38,-865.23,536.13,0.49,0.88,1.08,-126.72,4098,0,64,19.986,5.00446,-363.274,-4656.49,39797.1,5502.9,-397.449,12.8184,0
20522,777.05,766.61,759.64,757.27,765.14,60.55,-848.63,554.69,-1.89,1.43,0.66,-115.77,4105,0,64,18.6965,4.6219,-363.699,-3405.8,40017.7,5266.69,-396.97,9.36435,0
20556,775.96,766.28,759.7,757.08,764.76,72.75,-872.07,529.79,1.35,-0.8,1.6,-105.19,4112,0,64,17.6928,3.42787,-359.363,-2860,39647.5,4723.19,-396.673,7.95877,0
20590,776.2,765.86,759.86,756.8,764.68,67.87,-858.4,548.83,5.61,-2.98,-1.65,-94.36,4119,0,64,16.4114,2.24597,-342.992,-1823.68,37902.7,4397.92,-396.494,5.31575,0
20624,776.97,765.63,760.27,756.67,764.89,78.12,-859.86,542.97,3.38,-3.33,0.57,-83.03,4126,0,64,14.4842,-0.886771,-333.084,-228.87,36949.7,3961.55,-396.068,0.686055,0
20659,777.59,765.63,760.53,756.61,765.09,63.96,-852.05,553.22,1.5,0.29,1.3,-77.8,4133,0,64,11.0391,-3.49288,-326.549,220.917,36167.8,3657.46,-396.243,-0.675815,0
20693,778.3,765.67,760.62,756.6,765.3,65.43,-851.56,546.87,2.7,2.37,1.97,-78.38,4140,0,64,8.64218,-1.76121,-313.272,-40.8751,34427,3998.41,-397.105,0.130307,0
20727,779.19,765.61,760.72,756.54,765.51,67.38,-846.19,543.46,0.28,0.93,1.63,-77.28,4146,0,64,5.02089,-3.5807,-310.924,151.838,33991,3804.46,-397.677,-0.488332,0
20761,779.98,765.63,760.7,756.44,765.69,75.68,-855.47,537.11,-0.67,0.18,0.81,-79.52,4153,0,64,1.6245,-1.79149,-311.908,73.6641,33877.4,4122.77,-398.387,-0.236172,0
20796,780.28,765.47,760.66,756.37,765.7,74.71,-857.42,559.08,-0.41,-1.86,-1.53,-78.98,4160,0,64,-2.14796,-1.99413,-314.612,1107.03,34104.4,3995.13,-398.598,-3.51866,0
20830,780.26,765.49,760.73,756.3,765.7,72.27,-851.07,548.34,1.13,-1.87,-0.92,-76.43,4167,0,64,-5.34139,-4.48868,-313.438,2353.63,33874.1,3511.79,-398.927,-7.5094,0
20864,780.19,765.44,760.75,756.25,765.66,64.45,-863.77,539.55,2.98,-0.29,-0.85,-74.44,4174,0,64,-8.45256,-5.194,-313.875,3613.53,33984.3,3548.43,-398.727,-11.5127,0
20898,780.19,765.43,760.74,756.18,765.63,72.27,-850.1,559.08,-3.04,0.73,0.2,-73.72,4181,0,64,-12.1297,-6.53946,-309.943,4480.38,33560.6,3473.1,-398.72,-14.4555,0
20932,780.16,765.49,760.7,756.27,765.66,69.82,-852.54,544.92,1.38,0.7,-1.4,-76.22,4187,0,64,-15.7111,-6.34226,-304.796,4835.99,32892,3481.41,-399.085,-15.8664,0
20965,780.24,765.54,760.78,756.24,765.7,80.57,-850.1,541.5,2.34,3.84,2.51,-74.55,4194,0,64,-19.3378,-6.07841,-296.94,4917.18,31834.5,3420.52,-399.792,-16.5597,0
20999,780.14,765.65,760.86,756.4,765.77,67.38,-860.84,541.02,2.04,-0.46,1.47,-75.45,4201,0,64,-21.5602,-5.62845,-275.589,4394.68,29245.1,2964.08,-400.883,-15.9444,0
21034,779.83,765.66,760.97,756.52,765.74,75.68,-856.93,546.39,2.16,2.4,0.75,-73.64,4208,0,64,-22.1372,-6.76517,-249.203,3460.63,25942.8,2416.34,-402.898,-13.8845,0
21068,779.72,765.88,761.13,756.72,765.86,77.64,-843.75,552.73,2.41,2.48,-3.11,-73.66,4215,0,64,-22.8598,-7.9401,-230.295,2541.41,23463.6,1924.09,-405.115,-11.0351,0
21102,779.65,766.23,761.33,756.91,766.03,62.99,-859.86,555.18,0.96,3.69,1.49,-74.21,4221,0,64,-24.328,-10.4713,-226.596,2674.15,22708.1,1544.64,-406.786,-11.8012,0
21136,779.48,766.42,761.57,757.22,766.17,64.94,-857.42,557.13,0.76,3.3,0.61,-73.7,4228,0,64,-28.5551,-13.3252,-240.971,3123.01,23807.3,1275.77,-408.201,-12.9587,0
21170,778.8,766.71,761.74,757.49,766.19,79.59,-863.77,564.94,4.17,2.63,0.56,-73.4,4235,0,64,-32.1045,-13.026,-269.359,3809.67,26549.6,1272.83,-408.434,-14.1416,0
21204,777.69,766.97,762.06,757.69,766.1,68.36,-854,551.27,1.38,1.01,1.19,-66.82,4242,0,64,-31.6362,-9.58455,-306.738,4228.28,30994.2,1649.92,-405.957,-13.787,0
21238,776.4,767.2,762.28,757.88,765.94,65.92,-845.21,549.32,1.68,0.24,2.25,-61.47,4249,0,64,-29.4982,-1.31491,-338.09,3304.09,34879.2,2506.17,-403.834,-9.77418,0
21272,775.4,767.48,762.57,758.16,765.9,63.48,-846.68,556.64,1.29,0.34,0.16,-57.21,4255,0,64,-30.6313,5.90627,-348.737,1564.48,35789,3337.97,-404.375,-4.48625,0
21306,774.38,767.76,762.9,758.5,765.89,88.38,-837.89,531.25,2.56,0.71,1.37,-52.63,4262,0,64,-28.4767,9.01968,-339.7,949.888,34887.6,3973.09,-404.299,-2.79658,0
21340,773.42,767.95,763.15,758.77,765.82,59.08,-836.43,570.31,2.35,2.04,-0.47,-48.87,4269,0,64,-24.3256,2.02099,-341.646,2624.11,35454.8,3489.34,-403.224,-7.67971,0
21374,772.15,768.11,763.38,759.02,765.66,51.27,-849.12,556.15,2.81,3.15,0.82,-43.64,4276,0,64,-28.9432,-16.6834,-365.03,5031.21,37590.9,1240.47,-404.02,-13.7822,0
21409,770.83,768.34,763.57,759.22,765.49,56.64,-836.91,561.04,4.71,1.37,0.65,-39.03,4283,0,64,-33.5548,-14.2028,-387.563,3920.28,39801.1,1213.41,-404.304,-10.1159,0
21443,769.79,768.51,763.78,759.43,765.38,55.66,-846.68,550.78,1.53,3.69,0.43,-34.73,4290,0,64,-28.8969,4.61151,-378.102,-502.434,38814.5,4009.73,-404.344,1.33195,0
21477,769.1,768.67,763.96,759.59,765.33,58.59,-833.98,562.01,1.99,4.42,0.08,-31.62,4296,0,64,-26.8669,10.2696,-355.303,-2600.48,36300.3,4930.85,-404.833,7.32046,0
21511,769,768.85,764.13,759.72,765.42,53.22,-844.24,561.52,1.43,5.63,-0.37,-30.23,4303,0,64,-27.802,12.0273,-344.638,-3644.04,34922.6,5178.26,-405.669,10.5735,0
21546,769.43,768.93,764.17,759.88,765.6,57.13,-839.84,568.36,1.02,2.11,-0.47,-33.71,4310,0,64,-28.697,9.0063,-351.52,-3076.74,35662.7,4989.53,-405.547,8.75327,0
21580,770.09,768.97,764.11,759.81,765.75,54.2,-833.5,566.89,-0.57,0.69,1.22,-36.77,4317,0,64,-27.9893,2.80121,-357.633,-1545.53,36501,4260.6,-404.937,4.32187,0
21614,770.46,768.95,764.09,759.79,765.82,54.2,-856.45,561.52,-2.19,1.68,-0.64,-38.11,4324,0,64,-28.739,-2.22139,-356.322,-504.974,36374.9,3598.28,-404.916,1.41714,0
21649,770.67,768.91,764.04,759.64,765.82,65.43,-842.29,543.46,0.18,2.04,3.27,-37.61,4331,0,64,-28.565,-0.863104,-350.864,-921.228,35645.7,3797.25,-405.406,2.6257,0
21683,770.98,768.97,764.05,759.59,765.9,64.94,-844.24,559.08,-1.2,1.86,0.5,-38.07,4338,0,64,-28.0992,1.56518,-345.65,-1683.52,34928.9,4308.13,-405.947,4.87073,0
21717,771.93,768.96,764.02,759.48,766.1,48.34,-831.05,558.11,-1.27,2.19,-1.79,-40.39,4344,0,64,-27.6917,2.56135,-343.99,-1782.39,34744.8,4558.51,-405.995,5.18155,0
21751,772.85,768.93,763.98,759.44,766.3,68.36,-844.73,557.62,-3.01,-0.71,-0.92,-43.65,4351,0,64,-27.8571,2.38285,-345.38,-1438.65,35008.5,4574.95,-405.638,4.16542,0
21786,773.23,768.87,763.93,759.41,766.36,65.43,-851.56,552.25,-0.35,2.02,-0.53,-45.35,4358,0,64,-27.9662,0.48987,-345.667,-938.816,35153,4157.65,-405.304,2.71595,0
21820,773.07,768.77,763.9,759.12,766.21,69.34,-848.63,558.11,0.01,-0.21,-1.47,-40.48,4365,0,64,-27.1728,-1.75622,-342.063,-332.256,34894.6,3873.28,-404.988,0.971261,0
21854,772.85,768.69,763.8,759.05,766.1,59.08,-843.75,559.08,-0.27,0.25,-0.31,-40.73,4372,0,64,-26.6197,-1.48012,-341.015,-169.945,34794.2,3790.38,-404.969,0.498369,0
21889,773.4,768.61,763.65,758.8,766.11,57.13,-849.61,554.2,-1.33,1.73,0.29,-42.05,4379,0,64,-27.5037,-0.0112656,-340.906,-274.992,34778.2,4123.71,-404.983,0.806666,0
21923,774.05,768.45,763.6,758.65,766.19,76.66,-844.24,556.15,0.63,1.02,0.5,-41.73,4386,0,64,-27.7838,0.49626,-339.569,-239.73,34647.3,4164.65,-404.967,0.705866,0
21957,774.7,768.29,763.54,758.49,766.25,71.78,-842.29,558.11,0.34,-0.26,1.91,-42.02,4392,0,64,-27.6075,0.392296,-336.006,-125.946,34277.4,4238.12,-404.986,0.374833,0
21993,774.92,768.2,763.53,758.38,766.26,70.31,-845.7,548.34,1.94,-1.25,0.53,-40.55,4400,0,64,-27.2595,-0.897906,-336.41,494.293,34334.6,3908.74,-404.938,-1.46928,0
22027,774.67,767.93,763.49,758.35,766.11,68.36,-842.29,557.62,1.41,0.85,0.11,-38.24,4406,0,64,-27.556,-1.46513,-339.061,1082.23,34776.6,3684.14,-404.433,-3.19179,0
22061,774.46,767.71,763.52,758.25,765.99,61.04,-838.38,563.96,2.29,1.79,-0.32,-33.44,4413,0,64,-27.7074,-0.867635,-339.99,1224.25,34777.7,3705.54,-404.71,-3.60084,0
22096,774.56,767.53,763.46,758.19,765.93,49.32,-834.96,557.13,0.59,0.48,-0.1,-32.92,4420,0,64,-28.2739,-0.0779753,-337.914,1067.23,34506.1,3559.11,-404.885,-3.15829,0
22130,774.82,767.25,763.39,758.06,765.88,64.94,-839.84,560.55,0.34,0.41,-1.21,-31.44,4427,0,64,-27.7937,0.180917,-333.414,993.184,34008.7,3626.67,-404.999,-2.97876,0
22164,774.97,767.17,763.34,758.02,765.87,66.89,-857.42,557.13,0.99,-0.8,0.14,-31.98,4434,0,64,-27.6343,0.0662964,-332.172,1070.82,33921.3,3454.74,-404.88,-3.22372,0
22199,775,767.02,763.3,758,765.83,79.59,-849.12,555.18,-0.3,-0.05,1.04,-31.5,4441,0,64,-27.8084,-0.375698,-334.204,1115.05,34109.7,3358.6,-404.938,-3.33649,0
22233,775.04,766.91,763.3,757.88,765.78,57.62,-841.8,552.25,0.39,-0.33,-0.73,-29.05,4448,0,64,-27.9893,-0.188412,-334.434,912.104,34049,3324.63,-405.189,-2.72732,0
22267,775.25,766.79,763.34,757.86,765.81,66.89,-844.73,564.45,1.79,0.69,0.14,-27.55,4454,0,64,-28.184,-0.700096,-333.044,720.323,33871.4,3182.83,-405.298,-2.16285,0
22301,775.47,766.67,763.29,757.9,765.83,62.01,-841.31,561.52,-2.48,3.53,0.48,-29.26,4461,0,64,-27.5414,-0.509569,-329.397,304.616,33360.8,3098.56,-405.722,-0.924273,0
22336,775.64,766.64,763.26,757.88,765.86,63.96,-835.94,558.11,-3.36,3.21,-0.66,-29.9,4468,0,64,-26.7572,-0.0493215,-319.167,-433.958,32188.9,2946.09,-406.147,1.3601,0
22370,775.69,766.54,763.26,757.9,765.85,65.43,-857.91,547.85,-1.09,2.27,-3.83,-29.58,4475,0,64,-26.5005,0.844363,-313.715,-1047.37,31557.9,3152.3,-406.406,3.33868,0
22404,775.54,766.27,763.36,757.77,765.74,67.38,-851.07,540.53,-2.89,0.86,-1.95,-22.46,4482,0,64,-27.1028,1.90675,-315.286,-1377.56,31742.4,3117.4,-406.322,4.36929,0
22438,775.04,766.03,763.48,757.67,765.56,70.8,-843.75,551.76,-1.26,0.19,-1.82,-14.38,4489,0,64,-27.0161,2.67679,-326.146,-1159.35,32992,3314.91,-405.843,3.55472,0
22473,774.44,765.65,763.7,757.66,765.36,82.03,-848.63,556.64,1.05,-2.98,0.08,-3.71,4496,0,64,-26.6596,2.32208,-323.029,-1183.29,32714.8,3200.18,-405.725,3.66314,0
22506,773.87,765.4,763.94,757.63,765.21,83.98,-834.47,553.71,-2.15,-1.75,-0.92,6.75,4502,0,64,-26.405,1.91061,-321.043,-976.772,32566.1,3089.78,-405.561,3.04249,0
22540,773.2,765.14,764.17,757.56,765.02,86.91,-851.07,555.66,-0.14,-0.08,-1.84,17.76,4509,0,64,-26.1172,0.74223,-317.418,-729.373,32310.1,2980.52,-405.21,2.29775,0
22574,772.61,764.91,764.32,757.57,764.85,84.47,-839.36,558.11,-1.62,1.08,-1.24,25.4,4516,0,64,-25.9661,-0.580168,-313.586,-392.887,31881.8,2930.66,-405.331,1.2528,0
22608,771.9,764.77,764.45,757.53,764.66,77.64,-850.1,548.83,0.77,0.38,-1.03,32.73,4523,0,64,-25.8114,-1.55208,-313.664,-98.9222,31974.4,2816.31,-405.062,0.315508,0
22641,771.23,764.67,764.6,757.47,764.49,85.45,-856.45,548.83,-0.32,0.81,-0.23,40.39,4529,0,64,-25.6295,-1.96097,-315.079,92.0255,32095,2831.95,-405.137,-0.292082,0
22675,770.83,764.56,764.76,757.56,764.43,89.36,-845.21,561.52,2.28,-1.47,0.93,45.29,4536,0,64,-25.9052,-1.69618,-317.621,239.599,32406.8,2919.91,-404.97,-0.754303,0
22709,771.03,764.47,764.95,757.49,764.49,84.47,-835.94,560.06,1.14,2.53,-0.27,51.03,4543,0,64,-25.879,-1.74141,-321.624,469.327,32901.4,2954.37,-404.703,-1.45915,0
22743,771.71,764.62,765.03,757.63,764.75,77.64,-848.63,557.62,1.27,0.43,1.66,47.58,4550,0,64,-26.3958,-1.85482,-325.385,637.985,33348.9,2953.5,-404.509,-1.96061,0
22777,773.09,764.75,765.14,757.65,765.16,79.59,-843.26,574.71,2.35,2.64,0.31,44.05,4556,0,64,-26.6836,-1.49321,-328.83,802.495,33764,2921.99,-404.321,-2.44047,0
22811,774.7,764.88,765.2,757.76,765.64,72.27,-851.56,557.62,2.08,2.1,3.2,37.59,4563,0,64,-26.915,-1.28178,-326.962,688.262,33556.6,2999.25,-404.369,-2.10504,0
22845,776.59,765.13,765.3,757.83,766.21,85.94,-841.8,567.87,2.71,4.63,0.36,30.47,4570,0,64,-26.4879,-0.882942,-320.427,479.161,32762.2,3088.45,-404.754,-1.49535,0
22879,778.71,765.22,765.25,757.94,766.78,78.12,-846.68,559.08,-0.03,4.11,0.79,19.66,4577,0,64,-26.112,-1.04881,-314.939,326.87,32131.1,3108.2,-404.977,-1.03789,0
22913,781.87,765.36,765.21,757.86,767.57,72.75,-839.84,558.11,1.62,3.64,0.64,7.74,4584,0,64,-26.2506,-1.42744,-313.169,421.312,31888.1,2963.02,-405.176,-1.34532,0
22949,787.04,765.58,765.19,757.89,768.92,79.1,-845.21,563.48,2.77,2.27,0.68,-12.46,4591,0,64,-26.2494,-1.63593,-314.724,443.798,32076.8,2987.03,-405.08,-1.41012,0
22983,794.68,765.94,765.12,757.91,770.91,86.43,-839.36,562.5,2.73,1.53,1.41,-43.86,4598,0,64,-26.3645,-1.43504,-316.612,426.334,32261.4,3113.46,-405.104,-1.34652,0
23018,802.06,766.12,765.19,757.98,772.84,87.4,-850.59,574.22,1.24,2.18,1.27,-69.85,4605,0,64,-26.6059,-1.10687,-319.381,398.072,32535.2,3101.77,-405.13,-1.2464,0
23052,807.28,766.28,764.87,757.87,774.07,92.77,-838.87,565.92,-0.11,2.24,0.75,-95.44,4611,0,64,-26.7538,-0.317021,-321.386,318.343,32721.7,3181.48,-405.186,-0.990542,0
23086,811.15,766.27,764.63,757.71,774.94,83.98,-858.4,572.27,0.99,1.61,0,-112.17,4618,0,64,-26.9724,-0.231672,-321.531,357.395,32767.2,3130.28,-405.09,-1.11154,0
23121,813.68,766.04,764.32,757.5,775.39,78.12,-857.91,562.5,-0.13,0.09,-0.62,-123.6,4625,0,64,-26.7181,-0.0911789,-320.282,459.667,32669.4,2965.77,-404.998,-1.43516,0
23155,815.08,765.69,763.96,757.25,775.5,76.17,-848.63,560.06,-2.45,4.24,-0.66,-130.88,4632,0,64,-26.2661,-0.267172,-318.259,461.417,32509.2,2998.48,-404.853,-1.44983,0
23189,816,765.48,763.51,756.93,775.48,71.78,-838.38,568.85,-5.26,0.69,0.03,-138.97,4639,0,64,-26.3678,-0.518933,-317.536,663.997,32425.5,2939.41,-404.884,-2.09109,0
23223,816.6,765.18,763.13,756.57,775.37,67.38,-855.47,553.71,-0.05,-0.37,-0.02,-142.56,4646,0,64,-26.7931,-0.341342,-318.188,881.72,32572.9,2922.06,-404.63,-2.77105,0
23258,816.93,765.1,762.86,756.42,775.33,78.61,-848.63,559.57,-0.85,0.57,1.51,-147.65,4653,0,64,-26.5498,-0.136374,-318.339,991.074,32589.4,2868.49,-404.627,-3.11327,0
23292,816.41,765.04,762.8,756.36,775.16,82.52,-858.4,554.2,-0.6,0.92,1.46,-146.06,4659,0,64,-26.5445,-0.728435,-318.116,1153.96,32655.8,2818.81,-404.346,-3.6275,0
23326,814.84,765.05,762.71,756.23,774.71,90.82,-831.54,563.48,0.26,1.17,0.49,-141.14,4666,0,64,-26.18,-1.01255,-318.161,1282.37,32605.5,2726.29,-404.519,-4.03057,0
23360,812.96,764.93,762.58,756.22,774.17,79.59,-845.7,562.01,1.2,0.05,-0.98,-136.95,4673,0,64,-26.7594,-1.05782,-319.383,1481.93,32777.2,2743.43,-404.374,-4.63996,0
23395,810.38,764.85,762.42,756.12,773.44,90.33,-849.61,559.57,-2.85,2.66,-0.14,-129.75,4680,0,64,-26.5843,-0.799601,-320.672,1563.45,32933.1,2700.94,-404.3,-4.87554,0
23429,807.77,764.85,762.34,756.14,772.78,73.73,-849.61,546.87,-0.13,0.69,-1.26,-123.01,4687,0,64,-26.7894,-0.851699,-320.119,1674.95,32916,2693.75,-404.176,-5.23226,0
23463,805.26,764.75,762.28,756.08,772.09,81.05,-851.56,555.18,-2.16,0.87,-0.39,-114.22,4694,0,64,-26.7057,-0.835112,-320.185,1662.8,32839.9,2746.25,-404.435,-5.19326,0
23498,802.09,764.62,762.08,755.97,771.19,75.2,-871.58,556.15,-7.11,2.56,0.08,-105.71,4701,0,64,-26.7703,-0.583835,-320.301,1595.92,32770.8,2771.88,-404.687,-4.98256,0
23532,797.92,764.49,761.77,755.86,770.01,80.57,-863.28,541.5,-2.78,3.24,2.75,-96.43,4707,0,64,-26.8983,-0.925523,-320.754,1662.63,32770.9,2799.21,-404.832,-5.1835,0
23566,792.69,764.23,761.25,755.75,768.48,83.98,-863.28,546.39,-3.39,1.31,1.07,-87.97,4714,0,64,-27.1814,-0.956709,-323.146,1764.66,32963.9,2757.46,-404.991,-5.46089,0
23600,787.33,763.85,760.45,755.55,766.79,85.94,-849.61,547.36,-4.39,2.23,0.87,-83.26,4721,0,64,-27.6246,-0.715102,-323.111,1731.15,32930.1,2995.22,-405.084,-5.35775,0
23635,782.97,763.5,759.89,755.26,765.41,81.54,-871.09,539.06,-3.53,3.77,0.87,-75.36,4728,0,64,-27.5304,-0.198514,-321.438,1672.06,32683.2,3142.87,-405.322,-5.20182,0
23669,779.46,763.27,759.56,754.99,764.32,81.05,-861.33,534.18,-1.83,1.01,1.85,-65.61,4735,0,64,-28.0745,-0.0783562,-324.945,1867.33,32931.2,2986.38,-405.656,-5.74651,0
23703,776.47,763.08,759.49,754.79,763.46,99.61,-854.98,529.3,-2.27,0.5,0.14,-52.86,4742,0,64,-28.3761,-0.0914916,-332.345,2152.77,33694.3,3169.41,-405.617,-6.47745,0
23737,774.12,762.91,759.47,754.77,762.82,85.94,-858.4,534.67,0.93,-2.01,0.08,-43.6,4748,0,64,-28.6917,0.334155,-337.15,2333.1,34295.9,3181.8,-405.277,-6.92005,0
23772,772.37,762.91,759.46,754.57,762.33,75.2,-859.37,532.71,-1.29,-0.76,3.05,-34.71,4755,0,64,-28.7564,0.224071,-335.813,2494.88,34176,3166.96,-405.229,-7.42939,0
23806,770.98,762.76,759.49,754.5,761.93,80.08,-858.89,539.55,-0.37,0.47,-0.28,-26.98,4762,0,64,-29.0778,0.262646,-330.776,2720.77,33659,2986.52,-405.242,-8.22557,0
23840,769.9,762.69,759.56,754.45,761.65,93.26,-858.89,523.93,0.89,1.47,2.58,-20.35,4769,0,64,-28.3752,-0.172799,-323.822,2858.48,32918.2,2847.79,-405.345,-8.82736,0
23875,769.54,762.68,759.54,754.38,761.54,81.05,-848.63,531.74,1.44,1.6,-0.6,-18.27,4776,0,64,-27.8229,-0.292833,-319.898,3130.12,32643.9,2659,-404.955,-9.78472,0
23910,769.46,762.78,759.53,754.36,761.53,62.5,-869.14,537.6,3.11,1.44,2.29,-18.78,4783,0,64,-27.8344,-0.276203,-323.126,3601.25,33147.2,2461.88,-404.417,-11.1449,0
23945,769.54,762.85,759.63,754.46,761.62,70.8,-858.89,536.13,-2,0.25,-0.93,-18.84,4790,0,64,-27.731,0.110212,-323.316,3876.37,33121.1,2411.86,-404.558,-11.9895,0
23979,769.81,762.86,759.62,754.51,761.7,70.31,-860.35,549.32,0.44,2.24,0.47,-20.79,4797,0,64,-28.0342,0.245315,-315.782,3670.62,32201.8,2415.2,-405.026,-11.6239,0
24013,770.24,763.01,759.63,754.48,761.84,77.64,-858.4,543.95,0.84,1.92,2.01,-22.7,4804,0,64,-28.1996,0.148829,-314.139,3679.86,32057.7,2377.99,-404.951,-11.7141,0
24048,770.55,763.05,759.7,754.58,761.97,71.29,-872.56,544.43,-1.57,4.19,-0.23,-23.84,4811,0,64,-28.3539,-0.361833,-313.712,3687.85,32008.7,2385.15,-404.968,-11.7555,0
24082,770.69,763.14,759.65,754.6,762.02,75.2,-869.14,540.53,0.27,0.65,3,-26.44,4817,0,64,-28.5674,-0.332937,-314.823,3587.73,32109.2,2459.45,-405.009,-11.3957,0
24116,771.29,763.08,759.61,754.5,762.12,80.57,-874.51,536.13,-0.84,0.02,2.01,-27.73,4824,0,64,-27.6239,0.840657,-308.943,2526.05,31351.1,2622.8,-405.522,-8.17584,0
24150,772.08,762.99,759.56,754.37,762.25,68.36,-870.61,529.79,-1.3,-1.08,-2.16,-29.06,4831,0,64,-25.7793,1.38851,-300.978,1383.11,30512.2,2812.33,-405.623,-4.59462,0
24184,773.11,762.97,759.5,754.23,762.45,69.82,-857.42,529.79,-6.45,1.92,1.06,-31.87,4838,0,64,-23.84,2.35084,-281.503,-529.319,28100.5,3086.36,-407.178,1.88218,0
24217,774.31,762.84,759.22,754.25,762.66,78.12,-867.19,541.02,-3.6,0.8,-0.49,-42.03,4844,0,64,-23.124,5.77158,-260.443,-2262.41,25568.2,3390.1,-408.829,8.68913,0
24251,775.56,762.85,759.01,754.04,762.87,73.73,-868.16,522.46,-4.79,-1.54,2.26,-48.67,4851,0,64,-20.9771,4.07639,-241.588,-2354.87,23520.8,3107.9,-409.641,9.74688,0
24285,777.34,762.74,758.86,753.92,763.22,73.24,-878.91,529.3,-1.93,0.53,-0.94,-55.73,4858,0,64,-19.6363,1.05234,-235.614,-929.673,23056.4,2720.56,-409.143,3.94599,0
24318,779.31,762.7,758.53,753.69,763.56,84.96,-868.65,520.02,-4.47,1.95,1.18,-67.2,4865,0,64,-19.9923,-2.08388,-237.808,124.897,23398,2237.95,-408.609,-0.52568,0
24353,781.13,762.61,758.06,753.47,763.82,57.62,-857.42,536.62,-9.06,1.5,-0.52,-81.28,4872,0,64,-19.4056,-2.4839,-226.828,1206.51,22501.1,2084.97,-407.801,-5.31947,0
24387,782.84,762.47,757.49,753.18,764,67.87,-875.98,519.53,-12.09,2.49,-0.93,-95.68,4878,0,64,-20.1265,-1.93351,-222.518,1571.9,21967.8,2169.26,-408.276,-7.06416,0
24421,784.42,762.48,757.04,753.06,764.25,73.24,-884.28,494.63,-14.32,0.67,1.61,-110.7,4885,0,64,-21.0876,0.205365,-238.947,2670.04,23881.7,2362.07,-407.054,-11.1749,0
24455,786.23,762.4,756.76,752.93,764.58,96.19,-867.68,516.11,-13.4,1.02,1.93,-121.5,4892,0,64,-24.8864,6.79269,-276.412,3831.78,27940.6,3274.22,-405.919,-13.8556,0
24489,787.5,762.31,756.53,752.84,764.8,78.61,-907.71,486.82,-15.94,0.43,1.78,-129.36,4899,0,64,-24.6227,2.01517,-308.486,6482.17,32015.2,2628.91,-403.219,-21.0128,0
24522,787.88,762.32,756.34,752.8,764.83,74.71,-899.41,479.98,-14.76,0.85,1.63,-134.89,4905,0,64,-23.4814,4.15516,-311.706,6733.47,32679.3,3002.69,-402.16,-21.6016,0
24556,787.76,762.27,756.21,752.67,764.73,91.8,-901.37,467.29,-8.21,-0.34,1.87,-135.43,4912,0,64,-21.1265,2.49878,-317.258,8538.3,33933.2,2784.75,-400.042,-26.9135,0
24591,787.75,762.32,756.1,752.75,764.73,84.47,-899.41,466.8,-2.56,3.18,2.05,-139.76,4919,0,64,-18.9314,-4.759,-300.565,10032.3,32839.6,1884.01,-397.741,-33.3785,0
24625,787.66,762.61,755.99,752.85,764.78,68.85,-903.81,470.7,5.23,2.69,0.95,-146.11,4926,0,64,-17.0496,-6.81034,-308.935,11182.4,34354.1,1756.36,-395.799,-36.1963,0
24659,787.64,762.76,756.01,752.87,764.82,80.08,-883.79,483.4,7.8,2.12,0.18,-146.96,4933,0,64,-14.4989,-7.34365,-311.538,11644.1,35002.3,1944.76,-394.646,-37.3762,0
24694,787.46,762.91,756.08,752.99,764.86,66.89,-889.65,486.82,7.41,3.49,0.67,-147.62,4940,0,64,-13.5944,-8.36844,-305.141,11062,34353.2,1810.9,-394.418,-36.2521,0
24728,787.41,763.22,756.05,753.1,764.94,59.08,-859.86,497.56,4.59,1.04,0.76,-152.21,4947,0,64,-11.1663,-6.45672,-316.455,11124.7,35953.9,2195.54,-393.385,-35.1544,0
24762,787.35,763.71,756.2,753.18,765.11,79.59,-905.27,486.33,8.98,2.14,3.97,-153.27,4953,0,64,-8.42393,-4.23655,-318.602,11186.9,36438.8,3016.63,-392.629,-35.1123,0
24796,787.21,763.94,756.29,753.51,765.23,66.41,-883.79,490.72,6.27,0.87,-0.02,-157.34,4960,0,64,-4.116,-4.02878,-326.875,11507,37738.9,3522.96,-391.546,-35.203,0
24831,786.86,764.24,756.4,753.55,765.26,69.82,-865.23,495.12,2.73,4.56,2.5,-156.28,4967,0,64,-0.345148,-2.3719,-328.217,11460.4,38045.5,3898.9,-391.084,-34.9172,0
24867,787.06,764.2,756.44,753.48,765.29,72.75,-895.02,503.91,-1.76,2.56,0.49,-154.78,4974,0,64,2.45568,-4.13135,-324.097,10674.2,37533.9,3792.88,-391.189,-32.9349,0
24901,787.78,764.04,756.34,753.38,765.39,63.96,-896.97,489.75,-5.65,0.08,-3.57,-157.11,4981,0,64,4.14762,-2.54509,-318.555,9807.44,36958.3,3939.42,-390.981,-30.7874,0
24935,788.18,763.88,756.21,753.36,765.41,76.17,-892.58,488.28,-5.07,0.37,0.36,-159.89,4988,0,64,7.3925,2.80583,-321.547,9130.15,37727.9,5067.96,-389.668,-28.3944,0
24969,788.2,763.74,756.12,753.22,765.32,78.12,-888.67,492.68,-5.59,0.42,1.63,-159.16,4995,0,64,10.1087,5.99436,-321.845,7946.09,37945.2,5449.18,-389.101,-24.6893,0
25004,788.85,763.57,756.09,753.16,765.42,63.96,-874.51,501.95,-10.34,-0.31,0.91,-159.8,5002,0,64,12.3919,6.28946,-321.079,6347.62,37832.4,5623.72,-389.171,-19.77,0
25038,789.68,763.52,756.12,753.05,765.59,57.13,-894.53,484.86,-10.18,0.73,0.53,-160.09,5009,0,64,12.0976,7.89021,-330.587,4378.51,38656.9,5904.17,-390.066,-13.2443,0
25072,790.03,763.47,755.95,752.94,765.6,71.29,-928.71,442.87,-5.52,0.41,0.81,-163.21,5015,0,64,11.9185,7.50766,-331.863,2742.91,38461.1,6010.2,-391.105,-8.26576,0
25106,790.05,763.53,756.02,753,765.65,56.15,-923.83,447.27,8.92,-1.09,-0.5,-163.16,5022,0,64,11.8265,6.29006,-335.807,1035.74,38688.2,5831.46,-391.79,-3.08416,0
25141,790,763.37,756.08,753.09,765.64,80.08,-881.35,489.26,9.44,1.39,-0.44,-161.22,5029,0,64,13.5736,6.61435,-329.329,30.6951,37845.8,6025.73,-392.083,-0.0926769,0
25175,789.58,763.44,756.03,753.14,765.55,52.25,-871.09,506.84,2.46,2.29,2.26,-162.52,5036,0,64,12.4507,7.4553,-326.952,-1027.93,37295.2,6118.37,-392.931,3.14384,0
25209,789.35,763.32,756.02,753.13,765.46,57.62,-899.9,503.91,-2.75,1.5,-3.28,-160.79,5043,0,64,14.069,9.60153,-334.638,-2240.44,38095.2,6488.33,-393.16,6.6949,0
25244,789.34,763.26,755.98,753.06,765.41,76.17,-908.2,471.68,-1.97,1.2,-1.08,-160.37,5050,0,64,12.8906,9.18788,-336.746,-3497.24,37808.8,6402.76,-394.723,10.3856,0
25278,789.65,763,755.88,752.97,765.38,76.17,-889.65,482.42,-1.84,0.5,-2.35,-160.37,5057,0,64,14.1193,10.0391,-342.637,-4768.28,38186.4,6491.81,-395.551,13.9165,0
25312,789.75,762.67,755.85,752.85,765.28,68.36,-893.07,487.3,-5.35,-0.21,-2.37,-157.06,5063,0,64,13.3892,10.1664,-341.849,-5500.46,37791.4,6277.01,-396.45,16.0903,0
25346,789.88,762.68,755.8,752.7,765.26,77.15,-898.44,479,-1.26,0.67,-0.89,-156.64,5070,0,64,13.1819,7.41537,-346.147,-5454.93,38008.1,6108.53,-397.197,15.7589,0
25381,789.7,762.6,755.82,752.78,765.23,73.73,-901.37,466.31,-4.42,3.24,2.11,-156.01,5077,0,64,14.3926,6.12586,-353.188,-5604.59,38615.5,6214.12,-397.666,15.8685,0
25415,789.32,762.71,755.84,752.83,765.17,80.08,-885.25,488.77,-0.66,3.88,2.79,-155.88,5084,0,64,12.9554,6.6162,-356.663,-6405.11,38517.2,6224.51,-399.007,17.9585,0
25449,789.35,762.84,755.81,752.8,765.2,66.41,-896,491.21,7.99,2.46,-0.16,-157.28,5091,0,64,14.2781,3.7982,-362.818,-6160.6,39176.9,5912.49,-399.021,16.9798,0
25483,789.26,763.05,755.95,752.84,765.27,66.41,-877.44,501.46,11.51,4.47,2.4,-155.84,5098,0,64,15.0417,4.12229,-369.948,-6568.68,39777.7,5862.73,-399.478,17.7555,0
25518,788.84,763.04,756.01,753.01,765.22,48.34,-861.33,513.18,4.82,3.95,0.82,-155.4,5105,0,64,14.0047,4.17442,-371.635,-7193.26,39551.1,5653.63,-400.575,19.3557,0
25552,788.33,763.12,756.05,753.03,765.13,67.38,-885.25,479.49,4.13,0.6,0.44,-153.53,5111,0,64,13.4387,4.40354,-371.374,-6867.46,39514,5472.99,-400.6,18.4921,0
25586,787.95,763.22,756.07,753.14,765.09,62.99,-871.58,497.07,3.53,2.02,1.55,-154.14,5118,0,64,12.0676,3.91792,-372.693,-5752.47,39597.2,5401.87,-400.754,15.4349,0
25621,787.35,763.39,756.18,753.2,765.03,68.36,-891.11,498.05,2.32,3.08,0.85,-151.59,5125,0,64,11.6411,2.58,-365.717,-5527.25,38883.1,5113.98,-400.68,15.1135,0
25655,786.56,763.65,756.37,753.35,764.98,64.45,-894.53,491.7,6.29,0.41,2.18,-148.36,5132,0,64,10.1908,1.46212,-353.794,-5211.31,37403.4,5062.34,-401.279,14.7296,0
25689,785.68,764.21,756.61,753.53,765.01,55.18,-887.21,488.77,9.48,3.03,2.52,-146.57,5139,0,64,8.23266,1.84676,-341.276,-5204.19,35892.9,4965.32,-401.828,15.2496,0
25723,784.74,764.43,756.84,753.75,764.94,60.06,-908.69,507.32,5.5,-0.66,3.37,-142.61,5146,0,64,5.16576,1.87424,-333.524,-5812.91,34712.6,4882.66,-402.922,17.4288,0
25756,784.16,764.37,756.95,753.85,764.83,45.41,-875.49,514.65,1.37,2.09,1.49,-138.82,5152,0,64,2.34835,2.23896,-326.869,-5389.53,33776.5,5067.61,-403.667,16.488,0
25790,784.14,764.23,756.92,753.84,764.79,57.62,-873.05,497.56,-1.64,2.27,1.05,-138.31,5159,0,64,-1.93701,-1.01355,-324.588,-3766.21,33540.5,4757.76,-403.668,11.6027,0
25825,784.62,764.12,756.84,753.71,764.82,56.64,-863.28,505.86,-4.01,1.02,-2.34,-138.91,5166,0,64,-5.28192,0.276406,-325.675,-2972.66,33579.4,5010.64,-403.893,9.12775,0
25859,785.74,764.07,756.81,753.58,765.05,57.13,-880.86,502.93,-11.07,-0.64,4.25,-141.47,5173,0,64,-8.72543,0.288938,-326.841,-1939.56,33938,4998.99,-403.164,5.93441,0
25892,788.11,764.35,756.73,753.5,765.67,57.62,-882.32,489.26,-8.2,1.26,0.87,-152.56,5179,0,64,-10.9073,-1.78751,-325.595,-262.513,34018.1,4749.36,-402.52,0.805758,0
25926,787.88,764.53,756.79,753.54,765.69,61.04,-880.86,479.49,1.24,-1.48,1.54,-152.38,5186,0,64,-13.4179,-2.62758,-323.936,1760.62,34146.7,4518.34,-401.588,-5.43483,0
25961,787.18,764.8,756.84,753.63,765.61,66.41,-886.72,493.65,4.42,-0.18,1.35,-152.26,5193,0,64,-17.3178,-4.21232,-328.208,3109.79,34880.3,4011.34,-400.725,-9.47477,0
25994,785.97,765.48,757.13,753.82,765.6,68.85,-883.79,488.28,10.04,3.89,2.15,-149.1,5200,0,64,-21.4988,-4.52481,-326.52,3566.38,34890.4,3886.1,-400.145,-10.9224,0
26029,785.04,766.28,757.59,754.15,765.76,54.2,-872.56,493.65,6.17,3.38,0.96,-145.55,5207,0,64,-24.8335,-3.67875,-326.592,4079.37,34992.6,3831.87,-399.855,-12.4909,0
26063,784.1,766.99,758.01,754.56,765.91,48.34,-871.58,518.55,10.11,2.03,0.52,-143.55,5214,0,64,-28.0227,-2.97719,-316.55,3813.72,33759.3,3606.61,-400.353,-12.0474,0
26097,782.05,767.61,758.3,754.76,765.68,64.94,-892.09,504.39,5.32,4.66,3.47,-137.31,5220,0,64,-29.8067,-4.27707,-301.067,3335.38,31825.9,3280.4,-401.29,-11.0785,0
26130,779.84,768.16,758.6,755.15,765.44,59.08,-864.75,518.55,6.73,5.79,1.63,-132.46,5227,0,64,-29.6444,-7.60347,-273.793,2422.45,28480.9,2757.19,-402.978,-8.84598,0
26164,777.3,768.84,758.9,755.39,765.11,48.83,-868.65,520.02,9.64,6.97,2.45,-125.38,5234,0,64,-29.2963,-6.91108,-247.222,803.306,25082.7,2511.94,-405.543,-3.24823,0
26199,775.92,769.32,759.43,755.9,765.14,42.48,-875,530.27,10.06,3.52,-1.11,-118.78,5241,0,64,-30.3085,-9.91556,-236.018,664.658,23458.9,1947.31,-407.606,-2.81605,0
26233,774.97,769.61,759.87,756.13,765.15,33.69,-846.19,525.88,5.33,3.73,1.11,-110.06,5248,0,64,-30.1116,-8.31213,-239.609,731.323,23785.5,1969.46,-407.734,-3.05128,0
26267,774.39,769.39,759.58,756.09,764.86,45.41,-858.4,539.06,-0.57,1.18,1.12,-113.11,5254,0,64,-22.5773,-4.13766,-259.182,2080.76,27197.3,2109.14,-402.069,-8.02506,0
26302,772.7,768.57,759,755.55,763.95,56.64,-867.19,537.6,-6.89,0.44,0.13,-107.19,5261,0,64,-20.7422,-5.90109,-287.688,4016.36,31131.7,2157.97,-398.786,-13.9602,0
26336,772.82,768.18,758.43,755.03,763.62,49.32,-833.5,541.02,-12.61,-0.37,2.21,-111.15,5268,0,64,-19.6483,-8.52453,-301.108,4717.16,32515.6,2503.51,-399.014,-15.6656,0
26370,773.84,767.94,758.1,754.67,763.64,46.88,-885.74,505.37,-1.49,1.65,-1.27,-115.47,5275,0,64,-25.6342,-22.1071,-324.851,5600.78,34617.7,987.925,-400.434,-17.2413,0
26404,776.95,767.48,758.06,754.48,764.24,45.41,-863.28,533.69,-5.11,-4.75,-3.12,-120.6,5282,0,64,-33.4323,-20.4766,-352.427,3816.81,36949.9,761.539,-402.156,-10.8316,0
26439,782.31,767,757.81,754.12,765.31,53.22,-893.07,496.58,-7.48,-5.15,-2.18,-136.2,5289,0,64,-29.489,-0.908659,-348.276,-1276.18,36521.6,3341.31,-402.136,3.6661,0
26473,784.35,765.78,757.51,753.74,765.35,63.48,-895.02,491.7,-6.33,-1.63,-2.41,-135.23,5296,0,64,-25.9031,9.20295,-336.531,-5121.19,35232.4,5077.94,-402.307,15.2188,0
26507,786.47,764.73,757.17,753.3,765.42,82.03,-848.63,523.93,-6.71,-0.57,-2.76,-136.3,5302,0,64,-24.7229,13.3143,-326.49,-7177.78,33812.3,5658.41,-403.437,21.9862,0
26542,790.82,764.34,757.03,753.16,766.34,68.36,-869.14,507.32,-2.04,-1.21,-3.11,-149.46,5309,0,64,-26.8694,13.0133,-318.599,-7904.32,32782.1,5518.1,-404.106,24.8095,0
26576,792.03,763.66,756.55,752.91,766.29,76.66,-871.58,511.72,-13.15,0.35,-5.78,-156.36,5316,0,64,-28.9236,6.3326,-318.668,-6736.06,32496.2,4471.6,-405.025,21.1382,0
26610,791.99,763.19,756.23,752.69,766.02,90.82,-887.7,472.17,-6.36,-3.04,0.53,-157.1,5323,0,64,-29.0746,1.24536,-321.67,-5928.21,32952.3,3733.86,-404.558,18.4295,0
26644,792.14,763.04,756.06,752.63,765.97,70.8,-875.98,503.42,-6.05,-3.79,-3.24,-159.92,5330,0,64,-27.8512,4.04008,-324.793,-6233.18,33462.2,3750.19,-403.974,19.1913,0
26679,791.42,762.72,755.97,752.67,765.7,83.5,-870.61,511.23,1.58,-1.51,-1.06,-157.53,5337,0,64,-27.7253,7.72559,-321.807,-6788.63,33257.2,4126.92,-403.655,21.0954,0
26713,791.72,762.5,755.89,752.51,765.65,84.96,-918.46,461.43,-5.96,-2.08,-1.4,-156.36,5344,0,64,-28.3023,8.42578,-319.315,-6998.22,32849.9,4312.76,-404.124,21.9163,0
26747,793.16,761.97,755.72,752.45,765.83,80.08,-890.62,488.28,-22.05,-1.51,-3.65,-160.61,5350,0,64,-28.5294,7.65311,-320.495,-6471,33106.7,4187.17,-403.701,20.1909,0
26783,794.85,761.81,755.55,752.19,766.1,52.73,-942.38,493.65,-17.92,-6.67,-3.15,-165.48,5358,0,64,-28.0382,5.12275,-328.9,-5438.97,34240.9,3980.08,-402.893,16.537,0
26817,796.96,761.93,755.42,752.06,766.59,98.63,-922.36,408.2,-0.48,-4.92,1.18,-175.02,5364,0,64,-27.3957,1.9936,-332.321,-4578.08,34780.9,3610.91,-402.34,13.7762,0
26852,797.53,762.07,755.35,752.03,766.75,78.61,-912.11,475.59,6.45,1.15,-0.27,-179.42,5371,0,64,-28.2532,-0.929298,-337.024,-3818.56,35344.3,3256.06,-402.128,11.3303,0
26886,796.73,762.28,755.36,752.13,766.62,85.45,-916.02,471.68,15.15,3.21,1.41,-179.54,5378,0,64,-28.8885,-2.15054,-338.516,-3164.76,35513.8,2869.14,-402.09,9.34896,0
26920,795.35,762.85,755.52,752.17,766.47,66.41,-878.91,474.12,25.22,3.81,8.14,-175.8,5385,0,64,-27.9939,-3.11024,-343.039,-2457.09,36278.3,2933.44,-401.244,7.1627,0
26955,794.08,763.6,755.76,752.3,766.43,46.39,-881.35,543.46,35.3,5.31,7.88,-173.41,5392,0,64,-27.1039,-4.29643,-339.039,-2106.26,36019.1,2823.73,-400.761,6.21233,0
26989,792.42,764.35,756.18,752.65,766.4,82.03,-882.32,493.16,17.14,3.82,6.89,-168.66,5399,0,64,-26.911,-3.56364,-328.834,-1991.31,34884,2916.47,-400.916,6.05554,0
27023,789.78,765.33,756.72,753.08,766.23,65.92,-838.38,562.01,25.71,6.89,4.32,-160.26,5406,0,64,-26.4695,-3.21049,-317.216,-2089.4,33626.6,2834.74,-400.995,6.58674,0
27057,787.41,766.24,757.41,753.68,766.19,60.55,-878.91,514.16,20.96,8.36,5.43,-150.98,5412,0,64,-26.2826,-2.888,-314.653,-1888.55,33257.2,2761.35,-401.305,6.00201,0
27092,785.06,767.25,758.07,754.44,766.21,60.55,-835.94,569.82,18.27,5.69,2.6,-145.81,5419,0,64,-25.4241,-3.97812,-311.982,-1605.28,33034.7,2799.63,-401.113,5.14538,0
27126,782.03,768.32,759.04,755.4,766.2,48.34,-818.36,599.12,15.28,3.16,2.29,-134.15,5426,0,64,-25.0807,-3.53739,-308.682,-1488.02,32681.4,2728.65,-401.126,4.82065,0
27160,779.78,769.21,760.18,756.31,766.37,54.69,-840.33,574.71,10.11,1.83,0.57,-118.2,5433,0,64,-25.6032,-2.94522,-303.382,-1608.76,32057,2560.65,-401.335,5.30278,0
27194,777.46,770.13,761.19,757.04,766.45,50.78,-828.12,574.22,9.24,1.52,2.79,-103.47,5440,0,64,-25.3684,-2.4145,-299.851,-1641.07,31692.6,2626.69,-401.305,5.47295,0
27229,774.87,771.09,761.89,757.74,766.4,35.16,-837.89,593.75,2.53,3.13,0.87,-95.15,5447,0,64,-24.5562,-2.09634,-300.44,-1453.81,31826.3,2651.03,-401.068,4.83893,0
27262,773.93,771.59,762.31,758.23,766.51,31.74,-839.36,586.91,5.4,3.88,0.9,-92.61,5453,0,64,-24.4416,-1.68374,-303.229,-1171.97,32194.5,2595.22,-400.828,3.86497,0
27296,773.55,771.79,762.48,758.41,766.56,47.36,-833.01,578.61,1.18,0.95,1.09,-91.27,5460,0,64,-24.6086,-2.14039,-304.32,-893.122,32335.1,2570.94,-400.746,2.93479,0
27330,773.31,771.78,762.33,758.26,766.42,38.09,-829.59,578.12,-1.54,3.76,0.12,-91.96,5467,0,64,-25.0285,-1.66837,-304.589,-727.53,32466.8,2462.94,-400.408,2.38857,0
27364,772.95,771.53,762.17,757.96,766.15,38.57,-824.71,574.71,-0.58,1.6,-0.34,-88.35,5474,0,64,-24.8259,-1.2834,-306.49,-482.365,32610.3,2416.98,-400.601,1.57386,0
27398,772.83,771.21,762.13,757.9,766.02,42.97,-827.15,588.38,1.45,1.64,-0.92,-85.36,5481,0,64,-24.9959,-1.58845,-307.311,2.12608,32923.7,2377.51,-399.865,-0.00691822,0
27431,773.1,770.9,762.21,757.72,765.98,35.64,-841.8,584.47,-1.93,-0.87,0.23,-79.28,5487,0,64,-25.0055,-1.55609,-308.708,159.205,33070.7,2337.66,-399.874,-0.515657,0
27465,773.43,770.48,762.1,757.47,765.87,49.32,-821.29,566.89,0.62,1.18,-0.28,-75.96,5494,0,64,-25.2542,-1.57081,-307.652,457.205,33027.7,2307.04,-399.646,-1.48616,0
27499,773.83,770.47,762.05,757.31,765.92,20.02,-822.27,593.75,-1.28,0.54,-0.35,-76.08,5501,0,64,-25.1429,-1.51523,-305.58,546.549,32806.5,2307.53,-399.642,-1.78857,0
27533,773.89,770.24,761.81,757.3,765.81,30.76,-831.05,576.66,2.03,3.03,-0.75,-80.47,5508,0,64,-25.032,-0.898559,-304.778,485.69,32745.2,2369.69,-399.561,-1.59351,0
27567,774.76,770.04,761.64,757.13,765.89,45.41,-871.58,554.69,-0.26,0.29,0.57,-83.53,5514,0,64,-25.3651,-0.96153,-305.611,634.294,32846.7,2308.71,-399.521,-2.07547,0
27601,775.4,770.03,761.45,757.03,765.98,32.71,-798.83,613.28,-1.06,5.21,-0.65,-88.9,5521,0,64,-24.8684,-1.28474,-305.651,756.944,32833.6,2320.05,-399.578,-2.4765,0
27635,775.78,769.91,761.37,757.09,766.04,41.99,-849.12,571.78,1.78,4.12,-1.69,-91.98,5528,0,64,-25.0314,-0.919044,-305.679,795.963,32920.4,2275.7,-399.304,-2.60393,0
27669,776.51,769.85,761.17,757.05,766.15,65.92,-823.73,584.47,-2.94,1.65,-1.95,-98.51,5535,0,64,-24.9921,-0.958537,-303.858,805.834,32708.8,2345.63,-399.355,-2.65206,0
27703,776.57,769.6,760.8,756.85,765.95,39.55,-826.17,580.57,-2.17,-3.61,-0.23,-103.05,5542,0,64,-24.4355,-0.918952,-301.049,962.766,32396.9,2261.98,-399.387,-3.19804,0
27738,776.55,769.15,760.6,756.81,765.78,41.99,-811.52,572.27,-1.7,0.37,-0.15,-103.73,5549,0,64,-24.5892,-0.241874,-300.065,999.399,32298,2377.54,-399.363,-3.33054,0
27772,777.08,768.61,760.03,756.38,765.53,51.76,-838.87,566.89,-5.97,-0.91,-5.56,-109.08,5555,0,64,-25.3681,0.0313039,-298.528,1012.71,32197.1,2401.21,-399.147,-3.39232,0
27807,777.05,768.2,759.72,756.04,765.25,56.15,-831.54,574.71,-9.8,2.4,1.14,-108.36,5562,0,64,-24.9807,-0.369703,-296.781,1168.5,31986.1,2438.04,-399.223,-3.93723,0
27841,776.52,767.99,759.5,755.97,764.99,57.13,-855.47,557.62,2.21,2.61,3.41,-109.35,5569,0,64,-24.646,-0.217887,-296.78,1227.39,31945.3,2375.84,-399.361,-4.13567,0
27875,776.48,767.88,759.21,755.79,764.84,55.18,-813.96,566.89,-9.63,1.38,1.72,-112.96,5576,0,64,-24.7409,-0.291735,-297.094,1382.75,31982.5,2311.71,-399.349,-4.65428,0
27910,776.52,767.85,759.06,755.72,764.79,58.11,-865.72,565.92,-4.98,-0.89,-2.21,-115.39,5583,0,64,-24.9554,-0.558924,-297.513,1611.74,32126.7,2350.08,-399.016,-5.41739,0
27944,777.37,767.7,758.91,755.57,764.89,42.97,-830.08,579.59,-4.3,-2.89,3.84,-118.65,5590,0,64,-24.8593,-0.716418,-297.976,1649.2,32139.1,2390.81,-399.142,-5.5347,0
27978,778.18,767.49,758.63,755.31,764.9,62.01,-843.26,563.96,-10.39,-1.6,0.62,-123.04,5597,0,64,-24.8986,-0.487821,-299.329,1606.69,32297.3,2435.98,-399.101,-5.36763,0
28012,779.22,767.23,758.38,754.98,764.95,68.36,-847.17,558.11,-8.05,-0.7,0.66,-125.88,5603,0,64,-24.9349,-1.02867,-299.8,1672.89,32409.6,2310.51,-398.896,-5.57999,0
28047,779.88,766.85,758.19,754.63,764.89,43.95,-864.75,550.29,-8.41,-0.15,1.28,-124.64,5610,0,64,-25.1632,-1.08318,-301.61,1790.46,32560.3,2148.84,-399.045,-5.93632,0
28081,780.18,766.56,758.1,754.35,764.8,65.43,-871.58,546.87,-8.28,-2.44,-0.4,-121.35,5617,0,64,-25.2515,-1.42362,-301.862,1820.52,32613.6,2236.07,-398.959,-6.03099,0
28115,779.94,766.28,758.1,754.08,764.6,51.27,-858.4,534.67,-6.82,-3.31,-1.21,-114.46,5624,0,64,-25.2249,-1.72453,-302.596,1836.35,32674.3,2220.55,-399.02,-6.06864,0
28149,778.77,766.01,757.99,753.88,764.16,42.48,-861.82,539.55,-5.63,2.33,0.35,-107.98,5631,0,64,-25.0496,-2.02448,-301.529,1826.12,32541.6,2206.69,-399.078,-6.05621,0
28184,776.45,765.62,757.84,753.75,763.41,64.45,-854.49,531.74,-10.45,0.71,-1.24,-98.86,5638,0,64,-24.6762,-1.47204,-297.133,1577.72,32130.3,2354.55,-398.865,-5.30972,0
28218,774.32,765.42,757.6,753.69,762.76,54.69,-865.23,535.64,-9.78,1.74,-3.65,-95.16,5645,0,64,-24.4034,-0.986067,-295.582,1329.98,31819,2261.22,-399.352,-4.49945,0
28252,773.54,765.36,757.45,753.61,762.49,52.25,-869.63,533.69,-10.87,3.69,1.91,-94.39,5651,0,64,-24.5746,-0.870989,-295.133,1265.15,31769.7,2396.61,-399.355,-4.28675,0
28287,774.09,765.62,757.1,753.43,762.56,29.3,-863.28,512.7,-20.24,1.82,2.93,-104.35,5658,0,64,-24.538,-0.816414,-293.606,984.782,31571.1,2427.94,-399.471,-3.35418,0
28321,775.86,766.2,757.01,753.49,763.14,71.78,-912.6,493.65,-4.05,-3.25,1.33,-118.19,5665,0,64,-24.2704,-1.03281,-290.637,901.001,31180.4,2443.29,-399.717,-3.10007,0
28355,778.36,766.63,757.11,753.63,763.93,59.08,-929.2,465.33,10.72,-0.57,-1.03,-129.83,5672,0,64,-24.4763,-1.30144,-288.72,921.7,30904.6,2462.02,-399.96,-3.19234,0
28389,779.85,767.31,757.75,754.21,764.78,48.83,-848.14,543.95,28.51,3.92,-1.03,-132.98,5679,0,64,-24.5137,-1.2446,-287.312,914.538,30791.1,2454.4,-399.831,-3.18308,0
28424,779.51,768,758.4,754.7,765.15,60.55,-863.77,527.83,11.9,2.23,0.86,-128.39,5686,0,64,-24.5892,-1.65158,-285.361,773.118,30395,2444.74,-400.486,-2.7092,0
28458,779,768.14,758.73,755.03,765.23,44.43,-865.72,534.67,2.2,1.27,4.09,-124.36,5693,0,64,-24.0768,-1.68766,-283.897,627.568,30208.4,2445.15,-400.594,-2.21055,0
28492,780.24,767.94,758.58,754.87,765.41,48.83,-833.5,542.48,-3.95,1.68,0.97,-128.47,5699,0,64,-24.1923,-1.68969,-285.916,610.261,30495.2,2528.84,-400.342,-2.13441,0
28526,782.43,767.97,758.47,754.63,765.88,32.71,-832.03,555.66,-18.98,-2.82,0.51,-135.42,5706,0,64,-24.8153,-1.87748,-289.615,594.058,30821.9,2509.44,-400.576,-2.0512,0
28561,782.96,768.57,758.55,754.63,766.18,103.52,-963.87,451.17,0.14,1.93,1.15,-140.13,5713,0,64,-24.6255,-1.92538,-292.345,538.151,31063.2,2491.54,-400.745,-1.84078,0
28595,780.56,769.3,759.33,755.27,766.11,48.34,-892.09,504.88,31.9,4.06,-0.08,-127.51,5720,0,64,-24.7031,-1.64444,-296.191,536.485,31577.1,2494.77,-400.389,-1.81128,0
28629,777.88,769.52,760.06,755.69,765.79,26.86,-783.69,595.7,11.21,4.69,1.77,-108.16,5727,0,64,-24.8393,-1.32377,-296.578,367.095,31489.8,2524.77,-400.823,-1.2378,0
28664,776.74,769.64,760.24,755.75,765.59,43.95,-872.56,539.06,0.23,1.31,2.26,-101.69,5734,0,64,-25.4638,-1.39242,-299.057,44.8012,31646.2,2681.43,-401.18,-0.149831,0
28699,777.35,769.71,760.26,755.78,765.77,30.76,-852.54,542.48,-2.64,2.02,1.44,-104.39,5741,0,64,-26.082,-2.02694,-305.296,-69.3981,32287.5,2741.9,-401.242,0.227331,0
28734,778.31,769.58,760.09,755.76,765.93,38.09,-866.21,554.69,-3.5,-0.03,-1.87,-110.51,5748,0,64,-26.0068,-3.49931,-307.133,-215.009,32405.6,2838.05,-401.49,0.700078,0
28768,778.6,769.48,759.93,755.64,765.91,48.34,-850.1,535.64,-6.45,1.16,1.05,-112.83,5755,0,64,-25.2652,-3.61232,-303.416,-711.112,31730.5,2971.95,-402.423,2.34373,0
28802,778.23,769.53,759.84,755.5,765.77,62.99,-882.32,521,-0.82,0.5,0.19,-112.13,5761,0,64,-25.2708,-3.53874,-303.62,-896.912,31741.7,3128.95,-402.456,2.95405,0
28837,777.57,769.62,759.79,755.6,765.65,48.34,-867.68,521.97,-0.47,2,1.88,-113.3,5768,0,64,-25.6464,-3.42381,-310.287,-914.288,32401,3229.23,-402.577,2.94694,0
28871,777.54,769.62,759.87,755.51,765.63,41.99,-859.37,550.29,2.66,0.14,1.11,-109.82,5775,0,64,-25.956,-2.93979,-316.846,-712.438,33162,3299.36,-402.337,2.24854,0
28905,777.75,769.54,759.86,755.43,765.65,44.92,-865.23,540.04,-1.8,0.71,0.9,-109.09,5782,0,64,-26.061,-2.26677,-315.233,-771.52,32929.9,3361.39,-402.538,2.44752,0
28939,778.01,769.45,759.74,755.44,765.66,54.69,-858.89,533.69,1.24,0.37,-1.77,-112.51,5789,0,64,-25.711,-0.833115,-309.839,-983.536,32219.1,3342.37,-403.013,3.17445,0
28973,778.13,769.29,759.71,755.35,765.62,54.69,-849.61,529.79,-0.9,2.03,0.5,-110.93,5796,0,64,-25.042,0.926267,-306.788,-1182.84,31943.2,3329.05,-402.879,3.8556,0
29007,778.23,769.13,759.65,755.26,765.57,47.85,-870.12,523.93,-1.04,1.63,-1.73,-110.33,5802,0,64,-25.1283,0.728924,-303.671,-1232.46,31549.9,3266.07,-403.105,4.05855,0
29041,778.18,769.18,759.72,755.3,765.6,44.43,-860.84,528.32,1.18,0.18,1.1,-109.44,5809,0,64,-25.0329,1.18766,-301.919,-1283.37,31377.1,3415.69,-403.074,4.25081,0
29074,778.18,769.1,759.65,755.16,765.53,50.78,-855.47,518.55,-1.1,1.1,2.14,-108.46,5816,0,64,-25.4532,1.54342,-300.686,-1654.25,31119,3314.08,-403.507,5.50157,0
29108,778.1,769,759.55,755.25,765.47,59.57,-872.07,535.64,-0.98,1.55,2.79,-111.09,5823,0,64,-25.4301,1.7819,-301.112,-2080.9,31014.3,3222.59,-404.001,6.91072,0
29142,778.39,768.97,759.54,755.18,765.52,42.48,-854.98,535.64,-0.44,-0.33,0.24,-110.97,5829,0,64,-25.4537,2.98295,-300.549,-2551.78,30798.7,3359.88,-404.525,8.49043,0
29176,778.85,768.81,759.44,755.12,765.56,45.9,-860.84,537.6,-2.11,2.02,-2.53,-112.94,5836,0,64,-25.3486,4.2102,-298.859,-3250.4,30403,3541.02,-405.27,10.876,0
29210,779.07,768.76,759.46,754.99,765.57,53.71,-865.23,528.32,-1.69,-0.74,1.21,-110.96,5843,0,64,-25.5395,4.18889,-295.371,-3601.29,29839.1,3673.63,-405.977,12.1924,0
29244,778.96,768.75,759.41,754.98,765.52,47.36,-878.42,535.16,0.06,2.21,-0.84,-111.6,5850,0,64,-26.18,4.40056,-296.056,-3772.8,29865,3736.2,-406.124,12.7435,0
29278,778.7,768.66,759.24,755.04,765.41,45.41,-867.19,526.37,0.68,5.13,1.11,-115.13,5857,0,64,-26.1983,4.33913,-298.725,-3857.34,30180.1,3841.66,-405.971,12.9127,0
29312,778.72,768.66,759.22,754.98,765.39,40.04,-874.51,533.2,-1.29,2.03,0.86,-114.81,5863,0,64,-25.6597,3.95306,-300.028,-3590.61,30404.4,3779.01,-405.661,11.9676,0
29346,778.81,768.59,759.23,754.93,765.39,36.62,-867.19,532.23,0.27,0.38,1.02,-113.49,5870,0,64,-25.0118,2.74949,-298.281,-3431.25,30272.3,3585.06,-405.511,11.5035,0
29380,778.74,768.57,759.21,754.95,765.37,40.53,-875,532.23,1.08,0.71,-0.47,-113.9,5877,0,64,-24.7155,3.17375,-293.6,-3786.16,29758,3627.94,-405.644,12.8958,0
29414,778.5,768.7,759.21,754.99,765.35,51.27,-867.19,522.46,0.55,1.18,2.69,-114.62,5884,0,64,-23.5149,3.60241,-288.876,-4093.46,29304.4,3627.56,-405.557,14.1707,0
29448,778.1,768.66,759.2,755.09,765.26,58.59,-877.93,524.41,0.28,0.87,1.65,-114.56,5891,0,64,-21.342,1.7975,-275.926,-4132.9,28079.8,3376.25,-405.234,14.9791,0
29483,777.28,768.7,759.23,755.14,765.09,51.27,-874.02,513.67,0.2,1.76,0.34,-112.24,5898,0,64,-19.0163,3.42579,-256.37,-4696.07,25853.9,3442.53,-406.155,18.3185,0
29517,776.52,768.67,759.21,755.17,764.89,52.25,-864.75,530.27,4.39,2.63,0.26,-110.33,5904,0,64,-16.8695,4.48941,-238.244,-4919.79,23891.7,3492.6,-406.718,20.6503,0
29551,776.19,768.75,759.3,755.2,764.86,58.59,-865.72,527.83,2.82,0.79,-2.46,-108.02,5911,0,64,-14.9042,-0.529179,-222.801,-3387.63,22202.1,2903.4,-407.35,15.2031,0
29585,776.67,768.81,759.44,755.29,765.05,42.97,-867.68,534.67,3.76,-2.12,0.53,-107.81,5918,0,64,-18.3275,0.305816,-222.4,-2278.43,22056.3,3115.43,-407.826,10.2443,0
29620,776.66,768.74,759.39,755.35,765.04,41.02,-857.42,531.74,0.85,0.02,-0.79,-109.37,5925,0,64,-21.3945,5.60076,-221.012,-2851.11,21344.7,3815.43,-410.423,12.9003,0
29656,776.58,768.71,759.43,755.35,765.02,52.25,-860.35,540.53,-3.23,-1.44,-4.08,-108.18,5932,0,64,-22.4816,5.46308,-222.923,-1094.25,21618.8,4049.49,-410.022,4.91559,0
29690,776.56,768.6,759.43,755.35,764.98,51.76,-877.93,521,0.96,1.67,-1.33,-106.98,5939,0,64,-24.0544,4.78087,-287.074,2491.21,29279.8,4165.54,-405.008,-8.6717,0
29724,776.62,768.37,759.32,755.2,764.88,38.57,-854,536.13,-0.5,-0.59,1.19,-105.85,5946,0,64,-21.5086,4.8558,-307.532,4617.99,32283.6,4053.03,-402.023,-15.0163,0
29758,776.78,768.39,759.31,755.15,764.91,53.22,-863.77,535.16,-0.76,-1.28,-1.18,-106.01,5953,0,64,-20.3182,2.19203,-330.624,7948.81,35765.9,3597.04,-398.824,-24.0386,0
29793,776.91,768.33,759.31,755.09,764.91,50.29,-859.37,532.71,0.57,-0.75,1.15,-105.17,5960,0,64,-16.2139,-4.12471,-337.137,10430.6,37409.9,2917.04,-396.036,-30.9387,0
29827,777.06,768.34,759.28,755.15,764.96,46.39,-872.07,523.93,0.42,-1.29,0.6,-107.51,5966,0,64,-14.978,-5.95574,-339.573,10663.6,38055.6,2853.7,-394.931,-31.403,0
29861,777.48,768.37,759.23,755.18,765.07,47.85,-858.89,526.86,-0.4,-0.24,-0.23,-110.78,5973,0,64,-14.9655,-4.26346,-353.563,11096.4,39611.3,2997.1,-394.965,-31.3842,0
29895,777.66,768.38,759.3,755.17,765.13,49.32,-874.51,517.58,2.21,0.24,-0.43,-109.64,5980,0,64,-11.9847,-6.18601,-348.085,10984.5,39104.8,2772.21,-394.657,-31.5568,0
29930,777.94,768.39,759.28,755.17,765.19,59.57,-882.32,523.93,-0.27,1.66,1.08,-111.01,5987,0,64,-11.1431,-5.2139,-352.738,9734.48,39365.9,3222.72,-395.399,-27.5988,0
29964,777.83,768.43,759.28,755.05,765.15,47.85,-880.37,531.74,0.75,1.95,0.52,-109.3,5994,0,64,-6.76758,0.675995,-387.801,8673.87,43073.9,4496.58,-395.928,-22.3671,0
29998,777.5,768.42,759.27,755.11,765.08,46.88,-874.51,525.88,-1.92,2.95,1.13,-109.18,6001,0,64,-5.20203,-0.804914,-389.134,7621.77,42696.5,4338.82,-397.278,-19.5864,0
30032,777.22,768.35,759.19,755.04,764.95,47.36,-863.77,522.46,-1.16,0.79,1.37,-108.65,6007,0,64,-2.01825,-2.2671,-392.542,7348.02,42995.9,4381.26,-397.468,-18.7193,0
30067,777.2,768.26,759.2,755.03,764.92,48.34,-878.42,516.11,-1.68,1.14,1.54,-107.63,6014,0,64,1.53848,0.661529,-395.313,5419.1,42926.3,5087.99,-398.412,-13.7081,0
30101,777.24,768.32,759.19,754.93,764.92,47.85,-864.26,537.6,0.38,3.98,3.66,-106.82,6021,0,64,2.73052,0.281038,-390.871,2915.98,41824.1,5039.65,-399.998,-7.46046,0
30135,777.32,768.32,759.19,755.01,764.96,48.83,-866.7,525.88,-0.47,3.03,1.16,-108.33,6028,0,64,7.85903,3.19251,-390.722,822.65,41952.9,5665.74,-399.628,-2.10492,0
30170,777.34,768.36,759.16,755,764.96,46.39,-866.7,531.74,0.27,-0.61,0.61,-109.23,6035,0,64,9.05474,3.77468,-380.651,-684.773,40819.2,5784.37,-399.765,1.79931,0
30204,777.39,768.41,759.2,755.11,765.03,52.73,-875.49,525.88,0.21,0.79,1.06,-110.5,6042,0,64,12.8407,5.66633,-376.059,-1997.16,40556.9,6157.67,-399.153,5.31056,0
30238,777.45,768.47,759.23,755.06,765.05,40.53,-872.56,533.2,2.06,1.22,-1.53,-109.57,6049,0,64,13.1446,8.88086,-374.973,-3966.29,40193.2,6389.43,-399.81,10.5785,0
30272,777.4,768.33,759.19,755.09,765,46.39,-882.81,531.25,-0.21,-0.6,-1.86,-110.01,6055,0,64,13.97,10.5166,-365.587,-5386.01,39094.5,6428.53,-400.064,14.7325,0
30307,777.39,768.26,759.22,755.09,764.99,45.9,-868.65,533.2,0.87,-0.76,0.54,-108.45,6062,0,64,14.795,10.5127,-363.904,-5735.82,38995.4,6743.62,-399.842,15.7619,0
30341,777.5,768.29,759.21,755.05,765.01,60.55,-859.86,522.46,-1.88,-0.32,0.56,-108.8,6069,0,64,14.744,9.53395,-362.483,-5695.64,38833.3,6890.68,-399.869,15.7128,0
30375,777.51,768.24,759.15,755.06,764.99,53.71,-881.35,523.44,-1.49,2.07,-1.18,-110.22,6076,0,64,17.084,9.82799,-351.101,-5982.72,37637.3,6768.85,-399.802,17.04,0
30410,777.69,768.3,759.17,755,765.04,56.15,-865.23,528.32,2.56,1.98,0.86,-109.85,6083,0,64,17.7896,8.8333,-350.308,-5712.78,37470.2,6635.14,-400.037,16.308,0
30444,777.74,768.16,759.15,754.98,765.01,62.99,-861.33,525.88,0.39,1.18,-0.23,-108.99,6090,0,64,15.5222,4.91667,-351.16,-5189.18,37401.9,6251.27,-400.49,14.7774,0
30478,777.85,768.1,759.14,754.96,765.01,54.2,-869.14,537.6,-0.71,2.36,0.22,-108.97,6097,0,64,16.2578,5.10317,-347.931,-4889.89,37009.5,6634.44,-400.63,14.0543,0
30512,777.98,768.07,759.12,754.9,765.02,55.18,-864.26,532.23,-0.63,1.85,3.63,-108.71,6103,0,64,15.3053,5.51441,-353.497,-4524.88,37518.2,6868.97,-400.866,12.8004,0
30547,778.16,768.14,759.13,754.95,765.09,49.8,-867.19,529.3,0.69,3.74,-0.3,-110.45,6110,0,64,15.4514,6.47485,-349.232,-4360.2,36974.4,7152.24,-401.127,12.4851,0
30580,778.24,768.06,759.06,754.95,765.08,49.32,-855.47,532.71,-1.5,-0.21,-0.25,-111.71,6117,0,64,19.2156,3.54652,-357.72,-3632.5,38176,6715.31,-400.28,10.1546,0
30616,778.21,768.01,758.95,754.89,765.02,56.15,-874.51,531.74,-1.55,2.29,1.4,-113.03,6124,0,64,18.6256,4.06018,-358.422,-3821.79,38112.7,6715.54,-400.665,10.6629,0
30649,778.28,768.07,759.07,754.87,765.07,51.76,-867.68,534.67,0.56,-0.92,-0.02,-110.45,6131,0,64,19.6677,3.10004,-360.401,-3556.93,38346.5,6328.79,-400.601,9.86944,0
30683,778.31,768.09,759.04,754.93,765.09,50.29,-871.09,529.79,-2.3,1.92,-0.3,-112.49,6138,0,64,20.4483,2.04124,-363.347,-3061.9,38599.4,6116.81,-400.767,8.42671,0
30717,778.38,768.14,758.94,754.89,765.09,57.13,-868.16,514.65,-0.53,1.72,0.31,-114.95,6144,0,64,17.8355,-0.0578057,-352.086,-2627.5,37126.7,5686.69,-401.552,7.46259,0
30751,778.38,768.17,758.85,754.85,765.06,52.73,-875,524.9,-2.61,1.73,-1.03,-116.99,6151,0,64,18.2391,-2.59378,-356.126,-1793.1,37487.9,5349.87,-401.734,5.03502,0
30785,778.2,768.21,758.84,754.78,765.01,48.83,-856.45,526.37,-2.58,2.68,1.59,-115.86,6158,0,64,16.4683,-3.6846,-356.579,-1469.92,37479.1,5092.32,-401.893,4.12228,0
30819,778.42,768.23,758.79,754.79,765.06,63.96,-870.61,524.9,-1.81,1.8,0.4,-118.18,6165,0,64,14.8926,-3.95972,-344.557,-1643.66,35835.6,4693.02,-402.995,4.77033,0
30853,778.93,768.32,758.67,754.81,765.18,51.27,-879.88,528.32,-3.02,-0.78,-1.63,-123.95,6172,0,64,14.1922,-1.62104,-354.281,-1955.8,36841.3,4941.28,-403.011,5.5203,0
30887,779.32,768.38,758.7,754.81,765.3,60.55,-879.39,519.53,0.12,0.44,-0.82,-124.91,6178,0,64,11.4636,0.127418,-359.642,-2823.01,37213.7,5404.31,-403.526,7.84929,0
30921,779.42,768.33,758.62,754.74,765.28,56.64,-873.05,530.27,0.02,2.57,0.61,-126.05,6185,0,64,8.24974,0.852732,-364.805,-3414.83,37439.7,5187.34,-404.371,9.36055,0
30955,779.31,768.18,758.59,754.79,765.22,52.73,-861.33,520.02,0.52,1.44,-0.03,-125.88,6192,0,64,5.43103,3.32176,-379.753,-5022.88,38744.1,5532.35,-404.976,13.2263,0
30989,779.17,768.03,758.48,754.73,765.1,57.62,-873.54,519.04,-1.98,1.47,0.65,-125.91,6199,0,64,0.683536,4.45982,-388.899,-5533.86,39680.1,6015.77,-404.968,14.2296,0
31023,779.13,767.87,758.45,754.67,765.03,47.85,-869.63,520.51,0.86,0.17,3.02,-124.29,6206,0,64,-4.65078,4.8582,-375.131,-6261.96,37660.2,6201.9,-406.608,16.6927,0
31057,779.59,767.74,758.38,754.61,765.08,51.76,-855.47,523.44,-0.46,1.79,0.14,-125.68,6212,0,64,-11.2029,6.62335,-376.417,-5609.52,37492.6,6374.07,-407.396,14.9026,0
31091,779.9,767.66,758.38,754.6,765.13,50.78,-880.37,524.41,0.98,0.05,-0.84,-126.07,6219,0,64,-15.2249,6.24405,-380.434,-4020.85,38007.8,6261.27,-407.094,10.569,0
31126,779.47,767.5,758.23,754.62,764.95,61.52,-881.35,522.95,-1.94,1.76,-0.72,-127.24,6226,0,64,-18.5894,5.47953,-367.264,-3360.73,36748.4,5934.43,-406.941,9.1506,0
31160,779.47,767.57,758.16,754.63,764.96,61.04,-874.02,515.62,0.72,2.6,1.13,-129.7,6233,0,64,-22.6606,4.14719,-351.311,-2848.05,34918.8,5358.07,-407.604,8.10684,0
31194,779.4,767.46,758.11,754.5,764.87,50.29,-863.77,507.81,0.27,2.24,-0.87,-127.88,6240,0,64,-25.9232,2.30448,-336.535,-2388.59,33297.5,4630.12,-408.058,7.09756,0
31229,779.36,767.49,758.08,754.48,764.85,55.18,-861.82,526.86,-1.43,-0.26,1.93,-128.47,6247,0,64,-29.4478,-0.567897,-331.026,-1837.18,32690.1,4364.47,-408.247,5.54989,0
31263,778.6,767.53,758.11,754.54,764.7,51.76,-880.37,508.79,3.67,3.11,-0.66,-126.5,6254,0,64,-31.4567,-2.74309,-315.021,-1642.97,30894.7,3748.23,-408.928,5.21536,0
31297,777.59,767.64,758.2,754.63,764.51,42.48,-864.75,522.46,3.44,2.08,2.75,-122.81,6260,0,64,-32.3248,-4.37178,-298.086,-2059.26,28900.6,3277.63,-410.046,6.90848,0
31331,775.37,767.68,758.17,754.72,763.99,49.32,-870.12,524.41,3.98,2.66,0.98,-117.58,6267,0,64,-34.0605,-6.63309,-282.4,-2219.3,27090.8,2634.7,-411.07,7.85921,0
31366,771.97,767.83,758.23,754.79,763.21,72.75,-871.09,516.6,2.59,4.57,0.87,-106.87,6274,0,64,-36.2698,-5.94072,-271.466,-2743.02,25685.8,2668.91,-412.381,10.1045,0
31400,770.25,767.65,758.2,754.8,762.72,43.95,-843.75,524.9,-2.21,3.11,1.34,-100.18,6281,0,64,-33.3221,-2.07696,-264.56,-2655.64,25298.1,2661.21,-411.376,10.0372,0
31434,770.47,767.17,758.04,754.47,762.54,49.32,-871.09,525.88,-5.82,-0.34,-0.1,-96.26,6288,0,64,-20.3204,2.31283,-254.797,-480.565,25973.5,2558.95,-405.062,1.88465,0
31469,771.17,766.87,757.8,754.39,762.56,62.5,-900.39,517.58,-3.57,3.3,-1.26,-101.1,6295,0,64,-15.9588,-6.21947,-244.299,2508.61,25480.2,1769.35,-402.701,-10.2667,0
31503,771.31,766.24,757.51,754.19,762.31,52.25,-877.44,533.69,-5.28,3.53,-1.47,-100.93,6302,0,64,-18.3962,-26.1862,-282.695,5742.43,29423.4,363.998,-402.915,-20.3058,0
31537,771.45,765.89,757.15,753.92,762.1,51.76,-893.55,472.17,-14.82,1.44,1.56,-103.53,6308,0,64,-34.7717,-37.084,-344.772,7847.97,35505.7,-1382.8,-404.017,-22.7658,0
31573,773.19,765.86,756.94,753.66,762.41,45.9,-870.61,504.39,-5.99,-3.34,0.99,-110.7,6316,0,64,-32.2932,-5.80274,-354.34,2767.17,36935.3,1732.76,-402.762,-7.8044,0
31607,776.74,766.24,757.03,753.75,763.44,38.57,-860.84,518.07,5.9,0.25,2.4,-124.78,6322,0,64,-23.9015,4.95175,-319.097,-1136.58,33533.5,3667.24,-401.912,3.56523,0
31641,780.43,766.23,757,753.72,764.34,44.43,-883.3,499.51,-5.27,-0.3,-2.57,-137.77,6329,0,64,-19.891,9.57703,-286.72,-4218.06,29838.7,4628.08,-402.931,14.7135,0
31676,781.64,766.18,757.09,753.62,764.64,36.13,-905.76,494.14,7.66,0.69,-0.59,-137.97,6336,0,64,-21.9876,12.3854,-274.566,-5856.48,28100.9,4830.83,-404.653,21.33,0
31710,783.65,765.84,757.05,753.45,765,55.18,-876.46,506.35,1.66,2.37,-2.8,-140.55,6343,0,64,-24.8731,6.69683,-276.365,-4612.1,28149.6,3964.05,-405.144,16.6887,0
31744,784.12,764.91,756.86,753.29,764.8,53.22,-852.05,530.76,-2.4,1.52,-1.84,-137.2,6350,0,64,-25.5544,-1.03897,-282.313,-3341.04,28725,2979.49,-405.252,11.8347,0
31778,785.88,764.67,756.79,753.07,765.1,79.1,-908.2,490.23,5.14,0.58,-1.31,-139.81,6357,0,64,-25.6818,-3.53993,-289.141,-3184.91,29534.1,2399.38,-404.856,11.015,0
31813,786.52,764.49,756.83,753.14,765.25,55.66,-862.79,528.81,5.79,-0.23,-0.4,-140.41,6364,0,64,-26.1157,0.460091,-296.539,-3836.21,30536.1,2839.94,-404.025,12.9365,0
31847,786.15,764.43,756.88,753.05,765.13,91.8,-893.07,509.28,5,1.31,-2.56,-136.09,6370,0,64,-25.4176,4.26632,-304.386,-5087,31406.6,3682,-403.82,16.7119,0
31881,786.89,764.56,756.92,753.17,765.39,66.89,-862.79,517.09,9.02,0.56,-1.71,-140.52,6377,0,64,-25.7652,5.26562,-312.105,-5972.14,32156,4273.13,-403.97,19.1351,0
31916,787.35,764.63,756.99,753.21,765.55,68.36,-883.79,532.71,7.58,-0.76,-0.08,-141.38,6384,0,64,-28.7225,3.80587,-320.939,-5878.51,32938.7,4041.11,-404.368,18.3166,0
31950,788.3,764.77,757.1,753.16,765.83,77.15,-865.72,508.3,8.69,-0.82,-1.39,-142.23,6391,0,64,-28.4777,0.952587,-324.958,-5620.07,33466,3769.17,-404.015,17.2948,0
31984,788.58,764.81,757.16,753.08,765.91,64.94,-888.18,515.14,3.45,0.08,0.34,-141.02,6398,0,64,-26.9566,-3.86874,-326.458,-4775.68,33704.4,3145.31,-403.758,14.6288,0
32018,787.92,764.92,757.11,753.04,765.75,92.77,-891.6,504.88,5.66,2.14,0.22,-140.17,6405,0,64,-29.428,-7.54762,-328.701,-4613.09,33834.3,2621.59,-404.067,14.0343,0
32053,787.21,764.98,757.22,753.17,765.65,63.96,-876.46,519.04,1.83,-0.79,-0.97,-137.38,6412,0,64,-30.2762,-7.9316,-329.328,-5180.37,33736.7,2584.06,-404.559,15.7302,0
32087,787.06,765.13,757.46,753.26,765.73,76.66,-895.51,498.54,7.83,-3.78,1.52,-133.42,6418,0,64,-29.3193,-6.2164,-326.829,-6146.06,33390,3100.8,-404.836,18.8054,0
32121,786.22,765.3,757.77,753.39,765.67,74.71,-857.42,558.59,12.11,-3.05,2.82,-126.26,6425,0,64,-27.8973,-3.60667,-317.58,-7602.46,32257.7,3280.88,-405.427,23.9393,0
32155,785.12,765.41,758.21,753.58,765.58,70.8,-865.23,548.34,8.56,3.14,2.14,-115.12,6432,0,64,-27.9464,-1.36853,-304.734,-9153.32,30759,3648.32,-406.063,30.0376,0
32189,784.19,765.8,758.72,753.94,765.66,48.83,-825.2,551.27,8.52,2.16,1.58,-107.72,6439,0,64,-27.2771,-0.315597,-293.982,-10160.1,29316.2,3608.9,-407.279,34.5606,0
32223,782.84,766.25,759.21,754.39,765.67,60.55,-846.68,546.39,11.72,6.92,-0.31,-100.9,6446,0,64,-26.3535,-0.50395,-288.005,-10856.7,28626.1,3633.33,-407.606,37.6962,0
32257,781.7,766.69,759.65,754.81,765.71,60.06,-842.77,573.24,5.45,2.65,-0.89,-96.04,6452,0,64,-26.2395,0.851535,-287.507,-11635.3,28441.5,3906.14,-408.075,40.4696,0
32290,780.38,766.79,759.83,755.15,765.54,53.22,-827.15,572.27,5.65,4.38,0.79,-92.66,6459,0,64,-26.4832,2.84714,-286.663,-12478.8,28113.7,4119.28,-408.928,43.5314,0
32324,779.31,766.94,760.04,755.38,765.42,73.24,-853.52,542.97,1.56,2.76,-1.24,-88.5,6466,0,64,-26.4322,3.73414,-285.579,-12904,27969.3,4289,-409.061,45.1854,0
32358,778.87,767.33,760.43,755.6,765.56,68.85,-863.28,547.85,7.03,3.66,2.03,-83.57,6473,0,64,-26.7633,3.16485,-287.938,-12787.2,28153.2,4130.81,-409.225,44.4096,0
32392,777.9,767.72,760.79,756,765.6,57.62,-828.61,582.03,4,2.75,1.92,-80.14,6479,0,64,-27.0753,1.77622,-293.449,-12470.7,28815.7,3983.11,-408.803,42.4971,0
32426,777.1,768.25,761,756.25,765.65,55.18,-859.86,561.52,3.37,3.55,1.5,-80.02,6486,0,64,-27.2957,-0.215789,-300.992,-11962.9,29665.8,3945.18,-408.44,39.7453,0
32460,776.38,768.58,761.19,756.42,765.64,51.27,-835.94,582.52,1.49,3.69,1.18,-78.21,6493,0,64,-28.1571,-1.75386,-307.318,-11567.7,30341.5,3660.74,-408.27,37.6411,0
32494,776.22,768.81,761.35,756.59,765.74,58.11,-837.89,581.54,1.4,2.88,1.34,-77.84,6500,0,64,-28.5311,-1.8402,-313.438,-11319.1,31028.7,3621.59,-408.006,36.113,0
32530,776.34,769.14,761.37,756.61,765.86,52.25,-837.89,572.75,-0.49,2.31,-0.46,-80.89,6507,0,64,-29.2847,-2.18694,-320.933,-10761.2,31842.6,3443.9,-407.781,33.531,0
32564,775.91,769.73,761.39,756.63,765.92,68.36,-848.63,566.89,2.07,2.5,1.84,-83.84,6514,0,64,-30.1454,-2.55458,-332.586,-10132.4,33240.3,3461.14,-407.055,30.4656,0
32598,775.97,769.91,761.33,756.71,765.98,54.69,-845.21,551.76,3.2,0.78,1.51,-88.09,6521,0,64,-30.1971,-3.13691,-340.119,-9765.7,34056.4,3357.69,-406.869,28.7126,0
32632,776.05,770.15,761.37,756.72,766.07,37.6,-834.47,581.54,3.58,2.39,-0.33,-89.59,6527,0,64,-30.7293,-3.80032,-341.357,-9446.57,34256.5,3414.65,-406.646,27.6736,0
32666,775.6,770.5,761.58,756.93,766.15,45.41,-846.19,539.55,1.43,3.12,0.63,-88.69,6534,0,64,-30.5642,-3.35441,-339.784,-9342.39,34055.5,3424.64,-406.773,27.4951,0
32700,775.67,770.58,761.56,756.96,766.19,47.36,-849.12,578.61,0.02,2.13,0.69,-90.58,6541,0,64,-30.089,-2.17823,-334.854,-9431.62,33538.3,3631.11,-406.842,28.1664,0
32735,776.16,770.57,761.4,756.92,766.26,52.25,-831.05,585.45,-1.57,-2.24,0.59,-95.47,6548,0,64,-29.0758,-0.102572,-329.462,-9423.03,32932.2,3917.22,-407.042,28.6013,0
32769,775.87,770.51,761.26,756.65,766.07,47.36,-849.61,567.87,-1.95,-0.46,0.85,-93.61,6555,0,64,-29.3266,0.469917,-325.846,-9614.39,32543.3,3936.63,-407.127,29.506,0
32803,775.43,770.28,761.03,756.58,765.83,49.8,-834.47,578.61,-3,2.62,3.7,-95.02,6562,0,64,-28.9789,1.16205,-322.718,-9603.26,32309.8,4046.63,-406.882,29.7575,0
32837,774.88,770.1,760.79,756.44,765.55,44.92,-827.64,582.03,-4.05,6.41,3.37,-95.47,6568,0,64,-28.8061,1.16617,-320.232,-9597.05,32031.2,3977.09,-406.975,29.9691,0
32872,774.02,770.19,760.74,756.37,765.33,44.92,-847.66,564.45,-2.64,3.96,0.67,-93.26,6575,0,64,-28.4738,1.17898,-317.966,-9219.39,31868.4,3887.27,-406.774,28.9949,0
32906,773.56,770.08,760.62,756.35,765.15,58.11,-862.3,562.99,-1.21,3.83,1.52,-93.73,6582,0,64,-28.4539,1.02383,-316.005,-9143.62,31692,3807.95,-406.71,28.935,0
32940,774.14,769.85,760.18,756.04,765.05,41.02,-824.71,567.38,-3.98,1.85,-0.04,-100.27,6589,0,64,-28.3499,0.580436,-315.127,-9017.19,31576.1,3784.02,-406.799,28.6144,0
32975,774.69,769.63,759.82,755.79,764.98,56.64,-853.52,563.96,-6.99,0.47,2.8,-105.52,6596,0,64,-28.5528,0.450874,-317.35,-8942.95,31817.5,3711.76,-406.74,28.1801,0
33009,775.4,769.4,759.6,755.71,765.02,36.13,-848.14,560.06,-4.95,1.11,2.27,-110.48,6603,0,64,-28.4287,0.431782,-319.548,-9054.61,32039.7,3701.02,-406.735,28.3357,0
33043,776.54,769.04,759.32,755.53,765.11,42.48,-841.8,551.27,-7.79,-1.27,-0.57,-115.78,6610,0,64,-28.5965,0.635987,-320.714,-9030.02,32157.5,3680.23,-406.731,28.156,0
33077,778.06,768.41,759,755.14,765.15,43.46,-846.19,547.36,-6.27,-2.37,-0.6,-118.25,6616,0,64,-29.0362,0.40333,-322.193,-9049.68,32298.3,3615.54,-406.755,28.0878,0
33112,779.56,767.99,758.82,754.76,765.28,48.83,-864.26,536.62,-6.67,-2.37,0.8,-118.83,6623,0,64,-28.5801,0.439575,-322.454,-9196.04,32363.5,3748.3,-406.634,28.5189,0
33146,780.12,767.65,758.86,754.67,765.32,54.69,-858.89,543.46,-4.58,-2.82,0.32,-115.82,6630,0,64,-28.7283,-0.0182975,-323.977,-9122.65,32456.7,3647.89,-406.818,28.1583,0
33180,780.64,767.42,758.94,754.6,765.4,45.9,-882.32,522.95,-3.78,-3.24,0.21,-112.65,6637,0,64,-29.207,-0.639241,-327.624,-9012.33,32914.6,3489.65,-406.535,27.5082,0
33214,780.26,767.18,758.97,754.52,765.23,63.48,-861.33,530.76,-5.88,-3.47,-1.27,-107.5,6644,0,64,-29.7829,-1.74956,-330.382,-8954.23,33221.8,3386.84,-406.444,27.1027,0
33249,779.05,766.96,759.04,754.4,764.86,62.99,-856.45,527.83,-7.45,1.34,0.44,-98.21,6651,0,64,-30.0364,-2.76287,-334.394,-8878.37,33568.2,3424.98,-406.615,26.5506,0
33283,776.77,766.71,758.9,754.22,764.15,62.01,-875.98,530.76,-7.63,-1.27,-1.96,-89.13,6658,0,64,-30.1135,-3.40767,-338.453,-8953.94,34025.3,3395.26,-406.468,26.4555,0
33317,773.74,766.61,758.71,754.13,763.3,67.87,-873.54,535.16,-5.11,1.39,-1.73,-81.39,6664,0,64,-30.1081,-3.28738,-339.375,-9165.14,34206.1,3461.28,-406.209,27.006,0
33352,772.47,766.5,758.53,754.09,762.9,47.85,-848.14,555.18,-8.98,3.4,2.89,-80.03,6671,0,64,-30.0483,-2.63907,-336.092,-9641.17,33701.2,3474.24,-406.726,28.6863,0
33386,772.43,766.51,758.35,754.05,762.84,67.38,-916.5,471.68,-9.13,3.27,1.96,-83.74,6678,0,64,-29.8948,-1.06779,-331.443,-10262.6,32992.8,3613.13,-407.457,30.9634,0
33420,775.11,766.13,758.55,754.18,763.49,36.62,-889.16,505.37,18.44,0.61,-4.44,-87.01,6685,0,64,-29.5222,-0.724928,-325.833,-10797.6,32363.1,3693.31,-407.676,33.1385,0
33454,777.68,766.06,758.79,754.31,764.21,48.34,-851.07,535.64,-6.63,-4.31,-0.41,-91.07,6692,0,64,-29.1854,-0.423926,-321.124,-11325.8,31934,3969.15,-407.556,35.2696,0
33490,778.84,766.17,758.97,754.33,764.58,58.59,-860.84,538.09,-0.48,0.02,-0.07,-91.71,6699,0,64,-28.8022,0.765706,-317.524,-12191.1,31450.3,4124.98,-407.952,38.3944,0
33525,780.34,766.75,758.92,754.22,765.06,45.41,-840.82,532.23,-11.52,-2.04,2.62,-101.3,6706,0,64,-28.5106,2.26174,-314.221,-13136.1,30885.6,4230.81,-408.707,41.8057,0
33559,780.26,767.52,759.24,754.47,765.37,88.87,-934.08,491.21,4.15,0.69,2.57,-102.99,6713,0,64,-28.7516,4.04389,-309.59,-14280.8,30250.3,4452.01,-409.289,46.1283,0
33593,777.4,768.42,760.49,755.22,765.38,51.27,-862.79,548.34,30.43,6.69,2.57,-80.13,6720,0,64,-27.9338,6.24306,-305.826,-14997.7,29666.6,4763.18,-409.995,49.0398,0
33627,774.47,768.94,761.97,755.89,765.32,44.43,-821.29,564.94,16.97,3.76,2.95,-47.23,6726,0,64,-27.3279,6.48698,-302.544,-15195.2,29332.8,4787.7,-410.047,50.2248,0
33662,772.04,769.26,762.63,756.36,765.08,65.43,-860.84,541.99,5.66,3.16,0.75,-31.99,6733,0,64,-27.1495,6.08577,-301.602,-14979.3,29296.8,4670.66,-409.863,49.6658,0
33696,771.09,769.47,762.93,756.53,765.01,48.34,-837.89,570.31,0.92,3.18,-0.32,-25.4,6740,0,64,-27.2703,5.3902,-303.694,-14496,29646.6,4554.96,-409.38,47.7324,0
33730,771.56,769.47,762.72,756.51,765.06,46.39,-847.17,550.29,-4.1,0.77,-2.13,-31.95,6747,0,64,-27.5963,4.59493,-305.009,-13845,29761.1,4489,-409.426,45.392,0
33764,771.84,769.32,762.4,756.37,764.98,65.92,-875,537.6,-4.44,3.89,0.59,-37.7,6754,0,64,-26.9195,4.05939,-303.318,-13371.5,29721.4,4159.06,-409.012,44.0843,0
33798,771.81,769.33,762.51,756.55,765.05,61.04,-854.98,540.53,2.16,2.92,0.39,-37.63,6761,0,64,-26.359,3.05414,-300.834,-12697.8,29602.3,4039.66,-408.599,42.2087,0
33832,771.47,769.27,762.59,756.62,764.99,55.18,-851.56,558.11,3.72,0.14,0.44,-34.96,6767,0,64,-25.501,2.18687,-302.045,-12239.1,29824.2,3964.47,-408.259,40.5208,0
33866,771.28,769.32,762.55,756.77,764.98,50.78,-853.52,571.78,0.4,2.24,0.92,-37.8,6774,0,64,-25.2665,1.30389,-305.269,-11816.1,30201.9,3972.98,-408.065,38.7073,0
33899,771.63,769.16,762.47,756.71,765,31.25,-846.68,551.76,0.4,0.6,-1,-38.84,6781,0,64,-25.9926,0.880767,-312.34,-11562.7,30853.9,4092.82,-408.217,37.0196,0
33933,772.35,769.23,762.48,756.67,765.18,56.15,-858.89,548.83,0.86,-1.27,-1.85,-41.1,6788,0,64,-26.4981,0.339588,-314.647,-11346,31053.7,4108.39,-408.306,36.0594,0
33967,773.08,769,762.34,756.69,765.28,46.39,-846.19,568.36,-1.13,0.91,-1.53,-45.53,6794,0,64,-26.9111,1.10406,-315.449,-11109.5,31023.4,4290.36,-408.653,35.2182,0
34001,773.78,768.99,762.21,756.62,765.4,49.8,-841.8,556.15,-1.89,0.42,-2.54,-49.97,6801,0,64,-27.2346,3.11483,-311.254,-10949.7,30457.4,4521.38,-409.146,35.1792,0
34035,774.34,768.86,762.05,756.57,765.46,51.76,-859.37,548.83,-0.34,0.96,5.46,-54.21,6808,0,64,-26.1967,6.21585,-300.492,-10678.3,29294.3,4728.49,-409.512,35.5358,0
34069,775,768.75,762,756.53,765.57,67.38,-859.37,538.09,0.03,0.44,-0.93,-56.15,6815,0,64,-25.6922,7.72905,-292.679,-9431.75,28620.4,4753.9,-409.213,32.2251,0
34103,775.22,768.59,761.97,756.39,765.54,46.39,-858.4,555.66,-0.29,3.35,-1.22,-54.2,6822,0,64,-24.7576,5.55023,-286.366,-5902.32,28437.1,4086.39,-407.697,20.6109,0
34137,774.93,768.43,761.86,756.34,765.39,49.8,-863.77,554.2,2.34,4.73,3.18,-54.09,6828,0,64,-23.1318,0.365277,-285.9,-1033.67,28980.3,3137.5,-405.635,3.61498,0
34171,774.52,768.27,761.68,756.31,765.19,57.62,-843.26,555.18,0.14,-2.23,3.78,-55.31,6835,0,64,-21.6158,-3.79682,-281.235,3590.69,29509.7,1921.88,-402.071,-12.7691,0
34205,774.47,768.11,761.6,756.1,765.07,49.32,-856.45,544.43,-0.71,-0.19,1.47,-52.79,6842,0,64,-20.0436,-3.91738,-272.409,6661.02,29072.1,1329.31,-400.278,-24.4534,0
34239,774.59,767.99,761.52,756.07,765.04,60.06,-846.68,547.85,0.51,0.89,0.52,-53.85,6849,0,64,-21.8236,-1.29356,-264.364,8511.12,28315.3,1450.5,-399.893,-32.1949,0
34273,774.41,767.9,761.46,755.92,764.92,69.34,-852.54,541.5,-1.82,3.81,-0.34,-51.81,6856,0,64,-22.8361,1.88297,-261.618,9172.33,28104.5,1752.8,-399.575,-35.0598,0
34308,774.24,767.77,761.32,755.95,764.82,55.18,-867.68,552.73,0.3,2.27,-1.73,-54.13,6863,0,64,-22.4163,-1.45346,-269.145,10964.6,29273.9,1723.15,-398.234,-40.7379,0
34342,774.01,767.76,761.3,755.84,764.73,52.73,-861.82,540.53,-2.24,-0.37,2.15,-52.08,6869,0,64,-21.0826,-5.78617,-280.38,12472.9,30853.8,1264.54,-396.957,-44.4858,0
34376,774.16,767.63,761.21,755.85,764.71,43.46,-849.12,556.64,0.56,1.89,-1.69,-54.18,6876,0,64,-21.8119,-4.57262,-291.64,12659,32113,1436.11,-396.888,-43.4064,0
34411,774.37,767.56,761.23,755.83,764.75,64.94,-838.87,551.27,1.81,2.11,-1.05,-53.32,6883,0,64,-19.4866,-3.40829,-292.351,11427.1,32145,1588.35,-397.047,-39.0869,0
34447,774.6,767.48,761.16,755.89,764.78,65.92,-857.91,546.39,0.13,-1.02,-0.4,-56.06,6890,0,64,-19.3079,-1.99914,-297.984,9982.81,32667.5,1467.22,-397.372,-33.5022,0
34481,774.71,767.38,761.16,755.82,764.77,54.2,-859.86,545.41,-1.76,0.11,-1.5,-54.79,6897,0,64,-18.883,0.43434,-325.926,9797.83,36054.1,2155.73,-396.379,-30.0605,0
34515,774.95,767.42,761.11,755.79,764.82,48.83,-847.17,540.53,-0.47,3.27,0.71,-56.75,6904,0,64,-18.2441,0.989088,-312.685,8045.27,34443.8,1780.14,-396.845,-25.7293,0
34549,775.28,767.32,761.18,755.84,764.9,47.85,-867.19,551.27,-1.34,0.56,-0.75,-55.82,6911,0,64,-17.4457,3.13975,-325.205,7358.47,35908.8,2174.25,-396.582,-22.6275,0
34584,775.64,767.23,761.04,755.69,764.9,57.13,-855.47,542.48,-0.47,0.7,-0.76,-57.69,6918,0,64,-14.6026,-0.111085,-324.708,7062.85,35940.4,2083.41,-396.315,-21.7514,0
34618,775.75,767.1,761.03,755.68,764.89,56.15,-851.07,551.27,2.92,-0.24,-2.9,-57.18,6925,0,64,-13.0902,-1.66574,-315.811,6569.96,34913.9,2172.03,-396.447,-20.8034,0
34652,775.71,767,760.97,755.52,764.8,57.13,-848.14,560.55,-1.28,0.43,0.73,-55.46,6931,0,64,-12.3099,-1.09495,-324.271,6803.15,35873,2633.33,-396.373,-20.9798,0
34686,775.8,766.94,760.96,755.52,764.81,55.18,-862.79,544.43,-0.15,-1.1,0.43,-55.5,6938,0,64,-10.9627,-3.27934,-329.308,7041.09,36263.6,2832.98,-396.879,-21.3813,0
34721,775.88,766.95,760.93,755.54,764.83,60.06,-852.05,545.9,0.85,0.71,-3.47,-56.84,6945,0,64,-8.97335,-0.751311,-336.143,7287.77,36789.7,3625.84,-397.553,-21.6804,0
34755,775.96,766.88,760.92,755.5,764.82,62.01,-855.47,542.48,1.37,0.66,-0.52,-56.27,6952,0,64,-7.83235,1.1987,-362.179,8607.78,39462.2,4487.39,-398.042,-23.7665,0
34789,776.03,766.93,760.95,755.44,764.84,67.87,-846.68,555.18,-2.85,1.48,1.9,-55.36,6959,0,64,-7.37709,-2.78994,-357.248,8989.22,38352.9,4060.2,-399.643,-25.1624,0
34824,776,766.84,760.91,755.45,764.8,61.52,-855.47,545.41,-1.63,0.71,0.82,-55.61,6966,0,64,-4.73386,-4.18803,-364.345,9139.1,39076,4243.67,-399.75,-25.0841,0
34858,776,766.78,760.84,755.44,764.77,69.34,-860.35,550.78,0.79,-0.89,1.82,-56.7,6973,0,64,-0.760408,-2.8686,-363.658,6725.09,38644.4,4865.66,-400.734,-18.4925,0
34892,775.93,766.66,760.89,755.41,764.72,58.11,-851.56,544.43,0.06,3.46,-0.25,-53.77,6979,0,64,-1.36897,0.728484,-359.042,3606.94,37650.5,5403.93,-402.136,-10.0466,0
34926,775.9,766.66,760.86,755.4,764.71,68.85,-849.12,545.41,-1.48,1,1.21,-54.33,6986,0,64,2.59872,5.58979,-362.231,953.274,37864.4,6313.71,-402.469,-2.63136,0
34961,775.97,766.6,760.79,755.34,764.68,61.04,-851.56,541.5,-0.4,0.43,-2.92,-55.02,6993,0,64,5.60368,7.82362,-355.193,-1240.83,37272.9,6714.92,-402.063,3.49332,0
34995,776,766.57,760.83,755.35,764.69,51.27,-858.89,549.8,1.35,2.83,2.25,-53.9,7000,0,64,6.28523,9.19004,-362.525,-2786.68,38302.3,6902.01,-401.346,7.68667,0
35029,776.07,766.52,760.76,755.28,764.66,69.82,-851.07,563.48,-0.04,4.05,1.81,-54.47,7007,0,64,8.52315,10.2954,-363.511,-4737.08,38339.2,6648.33,-401.531,13.0314,0
35063,776.31,766.54,760.74,755.26,764.71,72.27,-849.61,539.55,-0.65,0.94,1.59,-55.71,7014,0,64,8.5222,12.6846,-363.142,-6176.94,38351.4,7047.24,-401.39,17.0099,0
35098,776.25,766.47,760.7,755.17,764.65,66.89,-856.45,547.85,-0.01,0.01,0.78,-54.58,7021,0,64,7.2432,10.6797,-357.602,-6765.38,37634.3,6567.3,-401.759,18.9188,0
35132,776.34,766.52,760.69,755.2,764.68,53.71,-852.54,554.69,0.2,2.33,1.51,-55.92,7027,0,64,10.8744,8.63646,-349.427,-7056.79,37003.5,6364.42,-401.102,20.1954,0
35166,776.47,766.44,760.64,755.23,764.7,59.08,-856.45,550.29,-0.69,-0.41,0.52,-57.42,7034,0,64,9.92604,9.32608,-344.663,-7312.89,36727.8,6372.83,-400.439,21.2175,0
35201,776.64,766.43,760.67,755.25,764.75,56.15,-853.03,540.53,-0.5,3.15,0.01,-57.51,7041,0,64,10.6602,8.70177,-335.313,-7747.57,35815.1,5994.89,-400.189,23.1055,0
35235,776.64,766.44,760.64,755.17,764.72,46.39,-844.73,551.27,0.96,1.66,0.6,-57.08,7048,0,64,10.4925,10.809,-336.14,-8180.12,35781.4,6436.29,-400.552,24.3355,0
35269,776.71,766.43,760.64,755.18,764.74,56.64,-854.98,549.8,-0.35,0.73,-1.71,-57.33,7055,0,64,8.92285,12.5092,-335.796,-8186.42,35715.7,6611.28,-400.639,24.3793,0
35303,776.64,766.45,760.62,755.25,764.74,70.8,-852.54,549.32,1.22,2.56,1.85,-58.89,7062,0,64,9.01273,10.1382,-342.917,-7642.24,36617.1,6488.15,-400.219,22.2861,0
35338,776.36,766.43,760.61,755.15,764.64,47.85,-849.12,551.27,1.13,2.17,0.69,-56.6,7069,0,64,10.9082,8.1688,-343.049,-7017.97,36631.6,6351.35,-400.218,20.4576,0
35372,776.23,766.4,760.64,755.15,764.6,60.06,-858.4,545.41,1.5,2.63,0.26,-55.13,7075,0,64,10.3479,7.95525,-341.808,-6510.4,36407.2,6414.55,-400.486,19.0471,0
35408,776.1,766.43,760.68,755.2,764.6,51.76,-859.86,533.69,0.7,2.39,0.03,-54.76,7083,0,64,11.1198,6.10805,-349.76,-5811.71,37352.8,6443.33,-400.205,16.6164,0
35442,775.94,766.45,760.62,755.28,764.57,57.13,-851.56,553.71,-0.63,2.44,1.31,-57.03,7089,0,64,10.6066,4.64273,-355.412,-5339.78,37853.5,6461.64,-400.494,15.0242,0
35475,775.79,766.45,760.62,755.27,764.53,57.62,-852.05,554.69,1.02,-0.67,3.08,-56.33,7096,0,64,11.2986,5.33542,-357.327,-4702.82,37956,6561.1,-400.778,13.1612,0
35509,775.7,766.44,760.6,755.15,764.47,66.89,-865.72,557.13,-1.42,2.9,2.92,-54.58,7103,0,64,12.6505,3.59203,-362.604,-3475.79,38783.4,6347.86,-400.042,9.58566,0
35543,775.5,766.52,760.58,755.2,764.45,61.04,-858.4,535.16,0.82,2.19,-1.66,-55.87,7110,0,64,13.438,1.19172,-361.481,-2549.32,38683.1,5596.54,-399.987,7.05244,0
35576,775.36,766.52,760.53,755.15,764.39,52.25,-854.49,551.76,-2.19,1.85,0.08,-55.95,7116,0,64,14.32,0.0188806,-362.679,-1483.56,38952.2,5219.88,-399.599,4.09053,0
35610,775.22,766.45,760.52,755.16,764.34,72.27,-853.03,545.9,-0.47,1.92,-0.04,-55.15,7123,0,64,11.3505,-0.573573,-360.009,-540.223,38372.6,4971.85,-400.412,1.50046,0
35645,775.31,766.53,760.54,755.24,764.4,64.94,-857.91,540.04,0.2,2.21,2.93,-56.8,7130,0,64,9.55767,-3.75858,-345.67,504.779,36611.9,4205.24,-401.084,-1.46038,0
35679,775.31,766.59,760.53,755.13,764.39,64.45,-858.4,545.9,-0.45,0.33,1.72,-56.12,7137,0,64,7.30076,-1.88494,-347.515,624.216,36740.1,4385.3,-401.278,-1.7962,0
35712,775.43,766.65,760.6,755.22,764.48,49.32,-849.61,542.48,0.5,2.32,0.13,-56.38,7143,0,64,5.07171,-3.28079,-348.858,725.206,36618.5,4370.39,-402.033,-2.07878,0
35746,775.53,766.72,760.6,755.31,764.54,69.82,-862.79,555.18,0.9,1.88,1.34,-58.52,7150,0,64,0.19862,-3.80376,-354.315,528.803,36706.4,4529.24,-403.402,-1.49239,0
35780,775.47,766.82,760.6,755.33,764.55,57.62,-874.51,545.41,-1.27,2.1,-1.11,-59.49,7157,0,64,-4.54398,-3.16893,-361.778,934.562,37224.3,4703.27,-404.107,-2.58325,0
35814,775.29,766.93,760.62,755.36,764.55,55.18,-869.14,540.04,1.95,3.44,2.54,-59.76,7164,0,64,-6.92046,-2.28841,-358.394,-214.473,36534.6,4989.11,-405.06,0.598198,0
35848,775.51,767.08,760.65,755.37,764.65,58.11,-862.3,542.97,-1.82,1.9,1.73,-61.14,7171,0,64,-11.2491,0.0461051,-365.193,218.914,37333.4,5531.69,-404.771,-0.599577,0
35883,775.44,767.23,760.75,755.43,764.71,58.11,-858.89,554.2,0.76,2.71,1.31,-60.52,7178,0,64,-15.1257,-1.20336,-357.238,1164.28,36302.4,5031.87,-405.381,-3.25887,0
35917,775,767.4,760.7,755.51,764.65,64.45,-851.07,547.36,-0.83,3.37,3.8,-62.81,7184,0,64,-16.4794,-0.433917,-344.997,677.083,35009.8,4824.35,-405.522,-1.96259,0
35951,774.84,767.56,760.69,755.45,764.63,46.39,-846.19,550.78,-1.45,4.44,1.59,-62.78,7191,0,64,-18.7554,-2.78507,-347.528,1264.55,35526.1,4306.84,-404.775,-3.63856,0
35985,775.12,767.74,760.71,755.53,764.77,47.85,-844.73,539.55,-1.28,0.69,-0.37,-65.91,7198,0,64,-22.1885,-3.85015,-342.121,1839.36,35171.1,3964.02,-404.197,-5.37626,0
36020,775.36,767.9,760.73,755.53,764.88,46.88,-856.45,535.64,-1.82,3.2,-1.09,-67.39,7205,0,64,-25.6139,-3.14903,-332.248,1231.76,34069.1,3819.04,-404.459,-3.70728,0
36054,775.29,767.89,760.74,755.58,764.88,57.13,-881.35,551.76,-0.61,2.1,0.75,-67.76,7212,0,64,-29.8817,-1.88281,-333.2,1204.25,34216.9,3809.04,-404.308,-3.61414,0
36088,774.98,767.85,760.75,755.61,764.8,45.41,-855.47,538.57,0.31,1.25,0.31,-66.58,7219,0,64,-33.5359,-1.57753,-329.91,911.164,33883.7,3690.15,-404.294,-2.76139,0
36122,774.78,767.8,760.74,755.58,764.72,35.16,-877.93,541.02,2.03,0.77,0.56,-65.16,7225,0,64,-34.8527,-1.40349,-321.689,-234.082,32668.3,3637.52,-405.448,0.728116,0
36157,774.64,767.77,760.67,755.54,764.66,53.22,-847.17,558.59,0.92,1.05,0.95,-65.55,7232,0,64,-34.1484,-0.78887,-302.181,-1696.09,30587.4,3344.88,-405.778,5.61377,0
36191,774.42,767.75,760.72,755.59,764.62,49.32,-865.72,541.99,1.06,0.63,3.92,-64.35,7239,0,64,-31.6866,-1.21813,-281.103,-2991.33,28225.7,2941.87,-406.589,10.6417,0
36225,774.15,767.81,760.69,755.57,764.56,42.48,-851.56,538.09,-0.95,0.63,0.92,-64.17,7246,0,64,-29.0734,-3.41569,-262.034,-3381.09,26331,2509.36,-406.513,12.9032,0
36260,773.95,767.87,760.68,755.71,764.55,54.69,-868.65,541.99,-0.12,1.07,0.08,-66.32,7253,0,64,-28.9957,-4.5955,-254.169,-3261.11,25443.6,2400.68,-406.895,12.8304,0
36294,773.39,768.06,760.72,755.77,764.48,56.15,-851.56,533.69,0.24,-0.53,0.37,-65.93,7260,0,64,-27.1989,-4.32982,-250.175,-2158.68,25251.6,2159.26,-406.064,8.62873,0
36328,772.84,768.22,760.67,755.89,764.41,53.71,-858.89,541.99,-0.15,1.31,0.43,-68.33,7267,0,64,-24.0978,-0.876023,-254.432,-1183.27,26403.5,2485.87,-403.226,4.65082,0
36364,772.29,768.31,760.69,755.94,764.31,50.78,-850.1,541.5,-0.12,1.98,-0.25,-67.43,7274,0,64,-20.1884,-1.52728,-258.177,543.1,27402.1,2528.62,-400.863,-2.10349,0
36398,772.05,768.44,760.68,755.94,764.28,42.97,-856.45,558.59,1.84,3.88,-2.24,-67.85,7281,0,64,-17.6232,-7.63578,-267.069,2345.39,28697.6,2210.06,-399.546,-8.78059,0
36433,772.18,768.49,760.65,755.91,764.31,42.97,-861.82,549.32,1.13,2.79,-0.69,-68.94,7288,0,64,-25.1182,-21.7417,-294.883,4176.31,31240.6,416.118,-401.058,-14.1624,0
36467,772.36,768.53,760.72,755.97,764.4,56.15,-861.33,552.73,1.31,2.4,1.07,-68.88,7294,0,64,-30.2756,-19.1155,-305.394,3356.68,32315.2,254.314,-401.185,-10.991,0
36501,772.21,768.4,760.69,755.94,764.31,62.01,-864.26,537.6,2.89,2.24,1.5,-67.79,7301,0,64,-25.8271,-2.65648,-293.27,-326.194,31138.2,2325.68,-400.824,1.11337,0
36535,771.83,768.42,760.69,755.98,764.23,51.76,-864.75,537.6,1.22,0.15,-0.23,-67.25,7308,0,64,-21.3245,2.37674,-280.304,-2675.73,29789,3479.18,-400.726,9.54595,0
36570,771.35,768.36,760.67,755.97,764.09,44.43,-869.14,537.6,4.95,3.02,1.68,-65.45,7315,0,64,-21.6364,6.58191,-283.771,-4543.35,29926.2,4432.01,-401.541,16.0104,0
36604,770.6,768.06,760.68,755.9,763.81,55.18,-847.66,552.25,1.72,3.8,1.02,-59.11,7322,0,64,-25.6806,4.59482,-295.321,-4815.28,30908.3,4090.8,-402.34,16.3056,0
36638,768.81,767.93,760.54,755.81,763.27,46.39,-847.17,556.15,4.49,3.77,-0.53,-54.29,7329,0,64,-29.1398,1.71215,-311.583,-4632.16,32557.5,3624.23,-402.509,14.8666,0
36673,767.2,767.62,760.32,755.8,762.73,37.6,-856.45,538.57,4.2,3.12,-0.27,-51.33,7336,0,64,-28.0403,-0.572827,-319.55,-4594.38,33597.9,3173.81,-401.858,14.3776,0
36707,767.31,767.06,759.72,755.41,762.37,34.18,-818.36,580.57,-9.04,-0.69,-0.29,-56.72,7342,0,64,-27.6841,-2.7454,-320.03,-4697.8,33658.4,2832.58,-401.827,14.6793,0
36741,767.45,766.93,759.11,754.93,762.11,57.62,-864.26,525.39,-9.74,-2.15,0.1,-64.08,7349,0,64,-27.2692,-3.00384,-321.155,-5393,33782.1,3012.37,-401.81,16.7925,0
36775,767.12,767.13,758.8,754.71,761.94,48.83,-900.39,515.14,-3.27,2,2.22,-69.02,7356,0,64,-27.3222,-2.44059,-321.833,-6305.68,33599.6,3344.74,-402.599,19.5931,0
36810,768.91,766.78,758.22,754.38,762.07,44.43,-837.4,550.29,-13.81,-0.76,-1.83,-82.04,7363,0,64,-28.9655,-0.877214,-318.246,-7417.46,33039.2,3684.58,-403.184,23.3074,0
36844,775.49,767.05,758.11,754.14,763.7,46.39,-873.54,494.14,-1.9,-2.73,-1.6,-106.06,7370,0,64,-29.2399,1.67347,-313.731,-8700.22,32366.3,4004.4,-403.834,27.7316,0
36878,778.45,766.87,758.18,754.14,764.41,82.03,-882.81,521.97,1.74,-0.11,-2.76,-113.03,7377,0,64,-27.7152,0.432044,-306.301,-9132.08,31513.6,3764.67,-404.116,29.8142,0
36912,783.65,766.45,758.1,753.86,765.51,48.83,-885.74,497.56,-4.31,-1.56,-1.59,-125.32,7383,0,64,-26.6785,-0.784801,-298.728,-9513.37,30565.1,3625.62,-404.683,31.8462,0
36947,786.26,765.72,758.04,753.58,765.9,84.96,-876.46,522.95,-4.93,-1.28,-3.69,-125.66,7390,0,64,-26.6906,-0.100642,-292.654,-10233.3,29662.8,3849.43,-405.642,34.9674,0
36981,787.28,765.61,758.08,753.42,766.1,60.55,-890.62,524.41,1.77,-1.63,-1.33,-124.87,7397,0,64,-27.3114,1.68409,-287.475,-10988.2,28981.4,4117.97,-406.186,38.2234,0
37015,788.69,765.8,758.14,753.46,766.52,59.57,-850.1,555.66,2.22,-0.61,-0.98,-130.57,7404,0,64,-27.0989,4.30887,-285.109,-11586.6,28605.3,4564.74,-406.669,40.6394,0
37049,788.32,765.72,758.12,753.47,766.41,70.8,-884.77,516.6,2.73,-0.07,-0.12,-129.28,7411,0,64,-25.9318,5.40274,-283.905,-11864.6,28549.1,4606.7,-406.441,41.7906,0
37083,788.32,766.06,758.28,753.49,766.54,64.45,-886.72,519.04,3.8,-0.4,0.66,-128.22,7418,0,64,-26.4011,3.61952,-286.033,-11230.6,28792.1,4426.13,-406.34,39.2633,0
37116,789.25,766.9,758.41,753.66,767.05,69.34,-866.21,533.69,18.19,2.26,2.14,-137.37,7424,0,64,-27.1345,1.95947,-292.433,-10597.9,29468.9,4122.67,-406.229,36.2407,0
37150,788.77,767.35,758.48,753.92,767.13,70.8,-870.12,574.22,3.05,2.97,1.29,-141.65,7431,0,64,-27.8444,0.0100734,-297.405,-9955.8,30081.1,3844.48,-405.855,33.4756,0
37184,788.88,767.68,758.29,754.03,767.22,66.89,-873.05,546.87,2.02,1.61,-1.17,-150.91,7438,0,64,-27.665,-0.63652,-300.211,-9312.23,30512.5,3703.21,-405.363,31.019,0
37218,787.51,768.22,758.47,754.18,767.1,80.08,-869.14,541.5,5.97,2.44,3.53,-148.2,7445,0,64,-27.6991,-0.573603,-304.228,-8735.64,31142.1,3601.65,-404.636,28.7142,0
37252,785.66,768.81,758.65,754.61,766.93,42.97,-871.09,558.11,2.76,3.46,1.47,-148.41,7451,0,64,-28.0694,-0.433222,-308.813,-8473.53,31661.8,3648.02,-404.473,27.439,0
37286,784.15,769.23,758.96,754.94,766.82,62.99,-880.86,522.95,13.37,3.95,0.65,-143.84,7458,0,64,-28.5423,-0.900428,-315.397,-7973.79,32483.1,3425.76,-404.009,25.2818,0
37322,782.4,769.42,759.21,755.4,766.61,32.71,-848.63,560.06,3.7,4.06,1.21,-139.86,7465,0,64,-28.9423,-1.6312,-322.471,-7287.8,33307,3256.89,-403.713,22.6001,0
