currTime,s1,s2,s3,s4,s,AccX,AccY,AccZ,GyroX,GyroY,GyroZ,GRF
26,770.64,764.49,762.33,760.61,764.52,97.17,-843.26,557.13,-1.20,0.73,1.79,-58.98
60,770.82,764.45,762.24,760.57,764.52,95.21,-836.43,550.78,0.13,0.84,0.29,-60.74
93,770.89,764.43,762.26,760.54,764.53,86.43,-854.49,547.85,-0.63,1.82,-0.34,-60.03
127,770.99,764.44,762.29,760.50,764.55,110.35,-852.54,548.83,1.43,0.44,-4.12,-58.85
161,770.96,764.43,762.25,760.49,764.53,87.40,-837.89,558.59,-1.18,2.34,-0.73,-59.94
195,771.08,764.39,762.18,760.38,764.51,91.31,-836.91,547.85,-1.10,1.54,-1.24,-59.92
229,771.10,764.39,762.21,760.34,764.51,87.40,-830.08,549.32,-1.46,2.91,1.27,-58.63
264,771.07,764.41,762.13,760.37,764.49,110.84,-842.29,559.08,1.81,2.27,-0.82,-61.20
298,771.11,764.40,762.19,760.34,764.51,103.03,-848.14,562.01,0.17,3.61,1.73,-59.34
332,770.97,764.30,762.18,760.27,764.43,88.87,-844.24,555.18,-0.07,2.57,-1.64,-57.29
366,771.00,764.38,762.18,760.32,764.47,87.40,-832.52,562.50,0.69,3.45,1.08,-58.66
401,770.92,764.31,762.18,760.34,764.44,93.26,-849.61,559.57,1.91,3.06,1.37,-58.10
435,770.97,764.29,762.20,760.28,764.43,83.50,-844.24,548.34,-0.69,2.15,0.08,-56.72
469,771.02,764.34,762.12,760.23,764.43,100.59,-857.42,549.80,-1.31,0.81,-0.63,-58.62
503,770.90,764.28,762.18,760.23,764.40,90.33,-853.03,556.15,1.90,-0.18,-0.93,-56.30
538,770.95,764.29,762.18,760.28,764.43,100.10,-846.68,556.15,1.15,1.19,-1.55,-57.19
572,771.12,764.27,762.09,760.23,764.43,90.82,-837.89,566.41,-0.54,2.03,-0.21,-59.15
606,771.06,764.24,762.13,760.14,764.39,103.52,-854.49,554.20,0.43,-0.34,0.86,-56.44
641,770.97,764.20,762.14,760.15,764.37,91.31,-841.31,554.69,-0.66,-1.08,-1.40,-55.66
675,770.84,764.26,762.06,760.16,764.33,93.75,-845.21,551.76,-2.27,1.89,2.34,-57.78
709,770.76,764.23,762.12,760.18,764.32,105.47,-844.73,553.22,-0.20,-0.02,-0.16,-56.09
743,770.69,764.23,762.06,760.11,764.27,98.14,-847.17,556.64,0.95,0.50,0.43,-56.44
778,770.75,764.27,762.02,760.21,764.31,101.07,-845.70,551.76,0.47,1.93,0.27,-59.20
812,770.58,764.29,762.11,760.15,764.28,99.61,-851.07,556.15,0.63,0.51,-0.71,-55.76
846,770.53,764.26,762.13,760.17,764.27,89.36,-846.68,554.69,-1.13,-0.82,0.85,-55.34
881,770.39,764.31,762.07,760.22,764.25,93.26,-842.77,546.39,0.31,0.34,-0.67,-57.26
917,770.44,764.28,762.13,760.20,764.26,103.52,-849.12,554.20,0.91,-0.31,-0.27,-55.43
951,770.38,764.23,762.19,760.25,764.26,101.56,-840.82,547.85,0.03,4.33,-1.19,-54.17
985,770.32,764.35,762.24,760.27,764.29,94.73,-854.00,564.45,2.53,2.73,1.34,-53.93
1019,770.41,764.24,762.13,760.30,764.27,84.47,-835.45,552.73,-0.86,0.83,2.36,-56.41
1054,770.45,764.35,762.10,760.25,764.29,96.68,-847.66,563.96,-0.31,0.77,0.95,-57.63
1088,770.42,764.31,762.13,760.18,764.26,91.80,-852.05,566.89,-1.94,4.18,-1.31,-55.27
1122,770.43,764.33,762.16,760.23,764.29,94.24,-847.66,559.57,1.92,0.50,2.31,-55.44
1156,770.34,764.40,762.14,760.26,764.29,88.38,-852.05,551.27,0.41,0.51,-0.95,-56.61
1191,770.36,764.36,762.22,760.25,764.30,102.54,-842.29,551.27,1.17,0.33,0.11,-54.40
1225,770.29,764.40,762.17,760.30,764.29,113.77,-855.47,553.22,2.28,3.41,0.38,-56.46
1259,770.34,764.43,762.17,760.28,764.30,89.36,-858.89,569.82,0.53,2.04,0.18,-56.47
1294,770.28,764.47,762.18,760.25,764.30,97.66,-857.42,553.22,1.40,1.39,2.69,-56.00
1328,770.34,764.44,762.13,760.37,764.32,85.45,-845.21,542.48,0.61,1.21,0.12,-58.78
1362,770.28,764.46,762.09,760.43,764.32,110.35,-852.54,558.11,0.77,2.32,-0.05,-60.70
1396,770.36,764.44,762.27,760.40,764.37,104.00,-830.08,566.41,2.47,1.81,0.82,-55.90
1431,770.28,764.52,762.26,760.47,764.38,87.40,-843.75,562.99,0.20,-0.40,0.39,-57.55
1464,770.25,764.49,762.26,760.49,764.37,95.21,-852.54,555.66,-0.63,3.37,2.60,-57.59
1498,770.28,764.63,762.27,760.63,764.45,95.21,-850.59,565.92,2.86,-0.88,1.75,-60.49
1532,770.17,764.65,762.30,760.70,764.46,86.91,-855.96,555.66,-0.56,2.40,-0.08,-60.53
1566,770.16,764.65,762.33,760.85,764.50,87.40,-846.68,548.83,-0.40,2.87,-1.95,-62.16
1599,770.07,764.68,762.33,760.91,764.50,100.10,-848.63,565.43,-0.37,-0.24,-1.29,-63.04
1633,770.04,764.80,762.43,761.03,764.57,98.14,-845.21,556.15,2.68,1.01,-2.96,-62.89
1668,770.00,764.78,762.47,761.06,764.58,112.79,-845.21,563.48,0.54,-0.12,0.02,-62.17
1702,770.02,764.80,762.49,761.21,764.63,97.66,-837.89,549.80,-1.08,-0.69,0.80,-64.07
1736,769.95,764.84,762.49,761.31,764.65,88.38,-843.75,563.96,2.06,-1.64,0.40,-65.62
1770,769.96,764.87,762.55,761.34,764.68,111.33,-847.17,546.87,-1.18,1.44,-0.44,-64.96
1804,769.82,764.94,762.59,761.40,764.69,99.12,-842.29,555.18,2.44,3.97,0.27,-64.95
1837,769.78,764.95,762.70,761.46,764.72,95.70,-841.31,560.06,0.77,3.29,0.24,-63.09
1873,769.65,765.06,762.69,761.53,764.73,85.45,-832.52,547.85,-0.15,0.37,0.09,-64.58
1907,769.53,765.13,762.71,761.67,764.76,102.05,-832.03,560.55,-1.29,2.58,-0.08,-66.27
1942,769.49,765.20,762.91,761.73,764.83,89.36,-855.47,554.20,1.79,0.65,0.43,-62.81
1976,769.43,765.27,762.90,761.90,764.87,93.75,-848.63,548.34,2.69,3.31,1.88,-65.85
2010,769.41,765.22,762.97,761.98,764.90,92.77,-840.33,564.94,2.56,2.18,-0.60,-64.74
2043,769.26,765.37,763.12,761.99,764.94,87.89,-852.54,564.94,0.63,4.11,-0.82,-61.84
2078,769.13,765.48,763.22,762.18,765.00,90.33,-858.89,540.04,1.21,1.19,0.80,-62.71
2112,769.02,765.52,763.28,762.25,765.02,83.50,-849.61,567.38,1.20,1.69,2.63,-62.06
2146,768.93,765.64,763.36,762.40,765.08,85.94,-840.33,559.57,-0.94,2.35,0.27,-62.93
2180,768.76,765.64,763.47,762.44,765.08,83.01,-844.24,548.34,-2.55,2.31,0.64,-60.12
2215,768.56,765.66,763.46,762.49,765.04,101.07,-845.21,563.48,1.24,3.17,0.79,-60.52
2249,768.52,765.72,763.57,762.67,765.12,80.08,-845.21,556.64,-0.28,1.33,0.67,-60.92
2283,768.39,765.82,763.57,762.67,765.11,108.89,-843.26,554.69,1.97,0.66,-1.35,-61.37
2318,768.38,765.81,763.63,762.82,765.16,85.45,-847.17,565.43,0.73,0.43,-0.11,-61.78
2352,768.47,765.87,763.69,762.85,765.22,95.21,-845.21,552.73,1.66,-0.63,4.80,-61.73
2386,768.51,765.77,763.71,762.87,765.22,84.47,-839.36,550.78,0.77,1.82,1.60,-60.73
2420,768.65,765.79,763.75,762.99,765.29,111.33,-832.52,558.59,-0.07,-0.20,0.37,-62.24
2455,768.69,765.83,763.73,762.99,765.31,95.21,-842.77,550.78,0.73,0.96,-1.37,-63.13
2489,768.65,765.85,763.78,763.03,765.33,95.21,-845.70,559.57,0.15,1.95,-0.47,-62.40
2523,768.66,765.86,763.85,763.07,765.36,77.64,-845.70,547.85,-0.88,1.72,0.79,-61.52
2557,768.60,765.79,763.77,763.06,765.31,85.94,-844.73,547.36,-1.24,0.68,-2.97,-62.63
2592,768.67,765.84,763.74,763.07,765.33,87.89,-854.98,554.69,-0.10,0.31,1.04,-64.17
2626,768.80,765.89,763.77,763.06,765.38,82.52,-838.87,583.50,0.52,-0.02,0.65,-63.95
2660,768.90,765.85,763.71,762.96,765.35,92.77,-849.12,564.94,-0.25,1.24,1.42,-63.86
2695,768.98,765.91,763.71,763.00,765.40,77.64,-863.77,594.73,4.92,2.46,2.01,-65.33
2729,768.83,765.89,763.72,762.94,765.34,83.50,-861.33,569.34,0.53,3.09,-1.32,-63.71
2763,768.67,765.88,763.73,762.91,765.30,86.43,-812.99,551.27,0.10,3.63,-0.77,-62.23
2797,768.43,765.83,763.70,762.95,765.23,86.91,-856.93,572.75,-0.96,2.36,-1.40,-62.55
2833,768.21,765.92,763.69,762.87,765.17,97.66,-817.38,554.69,0.46,0.45,0.27,-61.38
2868,768.00,765.80,763.78,762.92,765.13,70.80,-861.82,549.32,-2.52,0.11,-2.04,-58.19
2902,768.17,765.89,763.68,762.84,765.14,89.84,-837.89,551.27,1.75,2.69,-1.60,-60.82
2936,768.44,765.91,763.65,762.74,765.18,90.82,-809.08,569.82,1.19,3.02,0.47,-61.20
2970,768.88,765.92,763.63,762.67,765.27,88.38,-857.42,558.11,-3.16,3.05,0.90,-62.23
3005,769.21,765.93,763.52,762.55,765.30,84.47,-833.50,548.83,0.94,2.38,0.18,-64.43
3039,769.74,766.01,763.45,762.39,765.40,85.94,-835.45,556.64,0.26,1.78,1.07,-66.12
3073,770.21,765.95,763.42,762.30,765.47,72.75,-845.21,563.96,0.60,2.53,0.28,-66.91
3107,770.64,765.98,763.33,762.11,765.52,86.91,-838.38,537.11,0.34,1.98,-0.96,-68.10
3141,770.90,765.88,763.26,762.01,765.51,102.05,-850.10,553.22,-0.40,1.09,0.27,-68.39
3174,771.13,765.87,763.14,761.85,765.50,83.01,-843.75,560.06,0.71,1.25,3.71,-69.54
3208,771.31,765.81,763.15,761.64,765.48,90.33,-845.21,566.89,0.80,0.36,0.71,-66.49
3242,771.50,765.79,763.14,761.52,765.49,86.91,-847.66,574.22,-0.85,1.98,0.23,-65.41
3276,771.74,765.72,763.07,761.48,765.50,99.12,-847.17,560.06,0.48,2.81,1.44,-66.86
3310,771.80,765.74,763.06,761.37,765.49,99.61,-843.75,560.06,-0.13,1.02,1.97,-65.88
3344,771.57,765.63,762.99,761.24,765.36,87.89,-852.54,564.94,0.20,2.07,0.37,-64.07
3378,771.38,765.58,762.95,761.08,765.25,80.08,-838.87,570.31,-1.53,1.89,-2.74,-61.57
3412,771.05,765.49,762.90,760.98,765.10,90.82,-841.80,566.41,0.24,0.64,-0.02,-59.61
3446,770.86,765.39,762.86,760.71,764.95,92.77,-845.21,559.08,-3.12,2.53,-0.37,-54.99
3480,771.00,765.24,762.74,760.62,764.90,78.61,-835.94,548.34,-0.82,2.84,1.97,-56.13
3514,771.21,765.26,762.72,760.38,764.89,102.05,-847.66,560.06,-1.08,1.79,0.05,-53.95
3548,771.53,765.16,762.68,760.41,764.95,79.10,-849.61,555.18,1.96,0.37,-0.09,-55.58
3582,771.81,765.10,762.69,760.34,764.99,92.29,-839.36,545.41,0.30,4.47,-3.17,-54.87
3617,771.98,765.11,762.64,760.31,765.01,99.61,-844.73,557.62,-0.14,0.29,-2.31,-56.28
3651,772.21,765.04,762.60,760.21,765.02,80.57,-853.52,568.85,0.50,0.89,1.69,-55.95
3685,772.43,765.11,762.65,760.19,765.10,87.40,-854.00,566.41,-1.03,-0.69,1.00,-56.00
3719,772.52,765.00,762.64,760.23,765.10,94.24,-842.29,574.22,1.95,0.79,0.67,-56.03
3754,772.60,765.12,762.68,760.28,765.17,84.47,-846.68,554.69,1.08,2.34,0.34,-57.18
3790,772.59,765.11,762.68,760.31,765.17,87.40,-848.63,565.43,-1.05,1.76,3.24,-57.45
3824,772.45,765.18,762.76,760.33,765.18,95.70,-856.45,543.95,-2.11,-1.06,-0.44,-55.66
3858,772.45,765.18,762.82,760.40,765.21,100.59,-848.14,553.22,-0.74,2.41,-1.41,-55.36
3892,772.35,765.25,762.92,760.40,765.23,71.78,-854.98,563.96,0.40,3.83,-0.43,-53.02
3927,772.16,765.38,763.01,760.53,765.27,85.94,-842.29,574.71,2.65,3.05,0.89,-53.20
3961,772.13,765.39,763.10,760.68,765.32,78.12,-844.24,577.15,2.39,1.97,0.76,-53.04
3995,772.02,765.50,763.22,760.92,765.42,90.82,-854.98,554.69,-1.47,2.56,-0.01,-54.10
4030,772.07,765.63,763.51,761.17,765.60,91.31,-849.12,560.55,-1.02,3.77,-0.53,-51.84
4064,771.99,765.80,763.67,761.32,765.70,91.31,-833.01,575.20,0.21,0.11,0.44,-51.16
4098,772.15,765.92,763.84,761.44,765.84,96.19,-842.29,559.08,0.22,1.69,3.47,-50.18
4132,772.06,765.98,763.87,761.45,765.84,89.36,-847.17,557.62,-0.30,3.10,1.12,-49.80
4167,772.04,766.16,764.08,761.41,765.92,89.36,-833.50,558.11,2.23,4.84,1.76,-45.29
4201,772.20,766.28,764.07,761.36,765.98,97.66,-849.61,552.25,2.06,3.89,0.85,-46.23
4235,772.30,766.34,764.11,761.14,765.97,84.47,-839.84,562.01,3.82,2.23,1.64,-42.77
4269,772.76,766.27,764.05,760.88,765.99,91.80,-830.08,582.52,2.38,1.24,1.69,-41.67
4304,772.65,766.39,763.98,760.54,765.89,84.96,-850.10,555.18,-1.19,5.21,2.99,-38.88
4338,772.48,766.40,763.85,760.42,765.79,90.82,-842.29,568.36,0.78,1.55,1.76,-39.79
4372,772.73,766.27,763.83,760.14,765.74,75.20,-846.68,552.73,-1.74,3.80,2.66,-35.95
4407,773.48,766.05,763.41,759.55,765.62,75.20,-841.80,576.17,-1.72,1.82,1.45,-38.66
4441,774.22,765.86,763.09,759.02,765.55,81.54,-849.61,550.78,-1.85,2.24,-0.88,-39.93
4475,774.94,765.63,762.65,758.49,765.43,77.64,-827.64,575.68,-5.90,2.71,0.50,-43.75
4509,775.29,765.47,762.33,758.04,765.28,85.45,-850.59,569.82,-3.02,2.73,1.66,-44.90
4544,775.58,765.44,762.11,757.71,765.21,78.61,-839.36,560.06,-1.53,3.71,2.20,-46.19
4578,775.67,765.41,762.02,757.63,765.18,80.08,-837.89,569.82,-1.05,1.50,-0.09,-47.39
4612,775.33,765.50,761.98,757.59,765.10,79.10,-862.79,559.08,-0.37,4.47,1.76,-47.31
4646,775.19,765.41,762.02,757.58,765.05,80.57,-854.00,578.12,1.98,2.00,1.73,-45.15
4680,774.98,765.49,762.00,757.70,765.04,81.54,-846.19,570.80,1.41,0.44,3.11,-47.20
4715,774.47,765.67,762.06,757.76,764.99,86.43,-851.07,568.85,4.34,2.51,0.79,-46.17
4751,774.09,765.80,762.14,757.88,764.98,75.20,-846.19,561.52,0.95,0.29,-0.34,-45.90
4784,773.61,765.79,762.19,757.92,764.88,76.17,-844.24,562.50,0.76,3.74,0.02,-43.39
4818,773.19,765.93,762.38,758.04,764.88,74.71,-835.94,563.48,2.22,0.93,-0.14,-40.21
4852,772.75,766.11,762.52,758.24,764.91,70.80,-863.77,550.29,1.89,3.22,2.01,-39.64
4885,772.31,766.40,762.77,758.38,764.96,67.87,-839.84,569.82,-0.15,1.62,0.95,-36.17
4919,771.59,766.46,762.89,758.59,764.88,67.87,-835.45,555.18,2.71,2.24,-1.67,-34.22
4953,770.81,766.51,762.96,758.74,764.76,70.80,-843.26,571.29,1.81,2.59,0.54,-32.34
4987,769.74,766.69,763.26,758.89,764.64,64.94,-833.01,579.10,0.17,-0.76,-1.36,-24.83
5021,768.80,766.90,763.52,759.06,764.57,70.31,-846.68,574.22,2.27,0.27,0.03,-19.42
5055,767.79,766.94,763.59,759.16,764.37,61.04,-854.98,558.11,1.69,3.91,1.25,-16.05
5089,766.68,767.14,763.84,759.26,764.23,78.12,-846.68,578.12,-0.24,-0.29,1.18,-9.14
5123,765.78,767.30,763.95,759.50,764.13,79.59,-836.43,566.41,1.28,1.69,-1.93,-8.01
5157,765.43,767.54,764.12,759.59,764.17,71.29,-829.59,574.22,0.95,2.31,2.24,-5.74
5191,765.80,767.60,764.28,759.77,764.36,74.71,-839.36,575.68,1.74,0.60,-2.55,-6.37
5225,766.13,767.75,764.37,759.83,764.52,64.94,-839.84,559.08,-1.04,2.02,2.21,-7.33
5260,766.05,767.92,764.50,760.00,764.62,86.91,-844.24,572.75,2.34,-0.63,2.00,-7.67
5294,765.95,767.98,764.60,759.92,764.61,72.27,-844.24,560.55,0.29,0.88,-0.50,-4.04
5328,765.57,767.95,764.59,760.03,764.53,62.01,-835.94,566.41,-0.56,0.02,-2.50,-4.53
5362,765.47,768.02,764.59,759.95,764.51,67.87,-840.82,565.43,0.07,0.38,2.18,-3.32
5397,765.70,767.99,764.60,759.91,764.55,64.94,-823.73,572.75,0.03,3.02,0.97,-3.15
5431,766.13,767.97,764.65,759.95,764.67,83.01,-843.26,566.89,-1.23,1.30,0.69,-3.89
5465,766.46,767.77,764.62,759.92,764.69,53.71,-849.61,562.99,0.82,1.68,-0.49,-3.59
5499,766.32,767.63,764.46,759.73,764.54,67.38,-835.45,563.48,0.19,0.47,1.03,-3.17
5534,766.05,767.50,764.42,759.38,764.34,60.55,-847.17,571.29,0.00,1.86,-0.65,2.76
5568,766.02,767.31,764.23,759.24,764.20,64.45,-839.36,565.43,-1.26,0.97,-0.78,1.88
5602,766.28,767.18,764.22,759.07,764.19,68.36,-854.49,561.52,-0.03,0.82,-1.24,4.14
5637,766.74,767.12,764.10,758.96,764.23,72.27,-841.80,569.34,0.94,0.02,-1.11,1.87
5671,767.41,767.04,764.19,758.85,764.37,71.78,-850.59,579.59,4.15,0.48,-0.73,4.09
5707,768.11,766.90,764.23,758.82,764.51,73.24,-827.15,572.75,1.47,-2.22,1.54,4.12
5741,768.40,766.81,764.26,758.62,764.52,78.61,-847.66,558.11,-1.86,1.11,-0.99,7.42
5775,768.46,766.74,764.24,758.54,764.49,65.92,-837.89,559.57,-1.82,0.21,0.11,8.62
5810,767.98,766.58,764.28,758.45,764.32,67.38,-840.33,567.87,-2.07,0.36,0.95,13.94
5844,767.43,766.47,764.36,758.36,764.15,85.94,-849.12,564.94,0.13,1.09,0.85,19.79
5878,767.04,766.59,764.26,758.37,764.06,77.15,-840.82,561.52,-0.58,0.23,1.47,17.57
5912,767.39,766.44,764.38,758.32,764.13,75.68,-844.73,572.75,0.26,-0.41,-0.61,21.41
5947,768.22,766.43,764.31,758.29,764.31,64.94,-842.29,563.48,1.31,0.92,0.20,17.31
5981,768.98,766.24,764.15,758.31,764.42,73.73,-852.54,572.75,-0.53,1.38,0.92,12.00
6015,769.58,766.19,764.15,758.27,764.55,66.89,-851.07,552.25,-1.33,-0.49,-2.18,10.81
6050,769.71,766.03,764.09,758.27,764.53,69.34,-852.54,564.94,1.05,2.37,-0.49,10.21
6084,769.83,765.95,764.05,758.27,764.52,58.11,-824.22,560.55,0.67,2.10,-2.05,9.39
6118,769.75,765.81,764.05,758.33,764.49,80.57,-833.50,569.82,-0.65,0.40,-2.72,9.95
6152,769.93,765.93,764.12,758.30,764.57,71.29,-835.45,563.96,0.57,0.94,-3.21,10.68
6187,770.31,765.88,764.11,758.37,764.67,85.45,-853.52,549.32,0.05,0.74,-0.97,8.28
6221,770.67,765.88,764.15,758.36,764.77,78.61,-839.36,565.43,1.73,2.09,0.28,8.32
6255,770.93,765.88,764.15,758.40,764.84,85.94,-844.24,576.17,1.25,0.14,0.27,6.71
6289,770.90,765.77,764.11,758.39,764.79,69.82,-838.87,556.15,-0.33,3.48,0.33,6.93
6324,770.69,765.78,764.12,758.34,764.73,76.17,-839.84,574.71,-1.15,0.24,0.00,8.49
6358,770.53,765.73,764.08,758.32,764.67,93.75,-833.50,553.71,0.89,-1.45,-1.47,8.89
6392,770.66,765.72,764.10,758.35,764.71,64.94,-833.50,571.78,3.01,-0.94,-1.11,8.64
6426,770.78,765.68,764.06,758.35,764.72,83.98,-844.24,566.89,0.70,1.72,3.31,7.32
6460,770.83,765.57,764.07,758.37,764.71,80.57,-838.38,556.15,-0.67,0.20,-1.87,8.28
6493,771.04,765.43,764.05,758.34,764.72,83.98,-837.40,539.06,0.37,-0.40,-0.79,8.42
6527,771.04,765.39,764.03,758.32,764.70,71.78,-865.72,567.38,-0.21,3.73,0.01,8.61
6561,770.80,765.33,764.06,758.36,764.64,96.68,-844.24,559.08,0.16,0.82,-1.27,10.16
6595,770.59,765.29,764.12,758.26,764.56,85.94,-851.56,553.22,1.98,-0.35,-1.04,14.00
6628,770.46,765.26,764.13,758.34,764.55,75.20,-845.21,545.41,1.25,2.77,0.74,13.91
6665,770.52,765.18,764.18,758.48,764.59,77.64,-850.10,565.92,1.31,0.92,2.21,13.40
6699,770.56,765.17,764.23,758.57,764.63,78.12,-851.07,551.76,2.37,0.56,0.37,13.23
6732,770.60,765.22,764.24,758.57,764.66,81.05,-855.96,563.96,-0.75,1.26,1.15,13.14
6766,770.74,765.34,764.24,758.72,764.76,82.52,-840.82,565.43,2.18,0.07,0.16,9.38
6800,771.23,765.33,764.34,758.76,764.92,81.05,-837.40,562.50,1.47,-0.87,-1.11,9.75
6834,771.75,765.34,764.39,758.90,765.09,82.52,-855.96,570.80,2.22,0.66,3.15,7.09
6868,772.10,765.37,764.37,758.85,765.17,80.08,-845.70,552.73,-0.19,2.82,0.88,5.72
6903,772.29,765.45,764.35,758.80,765.23,87.40,-845.70,564.94,1.16,0.99,2.62,4.72
6937,772.04,765.41,764.34,758.84,765.16,75.68,-846.68,558.11,0.81,1.38,2.60,5.03
6971,771.74,765.42,764.32,758.76,765.06,87.40,-839.36,556.15,0.96,1.64,1.65,6.71
7005,771.72,765.53,764.32,758.75,765.08,67.38,-854.98,559.57,0.15,1.79,2.53,5.94
7040,771.96,765.48,764.29,758.78,765.12,75.68,-838.38,564.45,0.42,3.73,2.23,4.41
7074,772.24,765.54,764.31,758.80,765.22,77.15,-849.12,575.20,0.04,-0.38,-1.00,3.27
7108,772.48,765.47,764.19,758.73,765.22,92.77,-845.70,560.55,0.47,0.05,-2.20,1.09
7143,772.66,765.61,764.21,758.72,765.30,75.20,-851.07,573.24,2.12,0.76,-1.69,-0.22
7177,772.49,765.68,764.16,758.73,765.27,93.26,-833.50,564.94,-0.27,1.04,-1.65,-1.40
7211,772.25,765.61,764.19,758.69,765.19,71.29,-836.91,556.15,-1.85,-0.36,-0.60,1.27
7245,772.22,765.58,764.26,758.62,765.17,70.31,-833.98,569.82,0.05,2.12,1.02,4.45
7280,772.11,765.72,764.31,758.63,765.19,83.01,-846.68,556.64,-0.05,2.94,2.18,4.56
7314,772.15,765.73,764.24,758.62,765.18,95.70,-854.00,568.85,1.40,1.44,0.31,2.83
7348,772.13,765.71,764.21,758.58,765.16,71.29,-848.63,566.89,1.41,0.93,-0.02,2.89
7382,772.05,765.71,764.20,758.56,765.13,83.98,-825.68,566.89,0.96,2.41,2.43,3.22
7417,771.91,765.78,764.14,758.56,765.10,66.89,-836.43,558.59,-0.84,2.82,-2.44,1.74
7451,771.64,765.73,764.13,758.48,764.99,71.29,-862.79,548.83,0.30,0.78,1.27,3.85
7485,771.59,765.65,764.10,758.48,764.96,88.38,-848.14,566.41,1.76,2.57,0.72,4.10
7520,771.55,765.66,764.14,758.46,764.95,74.71,-826.17,565.43,2.68,1.79,1.73,5.37
7554,771.57,765.68,764.09,758.46,764.95,89.36,-835.45,562.01,0.26,2.74,0.47,4.07
7588,771.56,765.69,764.09,758.44,764.95,80.57,-848.63,572.27,-1.06,1.28,2.02,4.00
7624,771.51,765.73,764.06,758.45,764.94,83.01,-850.59,559.08,0.56,0.45,-0.40,3.07
7658,771.65,765.82,764.00,758.31,764.94,82.03,-843.75,562.50,1.40,0.92,1.09,2.35
7693,771.98,765.78,763.97,758.42,765.04,75.68,-829.10,576.17,0.87,3.80,2.18,-0.60
7727,772.48,765.83,763.95,758.38,765.16,69.82,-843.26,564.94,-0.56,1.02,2.27,-2.65
7761,772.95,765.87,763.91,758.38,765.28,71.29,-838.38,566.89,-0.51,2.73,1.40,-5.78
7795,773.46,765.87,763.81,758.26,765.35,62.99,-846.68,562.99,1.46,1.59,-1.24,-8.13
7830,773.94,765.96,763.80,758.24,765.48,80.08,-841.31,564.45,-0.44,1.88,1.39,-10.52
7864,774.15,765.91,763.80,758.13,765.50,80.57,-847.17,552.25,0.91,2.79,3.02,-9.32
7898,774.25,765.90,763.74,758.19,765.52,89.36,-831.54,570.80,0.99,1.28,1.26,-11.75
7933,774.36,765.88,763.75,758.16,765.54,67.87,-848.14,556.64,-0.52,1.11,-0.56,-11.23
7967,774.46,765.86,763.68,758.05,765.51,77.15,-849.12,568.85,0.56,0.49,2.00,-11.74
8001,774.45,765.98,763.71,758.02,765.54,84.47,-838.87,566.41,-0.99,1.05,1.28,-11.35
8035,774.56,766.01,763.65,757.98,765.55,64.45,-858.89,544.92,-0.34,2.63,-0.76,-12.85
8070,774.61,765.89,763.66,757.98,765.54,93.26,-825.20,564.45,0.76,2.10,1.07,-11.88
8104,774.57,765.96,763.68,758.01,765.56,77.64,-851.56,576.17,-0.97,2.29,2.11,-12.17
8138,774.52,765.94,763.69,757.93,765.52,83.98,-846.19,563.96,0.70,3.08,0.22,-10.38
8171,774.60,766.05,763.74,757.91,765.58,71.78,-840.82,583.50,0.69,0.81,-1.00,-10.13
8205,774.65,766.03,763.70,757.87,765.56,78.12,-835.45,562.99,-0.41,0.55,0.89,-10.67
8239,774.67,766.09,763.60,757.86,765.56,73.73,-851.07,563.96,1.03,0.08,-0.04,-13.38
8273,774.73,766.07,763.58,757.71,765.52,76.66,-840.33,553.71,-0.92,3.74,2.80,-11.88
8306,774.74,766.18,763.62,757.68,765.55,71.29,-843.26,556.15,-0.63,0.00,1.97,-11.28
8341,774.75,766.06,763.54,757.75,765.53,78.61,-853.03,573.73,0.01,1.21,2.93,-13.38
8375,774.81,766.05,763.51,757.69,765.51,73.24,-844.24,573.24,1.15,3.29,-2.00,-13.25
8409,774.91,766.04,763.47,757.69,765.53,80.08,-845.70,567.38,-1.37,3.72,1.96,-14.52
8443,775.15,765.92,763.42,757.60,765.52,75.20,-830.57,550.29,-0.02,1.21,0.79,-14.36
8476,775.21,766.00,763.44,757.58,765.56,60.06,-849.12,561.52,1.11,2.95,-1.16,-14.50
8510,775.20,766.00,763.50,757.53,765.56,65.43,-847.17,580.08,-0.01,3.84,-2.76,-12.32
8544,775.29,765.97,763.41,757.57,765.56,79.59,-836.43,551.27,0.61,1.53,-0.60,-15.12
8580,775.38,765.88,763.44,757.58,765.57,67.38,-846.68,560.55,-1.02,0.16,0.05,-14.00
8615,775.49,765.98,763.37,757.54,765.60,69.82,-855.47,559.08,-2.08,2.82,-1.73,-16.41
8649,775.45,765.89,763.43,757.55,765.58,72.27,-836.43,562.01,1.24,-0.07,-0.12,-14.27
8683,775.48,765.85,763.39,757.56,765.57,65.92,-841.31,564.45,2.11,2.48,1.39,-15.00
8717,775.29,765.79,763.35,757.66,765.52,62.99,-846.19,564.94,-1.91,1.68,-1.33,-16.48
8752,775.08,765.84,763.41,757.61,765.48,82.03,-840.33,568.85,2.40,3.54,-2.08,-13.78
8786,774.94,765.98,763.39,757.69,765.50,66.41,-844.24,571.29,-3.73,1.91,2.66,-16.35
8820,774.59,766.02,763.31,757.74,765.41,91.31,-844.73,569.82,-0.23,3.06,2.69,-18.09
8854,774.33,766.12,763.27,757.75,765.37,62.99,-851.56,556.15,0.49,5.22,1.30,-19.22
8889,774.20,766.23,763.27,757.75,765.36,65.92,-844.73,552.25,0.05,3.33,1.29,-19.76
8923,774.02,766.38,763.12,757.79,765.33,78.61,-835.94,556.64,0.22,4.35,1.91,-24.41
8957,774.17,766.59,763.07,757.74,765.39,70.80,-838.38,562.50,-0.35,1.76,1.60,-27.12
8992,774.27,766.66,762.88,757.76,765.39,53.71,-833.01,570.31,-0.56,3.55,1.82,-33.19
9026,774.33,766.86,762.71,757.73,765.41,71.29,-841.31,569.34,0.08,4.03,-0.48,-38.63
9060,774.54,767.03,762.56,757.78,765.48,71.78,-841.31,580.08,-6.89,3.97,1.56,-45.30
9094,774.73,767.17,762.28,757.84,765.50,68.85,-851.56,556.64,-11.67,3.13,0.77,-54.87
9129,774.88,767.30,761.84,757.94,765.49,51.27,-878.42,537.60,-6.69,2.27,3.24,-68.92
9163,774.95,767.38,761.53,758.06,765.48,51.27,-852.05,549.80,-5.06,1.64,0.98,-79.27
9197,775.15,767.43,761.13,757.98,765.42,34.67,-861.82,534.18,-7.92,0.28,-0.18,-89.21
9231,775.44,767.37,760.77,757.89,765.36,56.64,-873.05,526.37,-5.35,0.21,0.24,-97.24
9266,775.54,767.52,760.34,757.91,765.33,60.55,-862.30,520.02,-4.94,2.73,0.88,-109.82
9300,775.72,767.57,759.64,757.89,765.20,63.96,-857.42,535.16,-8.82,2.31,0.42,-128.07
9334,775.84,767.58,758.97,757.85,765.06,72.27,-863.77,522.46,-7.56,3.02,-0.31,-144.69
9369,775.79,767.64,758.08,757.93,764.86,46.39,-860.84,528.81,-5.56,5.86,0.27,-168.19
9403,775.94,767.60,757.19,758.07,764.70,60.55,-874.02,524.41,-8.56,3.98,0.84,-192.73
9437,776.33,767.53,756.44,758.20,764.63,63.48,-891.11,511.72,-7.90,2.31,-0.02,-214.12
9471,776.68,767.45,756.14,758.05,764.58,81.54,-874.51,512.21,-7.88,0.98,-0.56,-219.82
9506,776.88,767.41,755.95,757.92,764.54,61.04,-880.37,510.74,-4.49,5.16,-0.21,-223.14
9542,776.87,767.37,755.66,757.84,764.43,70.80,-884.28,506.35,-5.26,1.70,0.66,-228.68
9576,777.15,767.23,755.27,757.74,764.35,56.64,-884.28,495.61,3.27,1.42,0.31,-236.98
9610,777.41,767.03,755.13,757.57,764.28,62.01,-866.70,516.11,4.63,-0.86,-0.91,-237.17
9644,777.75,766.96,755.22,757.16,764.27,55.66,-877.93,493.16,1.11,2.44,2.08,-229.42
9679,777.95,766.89,755.40,756.73,764.24,55.18,-877.44,493.65,2.02,0.18,3.92,-218.74
9713,778.07,766.71,755.79,756.54,764.28,61.04,-883.30,506.35,5.62,-1.44,1.88,-205.19
9747,778.13,766.66,756.00,756.28,764.27,44.43,-871.58,521.48,8.38,0.86,1.05,-195.93
9781,777.99,766.62,756.27,756.16,764.26,60.06,-877.44,508.79,7.04,-0.51,-1.39,-186.86
9815,777.95,766.51,756.43,756.00,764.22,58.59,-886.72,504.88,3.69,-1.07,-1.57,-179.34
9848,777.83,766.41,756.51,755.90,764.16,54.20,-889.16,517.58,4.38,-1.66,3.05,-174.64
9882,777.89,766.39,756.61,755.86,764.19,60.55,-874.02,529.30,2.44,0.98,1.19,-171.66
9916,777.83,766.34,756.64,755.83,764.16,62.50,-860.84,515.14,2.44,-0.50,0.12,-169.89
9950,777.70,766.33,756.77,755.85,764.16,67.87,-881.84,522.95,1.89,1.94,0.79,-166.46
9984,777.49,766.33,756.85,755.84,764.13,52.25,-870.61,519.53,1.69,1.26,1.56,-163.64
10018,777.42,766.36,756.93,755.88,764.15,52.73,-863.77,522.46,2.64,-0.38,-0.56,-162.01
10052,777.35,766.38,756.98,755.85,764.14,64.94,-866.21,522.46,0.08,-0.28,2.84,-160.22
10086,777.34,766.39,757.14,755.85,764.18,65.43,-874.02,512.70,-0.07,2.98,0.18,-156.44
10120,777.24,766.44,757.24,755.79,764.18,56.64,-884.28,527.83,3.53,-0.39,-0.78,-153.13
10154,777.17,766.47,757.27,755.85,764.19,62.50,-886.72,519.04,0.45,1.05,0.28,-153.22
10188,777.15,766.52,757.31,755.87,764.21,48.83,-863.28,520.51,2.54,-0.69,-2.85,-152.76
10222,777.15,766.56,757.35,755.88,764.24,69.82,-871.58,510.25,0.73,1.91,2.85,-152.45
10257,777.15,766.57,757.36,755.85,764.23,59.57,-872.56,528.32,2.80,1.16,0.47,-151.86
10291,777.09,766.58,757.44,755.91,764.25,52.25,-870.61,523.93,-2.09,2.41,0.89,-150.47
10325,777.10,766.49,757.41,756.00,764.25,61.04,-882.81,517.09,2.69,0.43,-1.14,-151.83
10359,777.09,766.50,757.39,755.90,764.22,61.52,-860.35,531.25,0.85,1.84,-0.49,-150.82
10394,777.12,766.58,757.36,755.87,764.23,48.83,-880.86,529.79,0.34,1.98,0.44,-151.95
10428,777.17,766.60,757.46,755.89,764.28,63.48,-863.77,512.70,1.56,0.63,1.93,-150.07
10462,777.20,766.58,757.43,755.96,764.29,57.62,-881.84,512.21,-0.50,1.54,-2.36,-151.70
10498,777.22,766.63,757.40,755.90,764.29,56.64,-866.70,517.09,1.56,2.50,0.09,-152.01
10532,777.25,766.66,757.35,755.91,764.29,59.08,-862.30,516.60,-1.05,2.51,1.88,-153.85
10567,777.36,766.63,757.47,755.91,764.34,60.06,-870.12,521.00,2.21,3.02,-1.04,-151.14
10601,777.31,766.69,757.47,755.91,764.34,64.94,-878.42,518.07,-0.85,2.05,2.97,-151.45
10635,777.33,766.68,757.41,755.92,764.34,62.50,-867.19,515.14,0.75,-0.27,1.49,-152.88
10670,777.41,766.78,757.44,755.93,764.39,69.82,-882.81,523.44,-1.18,0.66,2.36,-153.51
10704,777.42,766.80,757.45,755.93,764.40,52.25,-874.02,522.95,0.43,1.42,2.45,-153.39
10738,777.43,766.88,757.54,755.98,764.46,76.66,-893.07,525.39,1.58,1.15,0.67,-152.42
10772,777.50,766.98,757.49,755.96,764.48,58.11,-876.95,520.02,0.29,0.07,0.28,-154.40
10807,777.43,767.02,757.55,756.00,764.50,69.82,-870.61,520.02,0.09,0.27,-1.61,-153.84
10841,777.24,767.04,757.57,756.01,764.46,62.01,-865.23,515.62,0.88,2.39,-0.95,-152.86
10875,777.19,767.07,757.63,756.00,764.47,45.90,-880.86,514.65,1.32,0.82,-0.40,-151.39
10909,777.17,767.07,757.62,756.05,764.48,61.04,-871.09,522.46,2.39,-0.53,-1.08,-152.22
10944,777.07,767.11,757.58,756.06,764.46,59.57,-876.46,523.93,3.22,0.73,-0.89,-153.41
10978,777.00,767.17,757.57,756.08,764.46,49.80,-870.61,528.81,1.82,2.10,-0.90,-154.20
11012,776.97,767.10,757.59,756.12,764.44,78.12,-862.30,520.02,3.15,-1.20,2.44,-153.40
11047,776.91,767.14,757.61,756.10,764.44,46.39,-874.02,517.09,-1.09,2.88,1.47,-153.01
11081,776.88,767.12,757.65,756.10,764.44,68.85,-868.16,526.37,0.18,1.89,1.08,-151.52
11115,776.86,767.09,757.64,756.15,764.43,53.22,-861.82,523.44,1.37,2.29,1.80,-152.32
11149,776.83,767.16,757.73,756.21,764.48,66.41,-867.68,527.34,-0.44,0.39,-0.42,-151.45
11184,776.80,767.14,757.67,756.19,764.45,57.62,-868.65,515.14,0.56,2.57,0.50,-152.36
11218,776.80,767.14,757.68,756.14,764.44,52.73,-873.54,517.09,-0.69,1.75,-1.00,-151.42
11252,776.87,767.14,757.63,756.19,764.46,39.06,-868.65,523.93,-0.12,2.44,-0.17,-153.66
11286,776.74,767.23,757.71,756.09,764.44,64.45,-872.07,519.53,-0.40,1.94,1.45,-150.42
11321,776.68,767.13,757.65,756.12,764.39,55.66,-853.03,516.11,1.46,0.71,-2.58,-151.27
11355,776.62,767.18,757.70,756.21,764.43,48.83,-873.05,510.25,1.82,-2.29,-2.04,-151.60
11389,776.58,767.08,757.73,756.13,764.38,57.62,-869.63,531.74,0.45,2.89,-0.68,-148.75
11423,776.49,767.20,757.75,756.15,764.40,64.45,-873.05,519.04,-0.51,1.97,2.34,-149.04
11458,776.36,767.21,757.77,756.15,764.37,49.80,-856.45,541.99,-0.50,1.75,-1.92,-148.24
11492,776.35,767.21,757.79,756.25,764.40,70.31,-953.61,493.16,-0.08,4.53,2.19,-149.19
11525,776.20,767.21,757.68,756.24,764.33,26.37,-826.17,556.64,3.47,0.82,0.03,-151.36
11559,776.08,767.26,757.70,756.19,764.31,70.31,-854.00,504.39,8.79,-1.90,0.31,-150.22
11593,775.97,767.19,757.80,756.23,764.30,59.08,-876.46,542.48,-3.17,0.34,0.95,-147.35
11627,775.94,767.24,757.78,756.20,764.29,60.06,-842.77,552.25,-0.11,-0.95,-0.52,-147.67
11661,775.96,767.16,757.82,756.23,764.29,66.89,-894.53,525.88,-0.82,-0.37,1.50,-146.55
11695,775.98,767.24,757.80,756.22,764.31,52.73,-880.37,533.20,-1.28,1.27,0.90,-147.63
11729,775.79,767.21,757.83,756.29,764.28,79.59,-869.63,533.69,0.56,3.08,1.79,-146.77
11763,775.80,767.26,757.88,756.28,764.31,63.96,-874.02,519.04,-0.78,3.07,-0.57,-145.91
11797,775.69,767.19,757.79,756.27,764.23,52.73,-874.02,509.77,0.19,0.89,0.66,-147.23
11831,775.78,767.09,757.86,756.24,764.24,43.95,-863.28,535.64,1.25,0.95,1.76,-144.39
11866,775.66,767.22,757.90,756.22,764.25,60.06,-883.79,517.58,2.29,0.48,0.29,-143.85
11900,775.58,767.16,757.84,756.21,764.20,60.55,-886.72,497.56,0.62,-2.05,1.42,-144.38
11934,775.54,767.20,757.86,756.25,764.21,57.13,-863.77,527.83,1.69,1.75,-1.47,-144.58
11969,775.61,767.10,757.91,756.16,764.19,65.43,-866.21,526.86,1.31,-0.82,0.68,-141.57
12003,775.52,767.14,757.91,756.23,764.20,41.50,-850.10,511.72,-0.77,1.96,1.34,-142.55
12037,775.46,767.20,757.93,756.24,764.21,67.87,-886.23,531.74,0.88,0.65,0.56,-142.33
12071,775.35,767.27,757.97,756.33,764.23,66.41,-870.12,521.00,0.41,1.54,-0.58,-143.02
12106,775.35,767.27,757.99,756.29,764.23,56.64,-877.93,537.11,1.37,3.02,1.75,-141.85
12140,775.32,767.29,758.06,756.34,764.25,72.27,-862.30,530.27,-1.33,2.63,-1.37,-141.07
12174,775.27,767.24,758.03,756.35,764.22,54.69,-855.47,548.34,3.24,3.16,2.52,-141.22
12208,775.32,767.30,758.09,756.31,764.25,59.08,-865.23,530.27,5.55,7.09,1.29,-139.90
12243,775.24,767.32,758.13,756.31,764.25,62.01,-875.49,516.11,0.23,1.82,1.14,-138.60
12277,775.12,767.38,758.18,756.37,764.26,46.39,-849.12,527.34,0.95,4.39,2.74,-138.37
12311,775.00,767.50,758.20,756.37,764.27,63.48,-868.16,529.79,4.82,2.93,0.75,-138.66
12346,775.00,767.49,758.26,756.44,764.30,49.32,-864.75,524.41,-2.14,0.95,-1.65,-137.84
12380,774.82,767.55,758.25,756.42,764.26,69.82,-853.03,525.88,0.20,2.73,2.92,-137.85
12416,774.61,767.61,758.29,756.52,764.26,47.36,-854.00,528.32,-0.91,-1.41,-0.52,-138.10
12450,774.53,767.68,758.35,756.59,764.29,67.38,-865.72,526.37,1.31,1.98,0.48,-137.77
12484,774.33,767.79,758.35,756.56,764.26,43.46,-867.68,526.86,-1.95,-0.65,-0.32,-137.49
12519,774.20,767.79,758.39,756.65,764.26,64.45,-870.61,546.39,3.06,2.75,-0.85,-137.43
12553,774.00,767.91,758.47,756.68,764.27,38.57,-862.79,536.13,0.91,-0.27,2.13,-136.27
12587,773.70,767.88,758.49,756.67,764.19,51.76,-859.37,539.55,-0.97,2.07,0.31,-134.23
12621,773.40,767.94,758.65,756.73,764.18,219.24,-1081.54,517.58,-23.08,-16.98,4.27,-130.76
12656,773.38,768.04,758.59,756.82,764.21,-9.77,-761.23,518.07,11.50,4.10,0.37,-134.23
12690,773.40,768.06,758.53,756.78,764.19,120.61,-906.74,531.25,2.18,6.49,1.34,-135.29
12724,773.47,768.04,758.53,756.82,764.21,48.83,-844.24,529.79,-1.72,3.05,1.76,-135.92
12759,773.36,768.11,758.62,756.79,764.22,55.18,-849.12,520.02,2.54,0.97,-0.27,-133.39
12793,773.35,768.14,758.56,756.78,764.21,57.13,-879.88,530.76,-0.67,2.54,0.62,-135.11
12827,773.36,768.09,758.63,756.82,764.23,37.60,-875.00,522.46,3.42,4.75,1.71,-133.50
12861,773.26,768.11,758.61,756.87,764.21,38.09,-890.14,537.60,0.30,3.67,1.70,-134.70
12896,773.16,768.14,758.63,756.87,764.20,52.73,-879.39,533.20,0.98,0.21,-0.76,-134.10
12930,773.12,768.20,758.64,756.92,764.22,53.22,-884.28,522.95,-0.68,2.54,-0.40,-134.65
12964,773.03,768.19,758.67,756.88,764.19,54.20,-867.68,534.18,1.17,1.86,1.25,-133.00
12998,772.99,768.26,758.67,756.86,764.20,63.48,-859.37,537.11,0.01,-0.23,0.74,-133.10
13031,772.99,768.21,758.73,756.93,764.21,58.11,-872.07,521.00,1.66,2.53,-2.58,-132.26
13065,772.98,768.22,758.74,756.92,764.21,58.11,-873.05,527.83,1.73,2.56,0.10,-132.01
13099,772.82,768.20,758.74,756.89,764.16,55.66,-864.75,526.37,-0.44,-0.33,1.14,-130.69
13133,772.86,768.18,758.75,756.85,764.16,49.80,-857.42,531.74,0.25,2.08,1.31,-129.85
13166,772.90,768.22,758.71,756.86,764.17,64.45,-870.61,532.23,-1.24,2.70,-1.63,-131.52
13201,773.01,768.13,758.76,756.89,764.20,52.73,-861.82,534.18,1.04,2.40,0.73,-130.40
13235,773.06,768.11,758.64,756.88,764.17,69.82,-859.86,538.09,0.92,1.29,0.06,-133.16
13268,773.06,768.06,758.67,756.84,764.16,55.18,-854.98,538.57,0.97,2.52,1.76,-131.56
13302,773.08,768.02,758.73,756.86,764.17,63.96,-865.72,546.39,0.31,0.58,1.59,-130.23
13336,773.04,768.08,758.65,756.88,764.16,49.32,-863.77,521.48,1.45,2.95,-0.48,-132.78
13372,773.08,767.99,758.65,756.84,764.14,65.92,-858.40,528.32,0.43,0.44,-0.22,-131.54
13406,773.00,768.03,758.66,756.81,764.12,53.22,-859.37,537.11,-0.68,1.79,1.50,-130.82
13440,773.03,767.92,758.65,756.81,764.10,61.52,-867.19,525.88,0.93,-0.26,-0.98,-130.29
13474,773.01,767.91,758.65,756.85,764.10,61.52,-871.58,525.88,-1.05,-0.75,-1.89,-130.67
13509,772.96,767.92,758.69,756.74,764.08,48.34,-867.19,521.97,1.29,1.59,-0.27,-127.96
13543,772.95,767.83,758.77,756.70,764.06,77.15,-836.43,527.83,2.15,1.95,1.42,-124.79
13577,772.76,767.88,758.81,756.70,764.04,62.99,-860.84,521.00,0.30,-0.43,-2.03,-123.37
13611,772.72,767.68,758.89,756.61,763.98,52.25,-874.51,535.16,0.91,0.92,0.00,-118.37
13646,772.51,767.65,759.07,756.61,763.96,34.18,-870.61,522.46,2.15,-2.23,0.89,-113.15
13680,772.36,767.37,759.43,756.58,763.93,41.50,-859.37,542.48,5.05,-0.19,-0.89,-100.70
13714,772.30,767.02,760.11,756.38,763.95,39.06,-869.63,533.20,4.44,-4.30,-2.02,-77.86
13748,772.32,766.73,760.77,756.28,764.03,64.94,-866.21,541.50,4.83,-1.48,-0.02,-57.92
13783,772.26,766.57,761.21,756.29,764.08,58.59,-860.35,552.25,7.98,-3.26,-0.77,-45.60
13817,772.33,766.55,761.39,756.34,764.15,61.52,-856.93,542.48,3.90,-2.72,-2.01,-41.95
13851,772.43,766.39,761.37,756.54,764.18,81.54,-854.98,549.32,5.24,-0.21,-3.27,-44.21
13885,772.72,766.24,761.42,756.77,764.29,59.57,-844.73,552.73,4.15,-0.71,-3.61,-46.25
13920,772.78,766.27,761.48,757.10,764.41,67.87,-846.68,561.52,1.82,2.07,0.23,-50.14
13954,772.72,766.21,761.58,757.35,764.46,61.52,-848.14,558.11,0.34,0.13,0.41,-50.61
13988,772.77,766.21,761.63,757.59,764.55,72.27,-862.30,558.59,3.03,1.66,-3.47,-52.89
14022,772.98,766.11,761.59,757.91,764.65,62.99,-838.87,562.01,2.80,-0.13,-0.43,-58.46
14057,773.14,766.09,761.69,758.11,764.76,71.29,-841.31,558.11,0.53,0.95,-1.13,-59.38
14091,773.31,765.96,761.84,758.37,764.87,74.71,-852.05,563.48,0.99,1.04,1.23,-59.08
14125,773.51,765.84,761.98,758.61,764.98,82.03,-836.43,561.04,1.37,0.35,-1.61,-58.88
14159,773.70,765.84,762.09,758.81,765.11,89.84,-848.14,557.62,0.63,0.36,0.37,-59.59
14194,774.00,765.78,762.26,758.92,765.24,100.10,-839.84,569.82,0.67,0.43,-1.89,-57.55
14228,774.33,765.72,762.33,759.06,765.36,77.64,-849.61,562.50,0.99,2.05,0.40,-58.68
14262,774.95,765.72,762.22,759.11,765.50,95.21,-832.03,562.99,3.20,2.02,1.14,-64.24
14296,776.05,765.94,762.19,759.32,765.87,90.82,-832.03,586.43,4.46,2.75,-0.40,-73.44
14332,778.06,766.08,762.11,759.57,766.45,96.68,-845.21,557.13,4.60,3.58,-2.97,-87.32
14366,781.95,766.48,762.18,759.96,767.64,81.05,-843.26,572.27,8.95,6.15,0.32,-107.87
14401,788.17,767.16,762.24,760.56,769.53,82.52,-834.47,553.22,8.28,6.34,-2.31,-141.99
14435,797.64,767.97,762.48,761.36,772.36,82.52,-838.87,562.99,9.16,5.11,-2.59,-186.81
14469,808.10,768.41,762.77,762.26,775.38,62.50,-841.80,574.71,9.23,4.05,-1.84,-232.17
14503,814.07,768.66,763.03,763.03,777.20,67.38,-839.36,568.85,9.63,1.07,-2.49,-259.59
14538,814.55,768.68,762.96,763.35,777.38,83.01,-812.50,593.75,1.56,3.10,0.52,-267.80
14572,813.35,768.45,762.78,763.31,776.97,77.64,-830.08,595.70,-0.25,3.25,-0.53,-265.73
14606,812.48,768.10,762.60,763.03,776.55,86.91,-828.61,596.68,-1.30,1.61,-1.05,-260.38
14639,812.82,767.67,762.38,762.70,776.39,82.52,-831.54,598.14,-1.15,1.18,-1.44,-258.61
14673,814.10,767.05,762.19,762.26,776.40,94.73,-829.10,592.77,-1.32,-1.96,-0.01,-256.35
14707,816.05,766.50,761.91,761.67,776.53,77.15,-833.01,596.68,-2.56,-0.74,-3.23,-256.85
14740,817.20,766.23,761.88,761.30,776.65,87.40,-837.89,579.59,-2.59,-1.01,0.24,-253.97
14774,817.35,765.95,761.79,761.11,776.55,89.36,-834.96,589.84,-1.65,-0.24,0.70,-251.78
14809,816.61,765.90,761.82,761.20,776.38,89.36,-825.68,590.82,-2.33,1.18,1.70,-249.31
14842,815.39,766.09,761.92,761.52,776.23,86.91,-827.64,576.17,0.81,1.49,-1.78,-248.88
14876,813.85,766.22,762.08,761.95,776.03,85.45,-838.38,586.43,-1.42,3.77,0.44,-246.90
14910,811.96,766.62,762.35,762.69,775.91,82.03,-832.52,580.08,1.97,1.55,4.35,-247.82
14944,809.59,767.14,762.77,763.69,775.80,97.66,-813.48,586.43,3.41,0.95,1.80,-248.18
14978,806.57,767.82,763.26,764.86,775.63,92.29,-831.54,586.91,3.44,3.10,0.42,-248.30
15012,803.29,768.54,763.73,765.96,775.38,89.84,-832.03,582.03,3.73,5.66,4.66,-247.13
15046,799.54,769.52,764.55,767.39,775.25,79.10,-813.48,582.52,5.55,0.18,4.11,-242.84
15081,794.04,770.89,765.72,769.26,774.98,80.57,-812.50,600.10,2.69,4.38,2.34,-233.41
15115,788.11,772.57,767.19,771.21,774.77,81.54,-829.59,599.61,4.80,6.15,7.05,-218.65
15149,780.13,774.71,769.21,773.71,774.44,46.88,-811.04,601.07,4.69,4.89,5.25,-194.87
15183,771.83,777.07,771.88,776.43,774.30,69.34,-825.20,609.37,0.18,0.43,5.79,-158.83
15218,764.36,779.88,774.93,778.89,774.52,61.04,-821.29,606.93,-4.07,2.68,8.24,-116.03
15252,756.70,783.14,778.82,781.44,775.03,58.11,-876.46,558.11,-17.95,9.10,18.53,-56.32
15288,750.26,786.51,783.41,783.52,775.93,74.22,-842.29,599.12,-24.37,11.68,35.12,22.44
15322,749.13,787.94,786.42,784.35,776.96,172.36,-882.32,686.52,-42.74,15.38,47.03,77.67
15356,748.55,787.06,787.94,783.47,776.75,30.76,-906.25,613.28,-40.82,39.02,68.85,137.33
15391,747.93,783.90,789.30,781.43,775.64,-34.18,-995.61,581.05,-58.30,46.73,86.96,228.86
15425,747.13,779.18,790.09,778.94,773.83,-54.20,-971.68,540.04,-55.50,54.65,113.67,325.84
15459,745.97,773.81,789.72,775.89,771.35,-90.82,-993.65,500.98,-54.58,62.98,131.05,408.42
15493,745.09,768.51,787.46,770.47,767.88,-198.24,-1276.37,471.19,-44.76,63.70,147.40,477.53
15527,744.58,763.93,781.11,763.35,763.24,-327.15,-1395.51,441.41,25.76,69.37,150.07,462.63
15562,744.38,761.08,769.58,758.47,758.38,-349.61,-2000.00,416.50,89.58,34.66,131.83,270.61
15596,744.38,758.61,755.95,755.03,753.49,-786.62,-1917.97,604.98,169.67,11.22,75.08,1.49
15630,744.44,757.83,754.06,753.27,752.40,-1395.51,-329.59,279.30,250.13,37.06,80.03,-13.51
15664,744.34,757.51,753.96,752.99,752.20,-137.70,-1569.82,359.37,123.92,-47.38,39.61,-9.02
15699,744.27,757.43,753.76,752.65,752.03,127.93,-877.44,193.36,156.08,20.11,-6.09,-8.20
15733,744.33,757.26,753.58,752.65,751.95,206.54,-713.87,60.55,134.08,85.89,-39.05,-11.52
15767,744.28,757.15,753.51,752.62,751.89,195.31,-579.59,69.34,80.68,108.24,-85.01,-11.73
15801,744.27,757.19,753.50,752.50,751.86,178.71,-641.60,104.98,33.08,94.48,-133.88,-10.45
15836,744.35,757.05,753.45,752.41,751.82,86.43,-672.36,120.61,40.34,71.27,-165.76,-9.67
15870,744.32,757.07,753.41,752.43,751.81,-12.21,-624.02,116.21,27.79,27.11,-177.63,-10.91
15904,744.24,757.09,753.37,752.41,751.78,-20.51,-796.87,105.47,-8.39,-28.84,-196.81,-11.48
15938,744.10,757.10,753.33,752.35,751.72,-59.57,-1017.58,120.61,-25.37,-64.13,-213.49,-11.21
15973,744.15,757.13,753.36,752.36,751.75,-217.77,-1143.55,161.13,-42.69,-68.81,-225.79,-10.94
16007,744.03,757.12,753.29,752.28,751.68,-223.14,-1516.60,202.15,-79.29,-31.97,-238.02,-11.18
16041,743.96,757.10,753.25,752.23,751.64,-374.02,-1507.81,236.82,-87.63,39.21,-239.45,-10.97
16075,743.91,757.05,753.39,752.32,751.67,-511.72,-1664.55,349.12,-122.01,70.82,-222.37,-8.43
16110,743.99,757.05,753.30,752.33,751.67,-619.14,-1567.38,398.44,-95.34,87.08,-186.69,-10.84
16144,743.86,757.08,753.27,752.40,751.65,-591.31,-1337.89,519.53,-117.07,59.47,-145.60,-12.40
16178,743.85,756.98,753.33,752.31,751.62,-599.12,-1281.25,632.81,-144.31,19.83,-107.24,-8.65
16211,743.84,757.00,753.23,752.33,751.60,-557.62,-1219.73,705.08,-138.95,-16.46,-89.31,-11.83
16247,743.86,757.10,753.19,752.34,751.62,-577.64,-1110.84,543.95,-86.36,-16.71,-71.04,-13.83
16280,743.83,756.97,753.21,752.31,751.58,-834.96,-962.40,310.55,-45.25,0.72,-50.73,-11.57
16314,743.82,757.10,753.22,752.25,751.60,-1105.96,-507.81,306.15,-94.71,-13.63,-12.15,-11.34
16348,744.29,757.03,753.15,752.24,751.68,-831.54,-976.56,470.70,-96.76,-3.49,74.11,-14.23
16382,748.81,757.15,753.27,752.18,752.85,1999.94,-2000.00,-2000.00,250.13,250.13,119.37,-26.77
16416,757.70,757.73,753.12,752.11,755.16,267.58,-1174.32,499.51,134.33,75.76,151.16,-64.50
16450,784.93,761.14,753.29,752.18,762.88,278.32,-169.43,1453.61,200.12,126.69,158.28,-182.06
16484,806.03,764.28,755.34,753.00,769.66,75.68,197.27,895.51,250.13,56.98,12.48,-240.69
16518,812.60,765.51,757.13,754.72,772.49,370.12,-1154.79,657.71,25.76,-20.53,-0.07,-253.84
16552,816.81,766.79,757.82,755.24,774.17,143.07,-982.42,507.81,-13.38,-5.20,1.44,-269.12
16586,822.46,767.81,758.55,755.97,776.20,78.61,-877.44,514.16,4.83,3.65,2.50,-289.17
16621,824.97,768.97,759.36,756.94,777.56,97.17,-847.66,527.34,9.08,5.39,1.05,-301.29
16655,822.82,770.29,760.01,757.95,777.77,101.07,-882.81,539.06,5.12,4.15,3.97,-303.09
16689,818.18,771.10,761.15,759.33,777.44,75.20,-846.19,580.08,11.40,4.41,1.05,-285.42
16723,810.71,771.70,762.19,760.56,776.29,89.36,-836.91,574.71,7.31,4.82,3.82,-256.86
16758,803.68,772.31,763.09,761.64,775.18,79.59,-841.80,558.59,5.75,4.63,-0.19,-231.15
16792,798.92,772.83,764.22,762.85,774.70,49.80,-855.47,563.96,6.65,2.37,1.28,-208.65
16826,796.14,773.30,765.50,764.30,774.81,88.38,-858.89,604.00,8.14,2.87,0.16,-192.39
16860,793.59,773.60,767.08,765.96,775.06,96.19,-845.21,571.29,7.56,-0.95,-0.22,-171.20
16895,790.22,773.98,768.82,768.08,775.27,72.75,-797.85,579.59,6.29,-3.40,0.42,-150.44
16929,784.22,774.87,770.37,770.51,774.99,88.87,-798.83,617.19,6.25,-0.25,1.22,-134.25
16963,775.62,776.64,772.24,773.25,774.44,76.17,-842.77,581.05,4.42,4.06,4.43,-112.48
16997,765.71,779.62,774.87,777.19,774.35,59.08,-805.18,596.68,3.97,9.28,4.37,-95.07
17032,756.46,782.70,778.25,781.06,774.62,87.40,-923.83,591.80,-1.25,22.34,29.69,-60.76
17066,749.91,784.58,781.63,784.18,775.08,70.80,-837.40,588.87,-24.50,19.94,38.86,-14.84
17100,748.92,784.49,784.32,785.34,775.77,114.26,-891.11,646.00,-42.00,3.77,54.89,39.05
17134,748.52,781.86,785.99,784.10,775.12,20.02,-896.48,633.79,-59.82,50.27,71.01,121.42
17169,747.95,776.90,786.76,780.76,773.09,45.41,-994.63,644.53,-64.36,57.05,94.50,231.51
17205,747.06,770.34,787.23,775.46,770.02,-57.62,-1304.20,492.68,-25.91,61.40,127.80,376.90
17239,745.98,765.53,785.95,769.15,766.65,-99.61,-1413.57,365.72,19.89,50.47,177.40,480.10
17273,745.07,761.66,779.28,762.51,762.13,-245.61,-1537.11,410.64,77.65,44.38,218.79,445.86
17307,744.74,759.65,768.25,757.15,757.45,-211.43,-1646.48,455.08,115.55,27.28,211.40,267.29
17341,744.80,758.34,755.13,754.23,753.12,35.64,-1172.36,239.26,200.34,5.95,195.57,-6.32
17376,744.86,757.78,754.20,753.10,752.49,154.30,-1060.06,217.77,32.94,-6.08,123.61,-8.69
17410,744.78,757.62,753.98,752.83,752.30,373.54,-922.36,20.02,21.85,-17.98,-47.11,-8.50
17444,744.78,757.38,753.80,752.67,752.16,338.38,-477.54,9.77,-29.27,-27.34,-138.79,-8.81
17478,744.71,757.30,753.67,752.52,752.05,276.37,-557.13,169.43,-94.73,-49.53,-184.56,-9.06
17513,744.62,757.21,753.57,752.45,751.96,148.93,-704.59,327.64,-91.01,-65.20,-214.33,-9.24
17547,744.56,757.18,753.53,752.43,751.92,-38.57,-821.78,467.29,-119.21,-92.89,-224.74,-9.56
17581,744.42,757.11,753.46,752.33,751.83,-163.57,-1171.39,571.78,-132.75,-73.92,-221.52,-8.89
17615,744.40,757.14,753.45,752.33,751.83,-187.50,-1458.01,599.61,-111.53,0.57,-209.77,-9.37
17650,744.39,757.04,753.43,752.42,751.82,-535.64,-1501.95,660.16,-92.34,65.26,-195.44,-10.28
17684,744.31,757.02,753.43,752.40,751.79,-904.79,-1357.91,712.89,-96.15,91.82,-176.93,-9.49
17718,744.24,757.07,753.46,752.40,751.79,-1217.29,-791.50,885.74,-152.15,59.21,-127.47,-9.03
17751,744.27,757.10,753.45,752.35,751.79,-1114.26,-1212.89,936.52,-132.24,16.14,-54.97,-8.72
17785,744.28,757.01,753.41,752.27,751.74,-1327.64,-621.09,801.27,-32.01,-3.50,-2.73,-7.78
17819,744.34,757.09,753.40,752.29,751.78,-1284.67,-509.28,696.78,-128.53,-84.08,27.95,-9.35
17852,747.06,757.14,753.35,752.29,752.46,1163.09,-1722.17,-2000.00,250.13,210.25,118.02,-20.15
17886,749.97,758.72,753.42,752.23,753.59,813.48,-2000.00,-0.49,129.93,-109.77,106.85,-40.25
17921,766.67,760.00,753.57,752.47,758.18,-25.88,34.18,789.06,154.39,-78.39,-8.17,-107.68
17955,778.10,761.91,754.71,753.63,762.09,-309.08,-111.82,1268.55,-4.78,-68.22,4.47,-150.84
17988,780.28,763.23,755.15,754.31,763.24,-148.93,-642.09,625.98,-19.42,1.98,4.79,-168.18
18022,785.15,765.39,755.57,754.99,765.27,3.42,-720.21,584.47,23.34,24.27,5.20,-201.66
18056,798.95,768.08,756.50,756.35,769.97,28.81,-755.37,593.26,36.56,12.71,3.69,-267.31
18090,810.31,770.62,757.73,758.36,774.25,73.24,-839.36,585.94,31.31,4.22,4.24,-325.57
18124,812.36,772.49,758.68,760.11,775.91,75.68,-848.63,584.96,7.81,3.99,4.82,-349.72
18160,808.26,773.89,759.46,761.53,775.79,84.96,-837.89,589.36,4.92,1.88,-0.90,-348.57
18194,799.90,774.64,760.17,762.69,774.35,59.57,-829.10,573.73,7.53,5.86,1.34,-325.03
18229,791.64,774.99,760.98,763.71,772.83,77.64,-835.45,591.31,10.79,2.63,0.58,-294.41
18263,786.62,775.01,761.62,764.42,771.92,67.87,-817.38,595.21,10.05,3.20,-1.95,-271.82
18297,785.81,774.97,762.44,765.03,772.06,68.36,-823.73,579.10,6.87,0.56,-0.34,-257.15
18331,787.41,774.99,763.23,765.63,772.82,85.94,-778.32,589.84,8.36,-3.27,-2.61,-252.12
18366,788.82,775.33,764.09,766.59,773.71,64.45,-826.66,601.56,5.44,0.37,1.78,-252.39
18400,789.26,775.69,764.80,767.38,774.28,63.48,-823.73,606.45,2.90,1.11,-4.29,-250.81
18434,788.66,775.59,765.34,768.00,774.40,63.48,-827.15,589.84,3.18,-1.35,-1.46,-243.55
18468,788.08,775.16,766.03,768.36,774.41,61.52,-808.11,626.95,4.30,0.44,-0.51,-226.26
18503,787.74,774.56,766.39,768.44,774.28,82.52,-805.66,610.35,4.66,-2.37,-3.03,-212.44
18537,787.51,774.07,766.72,768.57,774.22,65.92,-820.31,612.79,3.22,-0.69,-4.95,-201.40
18571,787.31,773.48,766.97,768.71,774.12,83.98,-806.64,609.86,1.98,-1.40,-2.36,-191.70
18605,786.74,773.35,767.09,768.73,773.98,64.94,-800.78,592.77,-0.85,-2.31,-3.03,-186.07
18640,784.90,773.49,767.24,769.28,773.73,85.45,-820.80,604.98,1.08,1.80,1.56,-185.22
18674,782.79,773.72,767.43,769.92,773.46,77.15,-807.62,608.89,1.40,3.36,3.14,-184.45
18708,779.63,774.07,767.72,770.63,773.02,61.04,-796.39,592.29,-2.86,1.31,-0.09,-179.81
18742,774.88,774.79,768.39,771.75,772.45,80.08,-800.78,610.84,0.95,2.73,1.85,-169.06
18777,768.78,776.23,769.54,773.64,772.05,82.52,-797.85,607.91,-0.43,7.24,6.25,-158.71
18811,761.09,778.12,771.64,776.21,771.77,68.85,-835.45,626.46,-8.53,9.19,5.94,-133.04
18845,753.99,779.56,773.79,778.49,771.46,54.69,-831.05,584.96,-13.23,16.92,19.27,-100.22
18879,749.39,780.03,775.75,780.14,771.33,85.45,-887.70,598.63,-19.37,28.44,36.07,-63.78
18914,748.32,778.79,777.80,779.73,771.16,-6.84,-888.18,529.30,-18.69,42.96,50.94,6.90
18948,747.66,776.38,779.91,776.41,770.09,19.04,-743.65,700.68,-46.95,53.74,73.32,129.98
18982,746.92,774.08,780.34,771.23,768.14,-34.18,-853.03,615.23,-65.27,66.12,86.97,237.84
19016,746.24,771.38,778.92,766.24,765.70,-100.10,-1070.80,479.00,-60.98,59.85,105.59,300.02
19051,745.51,767.82,775.37,761.53,762.56,-138.18,-1137.21,506.84,-67.73,48.76,129.33,311.95
19085,744.89,763.72,768.54,757.61,758.69,-303.22,-1309.57,604.49,-82.89,29.66,141.52,234.57
19121,744.78,760.83,757.19,755.02,754.45,-875.98,-1698.24,356.93,-85.44,6.15,114.92,13.45
19155,744.81,759.43,754.60,753.33,753.04,593.75,-1290.53,195.31,76.18,-45.66,54.86,-15.19
19189,744.89,758.71,754.21,753.04,752.71,354.00,-444.82,166.99,62.85,-43.01,-35.96,-15.22
19223,744.84,758.28,753.89,752.69,752.43,329.10,-332.52,74.71,47.22,-54.56,-63.26,-14.28
19258,744.82,758.02,753.76,752.54,752.28,399.90,-256.84,152.83,24.24,-61.96,-96.93,-13.01
19291,744.73,757.93,753.72,752.39,752.19,355.47,-311.04,254.39,-0.24,-50.26,-127.28,-11.08
19325,744.66,757.78,753.61,752.43,752.12,214.36,-435.06,350.59,5.34,-17.27,-126.51,-12.70
19359,744.60,757.65,753.57,752.40,752.05,145.02,-907.71,530.27,-57.79,-9.46,-148.63,-12.03
19392,744.46,757.62,753.57,752.30,751.99,-130.37,-1279.30,622.56,-47.08,17.05,-167.36,-10.04
19426,744.40,757.53,753.53,752.39,751.96,-417.97,-1368.65,531.25,-27.53,51.51,-157.94,-11.43
19460,744.33,757.47,753.49,752.30,751.90,-491.21,-1351.07,451.17,-26.43,83.75,-132.32,-10.16
19494,744.32,757.45,753.48,752.32,751.89,-562.99,-1259.77,425.78,-27.33,92.76,-95.85,-10.68
19528,744.26,757.40,753.51,752.31,751.87,-606.93,-1070.31,358.89,-8.37,92.70,-48.03,-8.99
19562,744.34,757.21,753.47,752.39,751.85,-626.46,-833.01,479.00,-13.50,74.84,5.20,-10.04
19596,744.96,757.64,753.56,752.30,752.11,-850.10,-941.89,552.25,-66.27,41.32,69.64,-11.85
19630,748.76,757.87,753.73,752.42,753.19,-604.00,-139.16,1211.43,-140.08,-60.40,-12.11,-24.35
19664,755.10,759.25,754.38,752.68,755.36,-70.31,-395.51,475.59,34.02,-31.68,16.97,-44.91
19698,762.06,760.16,755.16,753.08,757.62,-4.39,-707.03,490.23,7.09,-5.91,1.08,-62.41
19732,767.16,760.89,755.73,753.34,759.28,39.55,-759.28,604.00,7.63,11.48,3.73,-75.53
19767,774.28,761.73,755.98,753.47,761.36,80.08,-878.91,517.09,11.12,9.92,1.31,-102.42
19801,788.83,762.92,756.53,753.86,765.53,76.66,-902.34,506.84,16.07,2.97,2.32,-153.89
19835,807.54,764.23,757.62,754.41,770.95,74.71,-904.30,499.51,20.71,0.48,2.64,-209.56
19869,825.23,765.46,758.69,755.03,776.10,104.00,-873.54,533.69,21.05,0.74,-0.89,-262.63
19904,833.71,766.24,759.27,755.73,778.74,96.68,-848.14,527.34,7.27,1.69,-2.22,-293.76
19938,833.86,766.38,759.44,756.11,778.95,83.50,-872.56,539.06,3.80,3.41,-1.26,-296.78
19972,831.12,766.42,759.52,756.33,778.35,78.12,-859.37,547.36,3.15,3.02,0.69,-288.74
20006,827.34,766.60,759.56,756.38,777.47,82.52,-866.70,540.53,4.24,1.63,-1.32,-277.03
20041,824.61,766.95,760.11,756.80,777.12,52.25,-843.75,510.25,5.26,4.47,2.80,-262.99
20076,823.77,767.43,760.98,757.46,777.41,83.01,-834.47,551.27,8.21,1.53,2.31,-252.09
20111,823.51,767.73,761.65,757.93,777.71,44.43,-852.54,565.92,3.50,-0.93,-1.79,-243.90
20145,820.12,767.77,761.77,758.01,776.92,84.96,-854.00,553.22,-0.88,2.21,1.74,-230.69
20179,814.30,767.61,761.72,757.95,775.40,83.01,-867.19,548.83,-0.79,2.37,1.76,-209.72
20213,808.09,767.43,761.52,757.78,773.70,83.01,-849.61,556.64,-3.92,1.27,1.32,-189.48
20248,803.46,767.38,761.27,757.80,772.48,92.77,-852.05,536.13,-5.98,3.15,-0.37,-179.72
20282,800.87,767.32,760.92,757.85,771.74,77.15,-855.47,538.09,-1.59,3.20,2.58,-179.69
20316,799.01,767.27,760.55,757.89,771.18,80.57,-847.17,547.85,-0.82,1.69,4.21,-182.89
20350,797.03,767.24,760.31,757.90,770.62,70.31,-863.77,550.29,0.31,3.24,0.53,-182.04
20385,793.05,767.15,760.26,757.83,769.58,79.59,-855.96,544.43,0.26,4.67,0.26,-167.77
20419,788.00,767.05,760.12,757.73,768.23,49.32,-857.91,552.25,1.95,1.60,0.59,-151.66
20453,783.08,766.93,759.97,757.67,766.91,62.01,-859.86,563.96,-4.05,3.36,2.45,-136.63
20487,779.45,766.83,759.71,757.46,765.86,67.38,-865.23,536.13,0.49,0.88,1.08,-126.72
20522,777.05,766.61,759.64,757.27,765.14,60.55,-848.63,554.69,-1.89,1.43,0.66,-115.77
20556,775.96,766.28,759.70,757.08,764.76,72.75,-872.07,529.79,1.35,-0.80,1.60,-105.19
20590,776.20,765.86,759.86,756.80,764.68,67.87,-858.40,548.83,5.61,-2.98,-1.65,-94.36
20624,776.97,765.63,760.27,756.67,764.89,78.12,-859.86,542.97,3.38,-3.33,0.57,-83.03
20659,777.59,765.63,760.53,756.61,765.09,63.96,-852.05,553.22,1.50,0.29,1.30,-77.80
20693,778.30,765.67,760.62,756.60,765.30,65.43,-851.56,546.87,2.70,2.37,1.97,-78.38
20727,779.19,765.61,760.72,756.54,765.51,67.38,-846.19,543.46,0.28,0.93,1.63,-77.28
20761,779.98,765.63,760.70,756.44,765.69,75.68,-855.47,537.11,-0.67,0.18,0.81,-79.52
20796,780.28,765.47,760.66,756.37,765.70,74.71,-857.42,559.08,-0.41,-1.86,-1.53,-78.98
20830,780.26,765.49,760.73,756.30,765.70,72.27,-851.07,548.34,1.13,-1.87,-0.92,-76.43
20864,780.19,765.44,760.75,756.25,765.66,64.45,-863.77,539.55,2.98,-0.29,-0.85,-74.44
20898,780.19,765.43,760.74,756.18,765.63,72.27,-850.10,559.08,-3.04,0.73,0.20,-73.72
20932,780.16,765.49,760.70,756.27,765.66,69.82,-852.54,544.92,1.38,0.70,-1.40,-76.22
20965,780.24,765.54,760.78,756.24,765.70,80.57,-850.10,541.50,2.34,3.84,2.51,-74.55
20999,780.14,765.65,760.86,756.40,765.77,67.38,-860.84,541.02,2.04,-0.46,1.47,-75.45
21034,779.83,765.66,760.97,756.52,765.74,75.68,-856.93,546.39,2.16,2.40,0.75,-73.64
21068,779.72,765.88,761.13,756.72,765.86,77.64,-843.75,552.73,2.41,2.48,-3.11,-73.66
21102,779.65,766.23,761.33,756.91,766.03,62.99,-859.86,555.18,0.96,3.69,1.49,-74.21
21136,779.48,766.42,761.57,757.22,766.17,64.94,-857.42,557.13,0.76,3.30,0.61,-73.70
21170,778.80,766.71,761.74,757.49,766.19,79.59,-863.77,564.94,4.17,2.63,0.56,-73.40
21204,777.69,766.97,762.06,757.69,766.10,68.36,-854.00,551.27,1.38,1.01,1.19,-66.82
21238,776.40,767.20,762.28,757.88,765.94,65.92,-845.21,549.32,1.68,0.24,2.25,-61.47
21272,775.40,767.48,762.57,758.16,765.90,63.48,-846.68,556.64,1.29,0.34,0.16,-57.21
21306,774.38,767.76,762.90,758.50,765.89,88.38,-837.89,531.25,2.56,0.71,1.37,-52.63
21340,773.42,767.95,763.15,758.77,765.82,59.08,-836.43,570.31,2.35,2.04,-0.47,-48.87
21374,772.15,768.11,763.38,759.02,765.66,51.27,-849.12,556.15,2.81,3.15,0.82,-43.64
21409,770.83,768.34,763.57,759.22,765.49,56.64,-836.91,561.04,4.71,1.37,0.65,-39.03
21443,769.79,768.51,763.78,759.43,765.38,55.66,-846.68,550.78,1.53,3.69,0.43,-34.73
21477,769.10,768.67,763.96,759.59,765.33,58.59,-833.98,562.01,1.99,4.42,0.08,-31.62
21511,769.00,768.85,764.13,759.72,765.42,53.22,-844.24,561.52,1.43,5.63,-0.37,-30.23
21546,769.43,768.93,764.17,759.88,765.60,57.13,-839.84,568.36,1.02,2.11,-0.47,-33.71
21580,770.09,768.97,764.11,759.81,765.75,54.20,-833.50,566.89,-0.57,0.69,1.22,-36.77
21614,770.46,768.95,764.09,759.79,765.82,54.20,-856.45,561.52,-2.19,1.68,-0.64,-38.11
21649,770.67,768.91,764.04,759.64,765.82,65.43,-842.29,543.46,0.18,2.04,3.27,-37.61
21683,770.98,768.97,764.05,759.59,765.90,64.94,-844.24,559.08,-1.20,1.86,0.50,-38.07
21717,771.93,768.96,764.02,759.48,766.10,48.34,-831.05,558.11,-1.27,2.19,-1.79,-40.39
21751,772.85,768.93,763.98,759.44,766.30,68.36,-844.73,557.62,-3.01,-0.71,-0.92,-43.65
21786,773.23,768.87,763.93,759.41,766.36,65.43,-851.56,552.25,-0.35,2.02,-0.53,-45.35
21820,773.07,768.77,763.90,759.12,766.21,69.34,-848.63,558.11,0.01,-0.21,-1.47,-40.48
21854,772.85,768.69,763.80,759.05,766.10,59.08,-843.75,559.08,-0.27,0.25,-0.31,-40.73
21889,773.40,768.61,763.65,758.80,766.11,57.13,-849.61,554.20,-1.33,1.73,0.29,-42.05
21923,774.05,768.45,763.60,758.65,766.19,76.66,-844.24,556.15,0.63,1.02,0.50,-41.73
21957,774.70,768.29,763.54,758.49,766.25,71.78,-842.29,558.11,0.34,-0.26,1.91,-42.02
21993,774.92,768.20,763.53,758.38,766.26,70.31,-845.70,548.34,1.94,-1.25,0.53,-40.55
22027,774.67,767.93,763.49,758.35,766.11,68.36,-842.29,557.62,1.41,0.85,0.11,-38.24
22061,774.46,767.71,763.52,758.25,765.99,61.04,-838.38,563.96,2.29,1.79,-0.32,-33.44
22096,774.56,767.53,763.46,758.19,765.93,49.32,-834.96,557.13,0.59,0.48,-0.10,-32.92
22130,774.82,767.25,763.39,758.06,765.88,64.94,-839.84,560.55,0.34,0.41,-1.21,-31.44
22164,774.97,767.17,763.34,758.02,765.87,66.89,-857.42,557.13,0.99,-0.80,0.14,-31.98
22199,775.00,767.02,763.30,758.00,765.83,79.59,-849.12,555.18,-0.30,-0.05,1.04,-31.50
22233,775.04,766.91,763.30,757.88,765.78,57.62,-841.80,552.25,0.39,-0.33,-0.73,-29.05
22267,775.25,766.79,763.34,757.86,765.81,66.89,-844.73,564.45,1.79,0.69,0.14,-27.55
22301,775.47,766.67,763.29,757.90,765.83,62.01,-841.31,561.52,-2.48,3.53,0.48,-29.26
22336,775.64,766.64,763.26,757.88,765.86,63.96,-835.94,558.11,-3.36,3.21,-0.66,-29.90
22370,775.69,766.54,763.26,757.90,765.85,65.43,-857.91,547.85,-1.09,2.27,-3.83,-29.58
22404,775.54,766.27,763.36,757.77,765.74,67.38,-851.07,540.53,-2.89,0.86,-1.95,-22.46
22438,775.04,766.03,763.48,757.67,765.56,70.80,-843.75,551.76,-1.26,0.19,-1.82,-14.38
22473,774.44,765.65,763.70,757.66,765.36,82.03,-848.63,556.64,1.05,-2.98,0.08,-3.71
22506,773.87,765.40,763.94,757.63,765.21,83.98,-834.47,553.71,-2.15,-1.75,-0.92,6.75
22540,773.20,765.14,764.17,757.56,765.02,86.91,-851.07,555.66,-0.14,-0.08,-1.84,17.76
22574,772.61,764.91,764.32,757.57,764.85,84.47,-839.36,558.11,-1.62,1.08,-1.24,25.40
22608,771.90,764.77,764.45,757.53,764.66,77.64,-850.10,548.83,0.77,0.38,-1.03,32.73
22641,771.23,764.67,764.60,757.47,764.49,85.45,-856.45,548.83,-0.32,0.81,-0.23,40.39
22675,770.83,764.56,764.76,757.56,764.43,89.36,-845.21,561.52,2.28,-1.47,0.93,45.29
22709,771.03,764.47,764.95,757.49,764.49,84.47,-835.94,560.06,1.14,2.53,-0.27,51.03
22743,771.71,764.62,765.03,757.63,764.75,77.64,-848.63,557.62,1.27,0.43,1.66,47.58
22777,773.09,764.75,765.14,757.65,765.16,79.59,-843.26,574.71,2.35,2.64,0.31,44.05
22811,774.70,764.88,765.20,757.76,765.64,72.27,-851.56,557.62,2.08,2.10,3.20,37.59
22845,776.59,765.13,765.30,757.83,766.21,85.94,-841.80,567.87,2.71,4.63,0.36,30.47
22879,778.71,765.22,765.25,757.94,766.78,78.12,-846.68,559.08,-0.03,4.11,0.79,19.66
22913,781.87,765.36,765.21,757.86,767.57,72.75,-839.84,558.11,1.62,3.64,0.64,7.74
22949,787.04,765.58,765.19,757.89,768.92,79.10,-845.21,563.48,2.77,2.27,0.68,-12.46
22983,794.68,765.94,765.12,757.91,770.91,86.43,-839.36,562.50,2.73,1.53,1.41,-43.86
23018,802.06,766.12,765.19,757.98,772.84,87.40,-850.59,574.22,1.24,2.18,1.27,-69.85
23052,807.28,766.28,764.87,757.87,774.07,92.77,-838.87,565.92,-0.11,2.24,0.75,-95.44
23086,811.15,766.27,764.63,757.71,774.94,83.98,-858.40,572.27,0.99,1.61,0.00,-112.17
23121,813.68,766.04,764.32,757.50,775.39,78.12,-857.91,562.50,-0.13,0.09,-0.62,-123.60
23155,815.08,765.69,763.96,757.25,775.50,76.17,-848.63,560.06,-2.45,4.24,-0.66,-130.88
23189,816.00,765.48,763.51,756.93,775.48,71.78,-838.38,568.85,-5.26,0.69,0.03,-138.97
23223,816.60,765.18,763.13,756.57,775.37,67.38,-855.47,553.71,-0.05,-0.37,-0.02,-142.56
23258,816.93,765.10,762.86,756.42,775.33,78.61,-848.63,559.57,-0.85,0.57,1.51,-147.65
23292,816.41,765.04,762.80,756.36,775.16,82.52,-858.40,554.20,-0.60,0.92,1.46,-146.06
23326,814.84,765.05,762.71,756.23,774.71,90.82,-831.54,563.48,0.26,1.17,0.49,-141.14
23360,812.96,764.93,762.58,756.22,774.17,79.59,-845.70,562.01,1.20,0.05,-0.98,-136.95
23395,810.38,764.85,762.42,756.12,773.44,90.33,-849.61,559.57,-2.85,2.66,-0.14,-129.75
23429,807.77,764.85,762.34,756.14,772.78,73.73,-849.61,546.87,-0.13,0.69,-1.26,-123.01
23463,805.26,764.75,762.28,756.08,772.09,81.05,-851.56,555.18,-2.16,0.87,-0.39,-114.22
23498,802.09,764.62,762.08,755.97,771.19,75.20,-871.58,556.15,-7.11,2.56,0.08,-105.71
23532,797.92,764.49,761.77,755.86,770.01,80.57,-863.28,541.50,-2.78,3.24,2.75,-96.43
23566,792.69,764.23,761.25,755.75,768.48,83.98,-863.28,546.39,-3.39,1.31,1.07,-87.97
23600,787.33,763.85,760.45,755.55,766.79,85.94,-849.61,547.36,-4.39,2.23,0.87,-83.26
23635,782.97,763.50,759.89,755.26,765.41,81.54,-871.09,539.06,-3.53,3.77,0.87,-75.36
23669,779.46,763.27,759.56,754.99,764.32,81.05,-861.33,534.18,-1.83,1.01,1.85,-65.61
23703,776.47,763.08,759.49,754.79,763.46,99.61,-854.98,529.30,-2.27,0.50,0.14,-52.86
23737,774.12,762.91,759.47,754.77,762.82,85.94,-858.40,534.67,0.93,-2.01,0.08,-43.60
23772,772.37,762.91,759.46,754.57,762.33,75.20,-859.37,532.71,-1.29,-0.76,3.05,-34.71
23806,770.98,762.76,759.49,754.50,761.93,80.08,-858.89,539.55,-0.37,0.47,-0.28,-26.98
23840,769.90,762.69,759.56,754.45,761.65,93.26,-858.89,523.93,0.89,1.47,2.58,-20.35
23875,769.54,762.68,759.54,754.38,761.54,81.05,-848.63,531.74,1.44,1.60,-0.60,-18.27
23910,769.46,762.78,759.53,754.36,761.53,62.50,-869.14,537.60,3.11,1.44,2.29,-18.78
23945,769.54,762.85,759.63,754.46,761.62,70.80,-858.89,536.13,-2.00,0.25,-0.93,-18.84
23979,769.81,762.86,759.62,754.51,761.70,70.31,-860.35,549.32,0.44,2.24,0.47,-20.79
24013,770.24,763.01,759.63,754.48,761.84,77.64,-858.40,543.95,0.84,1.92,2.01,-22.70
24048,770.55,763.05,759.70,754.58,761.97,71.29,-872.56,544.43,-1.57,4.19,-0.23,-23.84
24082,770.69,763.14,759.65,754.60,762.02,75.20,-869.14,540.53,0.27,0.65,3.00,-26.44
24116,771.29,763.08,759.61,754.50,762.12,80.57,-874.51,536.13,-0.84,0.02,2.01,-27.73
24150,772.08,762.99,759.56,754.37,762.25,68.36,-870.61,529.79,-1.30,-1.08,-2.16,-29.06
24184,773.11,762.97,759.50,754.23,762.45,69.82,-857.42,529.79,-6.45,1.92,1.06,-31.87
24217,774.31,762.84,759.22,754.25,762.66,78.12,-867.19,541.02,-3.60,0.80,-0.49,-42.03
24251,775.56,762.85,759.01,754.04,762.87,73.73,-868.16,522.46,-4.79,-1.54,2.26,-48.67
24285,777.34,762.74,758.86,753.92,763.22,73.24,-878.91,529.30,-1.93,0.53,-0.94,-55.73
24318,779.31,762.70,758.53,753.69,763.56,84.96,-868.65,520.02,-4.47,1.95,1.18,-67.20
24353,781.13,762.61,758.06,753.47,763.82,57.62,-857.42,536.62,-9.06,1.50,-0.52,-81.28
24387,782.84,762.47,757.49,753.18,764.00,67.87,-875.98,519.53,-12.09,2.49,-0.93,-95.68
24421,784.42,762.48,757.04,753.06,764.25,73.24,-884.28,494.63,-14.32,0.67,1.61,-110.70
24455,786.23,762.40,756.76,752.93,764.58,96.19,-867.68,516.11,-13.40,1.02,1.93,-121.50
24489,787.50,762.31,756.53,752.84,764.80,78.61,-907.71,486.82,-15.94,0.43,1.78,-129.36
24522,787.88,762.32,756.34,752.80,764.83,74.71,-899.41,479.98,-14.76,0.85,1.63,-134.89
24556,787.76,762.27,756.21,752.67,764.73,91.80,-901.37,467.29,-8.21,-0.34,1.87,-135.43
24591,787.75,762.32,756.10,752.75,764.73,84.47,-899.41,466.80,-2.56,3.18,2.05,-139.76
24625,787.66,762.61,755.99,752.85,764.78,68.85,-903.81,470.70,5.23,2.69,0.95,-146.11
24659,787.64,762.76,756.01,752.87,764.82,80.08,-883.79,483.40,7.80,2.12,0.18,-146.96
24694,787.46,762.91,756.08,752.99,764.86,66.89,-889.65,486.82,7.41,3.49,0.67,-147.62
24728,787.41,763.22,756.05,753.10,764.94,59.08,-859.86,497.56,4.59,1.04,0.76,-152.21
24762,787.35,763.71,756.20,753.18,765.11,79.59,-905.27,486.33,8.98,2.14,3.97,-153.27
24796,787.21,763.94,756.29,753.51,765.23,66.41,-883.79,490.72,6.27,0.87,-0.02,-157.34
24831,786.86,764.24,756.40,753.55,765.26,69.82,-865.23,495.12,2.73,4.56,2.50,-156.28
24867,787.06,764.20,756.44,753.48,765.29,72.75,-895.02,503.91,-1.76,2.56,0.49,-154.78
24901,787.78,764.04,756.34,753.38,765.39,63.96,-896.97,489.75,-5.65,0.08,-3.57,-157.11
24935,788.18,763.88,756.21,753.36,765.41,76.17,-892.58,488.28,-5.07,0.37,0.36,-159.89
24969,788.20,763.74,756.12,753.22,765.32,78.12,-888.67,492.68,-5.59,0.42,1.63,-159.16
25004,788.85,763.57,756.09,753.16,765.42,63.96,-874.51,501.95,-10.34,-0.31,0.91,-159.80
25038,789.68,763.52,756.12,753.05,765.59,57.13,-894.53,484.86,-10.18,0.73,0.53,-160.09
25072,790.03,763.47,755.95,752.94,765.60,71.29,-928.71,442.87,-5.52,0.41,0.81,-163.21
25106,790.05,763.53,756.02,753.00,765.65,56.15,-923.83,447.27,8.92,-1.09,-0.50,-163.16
25141,790.00,763.37,756.08,753.09,765.64,80.08,-881.35,489.26,9.44,1.39,-0.44,-161.22
25175,789.58,763.44,756.03,753.14,765.55,52.25,-871.09,506.84,2.46,2.29,2.26,-162.52
25209,789.35,763.32,756.02,753.13,765.46,57.62,-899.90,503.91,-2.75,1.50,-3.28,-160.79
25244,789.34,763.26,755.98,753.06,765.41,76.17,-908.20,471.68,-1.97,1.20,-1.08,-160.37
25278,789.65,763.00,755.88,752.97,765.38,76.17,-889.65,482.42,-1.84,0.50,-2.35,-160.37
25312,789.75,762.67,755.85,752.85,765.28,68.36,-893.07,487.30,-5.35,-0.21,-2.37,-157.06
25346,789.88,762.68,755.80,752.70,765.26,77.15,-898.44,479.00,-1.26,0.67,-0.89,-156.64
25381,789.70,762.60,755.82,752.78,765.23,73.73,-901.37,466.31,-4.42,3.24,2.11,-156.01
25415,789.32,762.71,755.84,752.83,765.17,80.08,-885.25,488.77,-0.66,3.88,2.79,-155.88
25449,789.35,762.84,755.81,752.80,765.20,66.41,-896.00,491.21,7.99,2.46,-0.16,-157.28
25483,789.26,763.05,755.95,752.84,765.27,66.41,-877.44,501.46,11.51,4.47,2.40,-155.84
25518,788.84,763.04,756.01,753.01,765.22,48.34,-861.33,513.18,4.82,3.95,0.82,-155.40
25552,788.33,763.12,756.05,753.03,765.13,67.38,-885.25,479.49,4.13,0.60,0.44,-153.53
25586,787.95,763.22,756.07,753.14,765.09,62.99,-871.58,497.07,3.53,2.02,1.55,-154.14
25621,787.35,763.39,756.18,753.20,765.03,68.36,-891.11,498.05,2.32,3.08,0.85,-151.59
25655,786.56,763.65,756.37,753.35,764.98,64.45,-894.53,491.70,6.29,0.41,2.18,-148.36
25689,785.68,764.21,756.61,753.53,765.01,55.18,-887.21,488.77,9.48,3.03,2.52,-146.57
25723,784.74,764.43,756.84,753.75,764.94,60.06,-908.69,507.32,5.50,-0.66,3.37,-142.61
25756,784.16,764.37,756.95,753.85,764.83,45.41,-875.49,514.65,1.37,2.09,1.49,-138.82
25790,784.14,764.23,756.92,753.84,764.79,57.62,-873.05,497.56,-1.64,2.27,1.05,-138.31
25825,784.62,764.12,756.84,753.71,764.82,56.64,-863.28,505.86,-4.01,1.02,-2.34,-138.91
25859,785.74,764.07,756.81,753.58,765.05,57.13,-880.86,502.93,-11.07,-0.64,4.25,-141.47
25892,788.11,764.35,756.73,753.50,765.67,57.62,-882.32,489.26,-8.20,1.26,0.87,-152.56
25926,787.88,764.53,756.79,753.54,765.69,61.04,-880.86,479.49,1.24,-1.48,1.54,-152.38
25961,787.18,764.80,756.84,753.63,765.61,66.41,-886.72,493.65,4.42,-0.18,1.35,-152.26
25994,785.97,765.48,757.13,753.82,765.60,68.85,-883.79,488.28,10.04,3.89,2.15,-149.10
26029,785.04,766.28,757.59,754.15,765.76,54.20,-872.56,493.65,6.17,3.38,0.96,-145.55
26063,784.10,766.99,758.01,754.56,765.91,48.34,-871.58,518.55,10.11,2.03,0.52,-143.55
26097,782.05,767.61,758.30,754.76,765.68,64.94,-892.09,504.39,5.32,4.66,3.47,-137.31
26130,779.84,768.16,758.60,755.15,765.44,59.08,-864.75,518.55,6.73,5.79,1.63,-132.46
26164,777.30,768.84,758.90,755.39,765.11,48.83,-868.65,520.02,9.64,6.97,2.45,-125.38
26199,775.92,769.32,759.43,755.90,765.14,42.48,-875.00,530.27,10.06,3.52,-1.11,-118.78
26233,774.97,769.61,759.87,756.13,765.15,33.69,-846.19,525.88,5.33,3.73,1.11,-110.06
26267,774.39,769.39,759.58,756.09,764.86,45.41,-858.40,539.06,-0.57,1.18,1.12,-113.11
26302,772.70,768.57,759.00,755.55,763.95,56.64,-867.19,537.60,-6.89,0.44,0.13,-107.19
26336,772.82,768.18,758.43,755.03,763.62,49.32,-833.50,541.02,-12.61,-0.37,2.21,-111.15
26370,773.84,767.94,758.10,754.67,763.64,46.88,-885.74,505.37,-1.49,1.65,-1.27,-115.47
26404,776.95,767.48,758.06,754.48,764.24,45.41,-863.28,533.69,-5.11,-4.75,-3.12,-120.60
26439,782.31,767.00,757.81,754.12,765.31,53.22,-893.07,496.58,-7.48,-5.15,-2.18,-136.20
26473,784.35,765.78,757.51,753.74,765.35,63.48,-895.02,491.70,-6.33,-1.63,-2.41,-135.23
26507,786.47,764.73,757.17,753.30,765.42,82.03,-848.63,523.93,-6.71,-0.57,-2.76,-136.30
26542,790.82,764.34,757.03,753.16,766.34,68.36,-869.14,507.32,-2.04,-1.21,-3.11,-149.46
26576,792.03,763.66,756.55,752.91,766.29,76.66,-871.58,511.72,-13.15,0.35,-5.78,-156.36
26610,791.99,763.19,756.23,752.69,766.02,90.82,-887.70,472.17,-6.36,-3.04,0.53,-157.10
26644,792.14,763.04,756.06,752.63,765.97,70.80,-875.98,503.42,-6.05,-3.79,-3.24,-159.92
26679,791.42,762.72,755.97,752.67,765.70,83.50,-870.61,511.23,1.58,-1.51,-1.06,-157.53
26713,791.72,762.50,755.89,752.51,765.65,84.96,-918.46,461.43,-5.96,-2.08,-1.40,-156.36
26747,793.16,761.97,755.72,752.45,765.83,80.08,-890.62,488.28,-22.05,-1.51,-3.65,-160.61
26783,794.85,761.81,755.55,752.19,766.10,52.73,-942.38,493.65,-17.92,-6.67,-3.15,-165.48
26817,796.96,761.93,755.42,752.06,766.59,98.63,-922.36,408.20,-0.48,-4.92,1.18,-175.02
26852,797.53,762.07,755.35,752.03,766.75,78.61,-912.11,475.59,6.45,1.15,-0.27,-179.42
26886,796.73,762.28,755.36,752.13,766.62,85.45,-916.02,471.68,15.15,3.21,1.41,-179.54
26920,795.35,762.85,755.52,752.17,766.47,66.41,-878.91,474.12,25.22,3.81,8.14,-175.80
26955,794.08,763.60,755.76,752.30,766.43,46.39,-881.35,543.46,35.30,5.31,7.88,-173.41
26989,792.42,764.35,756.18,752.65,766.40,82.03,-882.32,493.16,17.14,3.82,6.89,-168.66
27023,789.78,765.33,756.72,753.08,766.23,65.92,-838.38,562.01,25.71,6.89,4.32,-160.26
27057,787.41,766.24,757.41,753.68,766.19,60.55,-878.91,514.16,20.96,8.36,5.43,-150.98
27092,785.06,767.25,758.07,754.44,766.21,60.55,-835.94,569.82,18.27,5.69,2.60,-145.81
27126,782.03,768.32,759.04,755.40,766.20,48.34,-818.36,599.12,15.28,3.16,2.29,-134.15
27160,779.78,769.21,760.18,756.31,766.37,54.69,-840.33,574.71,10.11,1.83,0.57,-118.20
27194,777.46,770.13,761.19,757.04,766.45,50.78,-828.12,574.22,9.24,1.52,2.79,-103.47
27229,774.87,771.09,761.89,757.74,766.40,35.16,-837.89,593.75,2.53,3.13,0.87,-95.15
27262,773.93,771.59,762.31,758.23,766.51,31.74,-839.36,586.91,5.40,3.88,0.90,-92.61
27296,773.55,771.79,762.48,758.41,766.56,47.36,-833.01,578.61,1.18,0.95,1.09,-91.27
27330,773.31,771.78,762.33,758.26,766.42,38.09,-829.59,578.12,-1.54,3.76,0.12,-91.96
27364,772.95,771.53,762.17,757.96,766.15,38.57,-824.71,574.71,-0.58,1.60,-0.34,-88.35
27398,772.83,771.21,762.13,757.90,766.02,42.97,-827.15,588.38,1.45,1.64,-0.92,-85.36
27431,773.10,770.90,762.21,757.72,765.98,35.64,-841.80,584.47,-1.93,-0.87,0.23,-79.28
27465,773.43,770.48,762.10,757.47,765.87,49.32,-821.29,566.89,0.62,1.18,-0.28,-75.96
27499,773.83,770.47,762.05,757.31,765.92,20.02,-822.27,593.75,-1.28,0.54,-0.35,-76.08
27533,773.89,770.24,761.81,757.30,765.81,30.76,-831.05,576.66,2.03,3.03,-0.75,-80.47
27567,774.76,770.04,761.64,757.13,765.89,45.41,-871.58,554.69,-0.26,0.29,0.57,-83.53
27601,775.40,770.03,761.45,757.03,765.98,32.71,-798.83,613.28,-1.06,5.21,-0.65,-88.90
27635,775.78,769.91,761.37,757.09,766.04,41.99,-849.12,571.78,1.78,4.12,-1.69,-91.98
27669,776.51,769.85,761.17,757.05,766.15,65.92,-823.73,584.47,-2.94,1.65,-1.95,-98.51
27703,776.57,769.60,760.80,756.85,765.95,39.55,-826.17,580.57,-2.17,-3.61,-0.23,-103.05
27738,776.55,769.15,760.60,756.81,765.78,41.99,-811.52,572.27,-1.70,0.37,-0.15,-103.73
27772,777.08,768.61,760.03,756.38,765.53,51.76,-838.87,566.89,-5.97,-0.91,-5.56,-109.08
27807,777.05,768.20,759.72,756.04,765.25,56.15,-831.54,574.71,-9.80,2.40,1.14,-108.36
27841,776.52,767.99,759.50,755.97,764.99,57.13,-855.47,557.62,2.21,2.61,3.41,-109.35
27875,776.48,767.88,759.21,755.79,764.84,55.18,-813.96,566.89,-9.63,1.38,1.72,-112.96
27910,776.52,767.85,759.06,755.72,764.79,58.11,-865.72,565.92,-4.98,-0.89,-2.21,-115.39
27944,777.37,767.70,758.91,755.57,764.89,42.97,-830.08,579.59,-4.30,-2.89,3.84,-118.65
27978,778.18,767.49,758.63,755.31,764.90,62.01,-843.26,563.96,-10.39,-1.60,0.62,-123.04
28012,779.22,767.23,758.38,754.98,764.95,68.36,-847.17,558.11,-8.05,-0.70,0.66,-125.88
28047,779.88,766.85,758.19,754.63,764.89,43.95,-864.75,550.29,-8.41,-0.15,1.28,-124.64
28081,780.18,766.56,758.10,754.35,764.80,65.43,-871.58,546.87,-8.28,-2.44,-0.40,-121.35
28115,779.94,766.28,758.10,754.08,764.60,51.27,-858.40,534.67,-6.82,-3.31,-1.21,-114.46
28149,778.77,766.01,757.99,753.88,764.16,42.48,-861.82,539.55,-5.63,2.33,0.35,-107.98
28184,776.45,765.62,757.84,753.75,763.41,64.45,-854.49,531.74,-10.45,0.71,-1.24,-98.86
28218,774.32,765.42,757.60,753.69,762.76,54.69,-865.23,535.64,-9.78,1.74,-3.65,-95.16
28252,773.54,765.36,757.45,753.61,762.49,52.25,-869.63,533.69,-10.87,3.69,1.91,-94.39
28287,774.09,765.62,757.10,753.43,762.56,29.30,-863.28,512.70,-20.24,1.82,2.93,-104.35
28321,775.86,766.20,757.01,753.49,763.14,71.78,-912.60,493.65,-4.05,-3.25,1.33,-118.19
28355,778.36,766.63,757.11,753.63,763.93,59.08,-929.20,465.33,10.72,-0.57,-1.03,-129.83
28389,779.85,767.31,757.75,754.21,764.78,48.83,-848.14,543.95,28.51,3.92,-1.03,-132.98
28424,779.51,768.00,758.40,754.70,765.15,60.55,-863.77,527.83,11.90,2.23,0.86,-128.39
28458,779.00,768.14,758.73,755.03,765.23,44.43,-865.72,534.67,2.20,1.27,4.09,-124.36
28492,780.24,767.94,758.58,754.87,765.41,48.83,-833.50,542.48,-3.95,1.68,0.97,-128.47
28526,782.43,767.97,758.47,754.63,765.88,32.71,-832.03,555.66,-18.98,-2.82,0.51,-135.42
28561,782.96,768.57,758.55,754.63,766.18,103.52,-963.87,451.17,0.14,1.93,1.15,-140.13
28595,780.56,769.30,759.33,755.27,766.11,48.34,-892.09,504.88,31.90,4.06,-0.08,-127.51
28629,777.88,769.52,760.06,755.69,765.79,26.86,-783.69,595.70,11.21,4.69,1.77,-108.16
28664,776.74,769.64,760.24,755.75,765.59,43.95,-872.56,539.06,0.23,1.31,2.26,-101.69
28699,777.35,769.71,760.26,755.78,765.77,30.76,-852.54,542.48,-2.64,2.02,1.44,-104.39
28734,778.31,769.58,760.09,755.76,765.93,38.09,-866.21,554.69,-3.50,-0.03,-1.87,-110.51
28768,778.60,769.48,759.93,755.64,765.91,48.34,-850.10,535.64,-6.45,1.16,1.05,-112.83
28802,778.23,769.53,759.84,755.50,765.77,62.99,-882.32,521.00,-0.82,0.50,0.19,-112.13
28837,777.57,769.62,759.79,755.60,765.65,48.34,-867.68,521.97,-0.47,2.00,1.88,-113.30
28871,777.54,769.62,759.87,755.51,765.63,41.99,-859.37,550.29,2.66,0.14,1.11,-109.82
28905,777.75,769.54,759.86,755.43,765.65,44.92,-865.23,540.04,-1.80,0.71,0.90,-109.09
28939,778.01,769.45,759.74,755.44,765.66,54.69,-858.89,533.69,1.24,0.37,-1.77,-112.51
28973,778.13,769.29,759.71,755.35,765.62,54.69,-849.61,529.79,-0.90,2.03,0.50,-110.93
29007,778.23,769.13,759.65,755.26,765.57,47.85,-870.12,523.93,-1.04,1.63,-1.73,-110.33
29041,778.18,769.18,759.72,755.30,765.60,44.43,-860.84,528.32,1.18,0.18,1.10,-109.44
29074,778.18,769.10,759.65,755.16,765.53,50.78,-855.47,518.55,-1.10,1.10,2.14,-108.46
29108,778.10,769.00,759.55,755.25,765.47,59.57,-872.07,535.64,-0.98,1.55,2.79,-111.09
29142,778.39,768.97,759.54,755.18,765.52,42.48,-854.98,535.64,-0.44,-0.33,0.24,-110.97
29176,778.85,768.81,759.44,755.12,765.56,45.90,-860.84,537.60,-2.11,2.02,-2.53,-112.94
29210,779.07,768.76,759.46,754.99,765.57,53.71,-865.23,528.32,-1.69,-0.74,1.21,-110.96
29244,778.96,768.75,759.41,754.98,765.52,47.36,-878.42,535.16,0.06,2.21,-0.84,-111.60
29278,778.70,768.66,759.24,755.04,765.41,45.41,-867.19,526.37,0.68,5.13,1.11,-115.13
29312,778.72,768.66,759.22,754.98,765.39,40.04,-874.51,533.20,-1.29,2.03,0.86,-114.81
29346,778.81,768.59,759.23,754.93,765.39,36.62,-867.19,532.23,0.27,0.38,1.02,-113.49
29380,778.74,768.57,759.21,754.95,765.37,40.53,-875.00,532.23,1.08,0.71,-0.47,-113.90
29414,778.50,768.70,759.21,754.99,765.35,51.27,-867.19,522.46,0.55,1.18,2.69,-114.62
29448,778.10,768.66,759.20,755.09,765.26,58.59,-877.93,524.41,0.28,0.87,1.65,-114.56
29483,777.28,768.70,759.23,755.14,765.09,51.27,-874.02,513.67,0.20,1.76,0.34,-112.24
29517,776.52,768.67,759.21,755.17,764.89,52.25,-864.75,530.27,4.39,2.63,0.26,-110.33
29551,776.19,768.75,759.30,755.20,764.86,58.59,-865.72,527.83,2.82,0.79,-2.46,-108.02
29585,776.67,768.81,759.44,755.29,765.05,42.97,-867.68,534.67,3.76,-2.12,0.53,-107.81
29620,776.66,768.74,759.39,755.35,765.04,41.02,-857.42,531.74,0.85,0.02,-0.79,-109.37
29656,776.58,768.71,759.43,755.35,765.02,52.25,-860.35,540.53,-3.23,-1.44,-4.08,-108.18
29690,776.56,768.60,759.43,755.35,764.98,51.76,-877.93,521.00,0.96,1.67,-1.33,-106.98
29724,776.62,768.37,759.32,755.20,764.88,38.57,-854.00,536.13,-0.50,-0.59,1.19,-105.85
29758,776.78,768.39,759.31,755.15,764.91,53.22,-863.77,535.16,-0.76,-1.28,-1.18,-106.01
29793,776.91,768.33,759.31,755.09,764.91,50.29,-859.37,532.71,0.57,-0.75,1.15,-105.17
29827,777.06,768.34,759.28,755.15,764.96,46.39,-872.07,523.93,0.42,-1.29,0.60,-107.51
29861,777.48,768.37,759.23,755.18,765.07,47.85,-858.89,526.86,-0.40,-0.24,-0.23,-110.78
29895,777.66,768.38,759.30,755.17,765.13,49.32,-874.51,517.58,2.21,0.24,-0.43,-109.64
29930,777.94,768.39,759.28,755.17,765.19,59.57,-882.32,523.93,-0.27,1.66,1.08,-111.01
29964,777.83,768.43,759.28,755.05,765.15,47.85,-880.37,531.74,0.75,1.95,0.52,-109.30
29998,777.50,768.42,759.27,755.11,765.08,46.88,-874.51,525.88,-1.92,2.95,1.13,-109.18
30032,777.22,768.35,759.19,755.04,764.95,47.36,-863.77,522.46,-1.16,0.79,1.37,-108.65
30067,777.20,768.26,759.20,755.03,764.92,48.34,-878.42,516.11,-1.68,1.14,1.54,-107.63
30101,777.24,768.32,759.19,754.93,764.92,47.85,-864.26,537.60,0.38,3.98,3.66,-106.82
30135,777.32,768.32,759.19,755.01,764.96,48.83,-866.70,525.88,-0.47,3.03,1.16,-108.33
30170,777.34,768.36,759.16,755.00,764.96,46.39,-866.70,531.74,0.27,-0.61,0.61,-109.23
30204,777.39,768.41,759.20,755.11,765.03,52.73,-875.49,525.88,0.21,0.79,1.06,-110.50
30238,777.45,768.47,759.23,755.06,765.05,40.53,-872.56,533.20,2.06,1.22,-1.53,-109.57
30272,777.40,768.33,759.19,755.09,765.00,46.39,-882.81,531.25,-0.21,-0.60,-1.86,-110.01
30307,777.39,768.26,759.22,755.09,764.99,45.90,-868.65,533.20,0.87,-0.76,0.54,-108.45
30341,777.50,768.29,759.21,755.05,765.01,60.55,-859.86,522.46,-1.88,-0.32,0.56,-108.80
30375,777.51,768.24,759.15,755.06,764.99,53.71,-881.35,523.44,-1.49,2.07,-1.18,-110.22
30410,777.69,768.30,759.17,755.00,765.04,56.15,-865.23,528.32,2.56,1.98,0.86,-109.85
30444,777.74,768.16,759.15,754.98,765.01,62.99,-861.33,525.88,0.39,1.18,-0.23,-108.99
30478,777.85,768.10,759.14,754.96,765.01,54.20,-869.14,537.60,-0.71,2.36,0.22,-108.97
30512,777.98,768.07,759.12,754.90,765.02,55.18,-864.26,532.23,-0.63,1.85,3.63,-108.71
30547,778.16,768.14,759.13,754.95,765.09,49.80,-867.19,529.30,0.69,3.74,-0.30,-110.45
30580,778.24,768.06,759.06,754.95,765.08,49.32,-855.47,532.71,-1.50,-0.21,-0.25,-111.71
30616,778.21,768.01,758.95,754.89,765.02,56.15,-874.51,531.74,-1.55,2.29,1.40,-113.03
30649,778.28,768.07,759.07,754.87,765.07,51.76,-867.68,534.67,0.56,-0.92,-0.02,-110.45
30683,778.31,768.09,759.04,754.93,765.09,50.29,-871.09,529.79,-2.30,1.92,-0.30,-112.49
30717,778.38,768.14,758.94,754.89,765.09,57.13,-868.16,514.65,-0.53,1.72,0.31,-114.95
30751,778.38,768.17,758.85,754.85,765.06,52.73,-875.00,524.90,-2.61,1.73,-1.03,-116.99
30785,778.20,768.21,758.84,754.78,765.01,48.83,-856.45,526.37,-2.58,2.68,1.59,-115.86
30819,778.42,768.23,758.79,754.79,765.06,63.96,-870.61,524.90,-1.81,1.80,0.40,-118.18
30853,778.93,768.32,758.67,754.81,765.18,51.27,-879.88,528.32,-3.02,-0.78,-1.63,-123.95
30887,779.32,768.38,758.70,754.81,765.30,60.55,-879.39,519.53,0.12,0.44,-0.82,-124.91
30921,779.42,768.33,758.62,754.74,765.28,56.64,-873.05,530.27,0.02,2.57,0.61,-126.05
30955,779.31,768.18,758.59,754.79,765.22,52.73,-861.33,520.02,0.52,1.44,-0.03,-125.88
30989,779.17,768.03,758.48,754.73,765.10,57.62,-873.54,519.04,-1.98,1.47,0.65,-125.91
31023,779.13,767.87,758.45,754.67,765.03,47.85,-869.63,520.51,0.86,0.17,3.02,-124.29
31057,779.59,767.74,758.38,754.61,765.08,51.76,-855.47,523.44,-0.46,1.79,0.14,-125.68
31091,779.90,767.66,758.38,754.60,765.13,50.78,-880.37,524.41,0.98,0.05,-0.84,-126.07
31126,779.47,767.50,758.23,754.62,764.95,61.52,-881.35,522.95,-1.94,1.76,-0.72,-127.24
31160,779.47,767.57,758.16,754.63,764.96,61.04,-874.02,515.62,0.72,2.60,1.13,-129.70
31194,779.40,767.46,758.11,754.50,764.87,50.29,-863.77,507.81,0.27,2.24,-0.87,-127.88
31229,779.36,767.49,758.08,754.48,764.85,55.18,-861.82,526.86,-1.43,-0.26,1.93,-128.47
31263,778.60,767.53,758.11,754.54,764.70,51.76,-880.37,508.79,3.67,3.11,-0.66,-126.50
31297,777.59,767.64,758.20,754.63,764.51,42.48,-864.75,522.46,3.44,2.08,2.75,-122.81
31331,775.37,767.68,758.17,754.72,763.99,49.32,-870.12,524.41,3.98,2.66,0.98,-117.58
31366,771.97,767.83,758.23,754.79,763.21,72.75,-871.09,516.60,2.59,4.57,0.87,-106.87
31400,770.25,767.65,758.20,754.80,762.72,43.95,-843.75,524.90,-2.21,3.11,1.34,-100.18
31434,770.47,767.17,758.04,754.47,762.54,49.32,-871.09,525.88,-5.82,-0.34,-0.10,-96.26
31469,771.17,766.87,757.80,754.39,762.56,62.50,-900.39,517.58,-3.57,3.30,-1.26,-101.10
31503,771.31,766.24,757.51,754.19,762.31,52.25,-877.44,533.69,-5.28,3.53,-1.47,-100.93
31537,771.45,765.89,757.15,753.92,762.10,51.76,-893.55,472.17,-14.82,1.44,1.56,-103.53
31573,773.19,765.86,756.94,753.66,762.41,45.90,-870.61,504.39,-5.99,-3.34,0.99,-110.70
31607,776.74,766.24,757.03,753.75,763.44,38.57,-860.84,518.07,5.90,0.25,2.40,-124.78
31641,780.43,766.23,757.00,753.72,764.34,44.43,-883.30,499.51,-5.27,-0.30,-2.57,-137.77
31676,781.64,766.18,757.09,753.62,764.64,36.13,-905.76,494.14,7.66,0.69,-0.59,-137.97
31710,783.65,765.84,757.05,753.45,765.00,55.18,-876.46,506.35,1.66,2.37,-2.80,-140.55
31744,784.12,764.91,756.86,753.29,764.80,53.22,-852.05,530.76,-2.40,1.52,-1.84,-137.20
31778,785.88,764.67,756.79,753.07,765.10,79.10,-908.20,490.23,5.14,0.58,-1.31,-139.81
31813,786.52,764.49,756.83,753.14,765.25,55.66,-862.79,528.81,5.79,-0.23,-0.40,-140.41
31847,786.15,764.43,756.88,753.05,765.13,91.80,-893.07,509.28,5.00,1.31,-2.56,-136.09
31881,786.89,764.56,756.92,753.17,765.39,66.89,-862.79,517.09,9.02,0.56,-1.71,-140.52
31916,787.35,764.63,756.99,753.21,765.55,68.36,-883.79,532.71,7.58,-0.76,-0.08,-141.38
31950,788.30,764.77,757.10,753.16,765.83,77.15,-865.72,508.30,8.69,-0.82,-1.39,-142.23
31984,788.58,764.81,757.16,753.08,765.91,64.94,-888.18,515.14,3.45,0.08,0.34,-141.02
32018,787.92,764.92,757.11,753.04,765.75,92.77,-891.60,504.88,5.66,2.14,0.22,-140.17
32053,787.21,764.98,757.22,753.17,765.65,63.96,-876.46,519.04,1.83,-0.79,-0.97,-137.38
32087,787.06,765.13,757.46,753.26,765.73,76.66,-895.51,498.54,7.83,-3.78,1.52,-133.42
32121,786.22,765.30,757.77,753.39,765.67,74.71,-857.42,558.59,12.11,-3.05,2.82,-126.26
32155,785.12,765.41,758.21,753.58,765.58,70.80,-865.23,548.34,8.56,3.14,2.14,-115.12
32189,784.19,765.80,758.72,753.94,765.66,48.83,-825.20,551.27,8.52,2.16,1.58,-107.72
32223,782.84,766.25,759.21,754.39,765.67,60.55,-846.68,546.39,11.72,6.92,-0.31,-100.90
32257,781.70,766.69,759.65,754.81,765.71,60.06,-842.77,573.24,5.45,2.65,-0.89,-96.04
32290,780.38,766.79,759.83,755.15,765.54,53.22,-827.15,572.27,5.65,4.38,0.79,-92.66
32324,779.31,766.94,760.04,755.38,765.42,73.24,-853.52,542.97,1.56,2.76,-1.24,-88.50
32358,778.87,767.33,760.43,755.60,765.56,68.85,-863.28,547.85,7.03,3.66,2.03,-83.57
32392,777.90,767.72,760.79,756.00,765.60,57.62,-828.61,582.03,4.00,2.75,1.92,-80.14
32426,777.10,768.25,761.00,756.25,765.65,55.18,-859.86,561.52,3.37,3.55,1.50,-80.02
32460,776.38,768.58,761.19,756.42,765.64,51.27,-835.94,582.52,1.49,3.69,1.18,-78.21
32494,776.22,768.81,761.35,756.59,765.74,58.11,-837.89,581.54,1.40,2.88,1.34,-77.84
32530,776.34,769.14,761.37,756.61,765.86,52.25,-837.89,572.75,-0.49,2.31,-0.46,-80.89
32564,775.91,769.73,761.39,756.63,765.92,68.36,-848.63,566.89,2.07,2.50,1.84,-83.84
32598,775.97,769.91,761.33,756.71,765.98,54.69,-845.21,551.76,3.20,0.78,1.51,-88.09
32632,776.05,770.15,761.37,756.72,766.07,37.60,-834.47,581.54,3.58,2.39,-0.33,-89.59
32666,775.60,770.50,761.58,756.93,766.15,45.41,-846.19,539.55,1.43,3.12,0.63,-88.69
32700,775.67,770.58,761.56,756.96,766.19,47.36,-849.12,578.61,0.02,2.13,0.69,-90.58
32735,776.16,770.57,761.40,756.92,766.26,52.25,-831.05,585.45,-1.57,-2.24,0.59,-95.47
32769,775.87,770.51,761.26,756.65,766.07,47.36,-849.61,567.87,-1.95,-0.46,0.85,-93.61
32803,775.43,770.28,761.03,756.58,765.83,49.80,-834.47,578.61,-3.00,2.62,3.70,-95.02
32837,774.88,770.10,760.79,756.44,765.55,44.92,-827.64,582.03,-4.05,6.41,3.37,-95.47
32872,774.02,770.19,760.74,756.37,765.33,44.92,-847.66,564.45,-2.64,3.96,0.67,-93.26
32906,773.56,770.08,760.62,756.35,765.15,58.11,-862.30,562.99,-1.21,3.83,1.52,-93.73
32940,774.14,769.85,760.18,756.04,765.05,41.02,-824.71,567.38,-3.98,1.85,-0.04,-100.27
32975,774.69,769.63,759.82,755.79,764.98,56.64,-853.52,563.96,-6.99,0.47,2.80,-105.52
33009,775.40,769.40,759.60,755.71,765.02,36.13,-848.14,560.06,-4.95,1.11,2.27,-110.48
33043,776.54,769.04,759.32,755.53,765.11,42.48,-841.80,551.27,-7.79,-1.27,-0.57,-115.78
33077,778.06,768.41,759.00,755.14,765.15,43.46,-846.19,547.36,-6.27,-2.37,-0.60,-118.25
33112,779.56,767.99,758.82,754.76,765.28,48.83,-864.26,536.62,-6.67,-2.37,0.80,-118.83
33146,780.12,767.65,758.86,754.67,765.32,54.69,-858.89,543.46,-4.58,-2.82,0.32,-115.82
33180,780.64,767.42,758.94,754.60,765.40,45.90,-882.32,522.95,-3.78,-3.24,0.21,-112.65
33214,780.26,767.18,758.97,754.52,765.23,63.48,-861.33,530.76,-5.88,-3.47,-1.27,-107.50
33249,779.05,766.96,759.04,754.40,764.86,62.99,-856.45,527.83,-7.45,1.34,0.44,-98.21
33283,776.77,766.71,758.90,754.22,764.15,62.01,-875.98,530.76,-7.63,-1.27,-1.96,-89.13
33317,773.74,766.61,758.71,754.13,763.30,67.87,-873.54,535.16,-5.11,1.39,-1.73,-81.39
33352,772.47,766.50,758.53,754.09,762.90,47.85,-848.14,555.18,-8.98,3.40,2.89,-80.03
33386,772.43,766.51,758.35,754.05,762.84,67.38,-916.50,471.68,-9.13,3.27,1.96,-83.74
33420,775.11,766.13,758.55,754.18,763.49,36.62,-889.16,505.37,18.44,0.61,-4.44,-87.01
33454,777.68,766.06,758.79,754.31,764.21,48.34,-851.07,535.64,-6.63,-4.31,-0.41,-91.07
33490,778.84,766.17,758.97,754.33,764.58,58.59,-860.84,538.09,-0.48,0.02,-0.07,-91.71
33525,780.34,766.75,758.92,754.22,765.06,45.41,-840.82,532.23,-11.52,-2.04,2.62,-101.30
33559,780.26,767.52,759.24,754.47,765.37,88.87,-934.08,491.21,4.15,0.69,2.57,-102.99
33593,777.40,768.42,760.49,755.22,765.38,51.27,-862.79,548.34,30.43,6.69,2.57,-80.13
33627,774.47,768.94,761.97,755.89,765.32,44.43,-821.29,564.94,16.97,3.76,2.95,-47.23
33662,772.04,769.26,762.63,756.36,765.08,65.43,-860.84,541.99,5.66,3.16,0.75,-31.99
33696,771.09,769.47,762.93,756.53,765.01,48.34,-837.89,570.31,0.92,3.18,-0.32,-25.40
33730,771.56,769.47,762.72,756.51,765.06,46.39,-847.17,550.29,-4.10,0.77,-2.13,-31.95
33764,771.84,769.32,762.40,756.37,764.98,65.92,-875.00,537.60,-4.44,3.89,0.59,-37.70
33798,771.81,769.33,762.51,756.55,765.05,61.04,-854.98,540.53,2.16,2.92,0.39,-37.63
33832,771.47,769.27,762.59,756.62,764.99,55.18,-851.56,558.11,3.72,0.14,0.44,-34.96
33866,771.28,769.32,762.55,756.77,764.98,50.78,-853.52,571.78,0.40,2.24,0.92,-37.80
33899,771.63,769.16,762.47,756.71,765.00,31.25,-846.68,551.76,0.40,0.60,-1.00,-38.84
33933,772.35,769.23,762.48,756.67,765.18,56.15,-858.89,548.83,0.86,-1.27,-1.85,-41.10
33967,773.08,769.00,762.34,756.69,765.28,46.39,-846.19,568.36,-1.13,0.91,-1.53,-45.53
34001,773.78,768.99,762.21,756.62,765.40,49.80,-841.80,556.15,-1.89,0.42,-2.54,-49.97
34035,774.34,768.86,762.05,756.57,765.46,51.76,-859.37,548.83,-0.34,0.96,5.46,-54.21
34069,775.00,768.75,762.00,756.53,765.57,67.38,-859.37,538.09,0.03,0.44,-0.93,-56.15
34103,775.22,768.59,761.97,756.39,765.54,46.39,-858.40,555.66,-0.29,3.35,-1.22,-54.20
34137,774.93,768.43,761.86,756.34,765.39,49.80,-863.77,554.20,2.34,4.73,3.18,-54.09
34171,774.52,768.27,761.68,756.31,765.19,57.62,-843.26,555.18,0.14,-2.23,3.78,-55.31
34205,774.47,768.11,761.60,756.10,765.07,49.32,-856.45,544.43,-0.71,-0.19,1.47,-52.79
34239,774.59,767.99,761.52,756.07,765.04,60.06,-846.68,547.85,0.51,0.89,0.52,-53.85
34273,774.41,767.90,761.46,755.92,764.92,69.34,-852.54,541.50,-1.82,3.81,-0.34,-51.81
34308,774.24,767.77,761.32,755.95,764.82,55.18,-867.68,552.73,0.30,2.27,-1.73,-54.13
34342,774.01,767.76,761.30,755.84,764.73,52.73,-861.82,540.53,-2.24,-0.37,2.15,-52.08
34376,774.16,767.63,761.21,755.85,764.71,43.46,-849.12,556.64,0.56,1.89,-1.69,-54.18
34411,774.37,767.56,761.23,755.83,764.75,64.94,-838.87,551.27,1.81,2.11,-1.05,-53.32
34447,774.60,767.48,761.16,755.89,764.78,65.92,-857.91,546.39,0.13,-1.02,-0.40,-56.06
34481,774.71,767.38,761.16,755.82,764.77,54.20,-859.86,545.41,-1.76,0.11,-1.50,-54.79
34515,774.95,767.42,761.11,755.79,764.82,48.83,-847.17,540.53,-0.47,3.27,0.71,-56.75
34549,775.28,767.32,761.18,755.84,764.90,47.85,-867.19,551.27,-1.34,0.56,-0.75,-55.82
34584,775.64,767.23,761.04,755.69,764.90,57.13,-855.47,542.48,-0.47,0.70,-0.76,-57.69
34618,775.75,767.10,761.03,755.68,764.89,56.15,-851.07,551.27,2.92,-0.24,-2.90,-57.18
34652,775.71,767.00,760.97,755.52,764.80,57.13,-848.14,560.55,-1.28,0.43,0.73,-55.46
34686,775.80,766.94,760.96,755.52,764.81,55.18,-862.79,544.43,-0.15,-1.10,0.43,-55.50
34721,775.88,766.95,760.93,755.54,764.83,60.06,-852.05,545.90,0.85,0.71,-3.47,-56.84
34755,775.96,766.88,760.92,755.50,764.82,62.01,-855.47,542.48,1.37,0.66,-0.52,-56.27
34789,776.03,766.93,760.95,755.44,764.84,67.87,-846.68,555.18,-2.85,1.48,1.90,-55.36
34824,776.00,766.84,760.91,755.45,764.80,61.52,-855.47,545.41,-1.63,0.71,0.82,-55.61
34858,776.00,766.78,760.84,755.44,764.77,69.34,-860.35,550.78,0.79,-0.89,1.82,-56.70
34892,775.93,766.66,760.89,755.41,764.72,58.11,-851.56,544.43,0.06,3.46,-0.25,-53.77
34926,775.90,766.66,760.86,755.40,764.71,68.85,-849.12,545.41,-1.48,1.00,1.21,-54.33
34961,775.97,766.60,760.79,755.34,764.68,61.04,-851.56,541.50,-0.40,0.43,-2.92,-55.02
34995,776.00,766.57,760.83,755.35,764.69,51.27,-858.89,549.80,1.35,2.83,2.25,-53.90
35029,776.07,766.52,760.76,755.28,764.66,69.82,-851.07,563.48,-0.04,4.05,1.81,-54.47
35063,776.31,766.54,760.74,755.26,764.71,72.27,-849.61,539.55,-0.65,0.94,1.59,-55.71
35098,776.25,766.47,760.70,755.17,764.65,66.89,-856.45,547.85,-0.01,0.01,0.78,-54.58
35132,776.34,766.52,760.69,755.20,764.68,53.71,-852.54,554.69,0.20,2.33,1.51,-55.92
35166,776.47,766.44,760.64,755.23,764.70,59.08,-856.45,550.29,-0.69,-0.41,0.52,-57.42
35201,776.64,766.43,760.67,755.25,764.75,56.15,-853.03,540.53,-0.50,3.15,0.01,-57.51
35235,776.64,766.44,760.64,755.17,764.72,46.39,-844.73,551.27,0.96,1.66,0.60,-57.08
35269,776.71,766.43,760.64,755.18,764.74,56.64,-854.98,549.80,-0.35,0.73,-1.71,-57.33
35303,776.64,766.45,760.62,755.25,764.74,70.80,-852.54,549.32,1.22,2.56,1.85,-58.89
35338,776.36,766.43,760.61,755.15,764.64,47.85,-849.12,551.27,1.13,2.17,0.69,-56.60
35372,776.23,766.40,760.64,755.15,764.60,60.06,-858.40,545.41,1.50,2.63,0.26,-55.13
35408,776.10,766.43,760.68,755.20,764.60,51.76,-859.86,533.69,0.70,2.39,0.03,-54.76
35442,775.94,766.45,760.62,755.28,764.57,57.13,-851.56,553.71,-0.63,2.44,1.31,-57.03
35475,775.79,766.45,760.62,755.27,764.53,57.62,-852.05,554.69,1.02,-0.67,3.08,-56.33
35509,775.70,766.44,760.60,755.15,764.47,66.89,-865.72,557.13,-1.42,2.90,2.92,-54.58
35543,775.50,766.52,760.58,755.20,764.45,61.04,-858.40,535.16,0.82,2.19,-1.66,-55.87
35576,775.36,766.52,760.53,755.15,764.39,52.25,-854.49,551.76,-2.19,1.85,0.08,-55.95
35610,775.22,766.45,760.52,755.16,764.34,72.27,-853.03,545.90,-0.47,1.92,-0.04,-55.15
35645,775.31,766.53,760.54,755.24,764.40,64.94,-857.91,540.04,0.20,2.21,2.93,-56.80
35679,775.31,766.59,760.53,755.13,764.39,64.45,-858.40,545.90,-0.45,0.33,1.72,-56.12
35712,775.43,766.65,760.60,755.22,764.48,49.32,-849.61,542.48,0.50,2.32,0.13,-56.38
35746,775.53,766.72,760.60,755.31,764.54,69.82,-862.79,555.18,0.90,1.88,1.34,-58.52
35780,775.47,766.82,760.60,755.33,764.55,57.62,-874.51,545.41,-1.27,2.10,-1.11,-59.49
35814,775.29,766.93,760.62,755.36,764.55,55.18,-869.14,540.04,1.95,3.44,2.54,-59.76
35848,775.51,767.08,760.65,755.37,764.65,58.11,-862.30,542.97,-1.82,1.90,1.73,-61.14
35883,775.44,767.23,760.75,755.43,764.71,58.11,-858.89,554.20,0.76,2.71,1.31,-60.52
35917,775.00,767.40,760.70,755.51,764.65,64.45,-851.07,547.36,-0.83,3.37,3.80,-62.81
35951,774.84,767.56,760.69,755.45,764.63,46.39,-846.19,550.78,-1.45,4.44,1.59,-62.78
35985,775.12,767.74,760.71,755.53,764.77,47.85,-844.73,539.55,-1.28,0.69,-0.37,-65.91
36020,775.36,767.90,760.73,755.53,764.88,46.88,-856.45,535.64,-1.82,3.20,-1.09,-67.39
36054,775.29,767.89,760.74,755.58,764.88,57.13,-881.35,551.76,-0.61,2.10,0.75,-67.76
36088,774.98,767.85,760.75,755.61,764.80,45.41,-855.47,538.57,0.31,1.25,0.31,-66.58
36122,774.78,767.80,760.74,755.58,764.72,35.16,-877.93,541.02,2.03,0.77,0.56,-65.16
36157,774.64,767.77,760.67,755.54,764.66,53.22,-847.17,558.59,0.92,1.05,0.95,-65.55
36191,774.42,767.75,760.72,755.59,764.62,49.32,-865.72,541.99,1.06,0.63,3.92,-64.35
36225,774.15,767.81,760.69,755.57,764.56,42.48,-851.56,538.09,-0.95,0.63,0.92,-64.17
36260,773.95,767.87,760.68,755.71,764.55,54.69,-868.65,541.99,-0.12,1.07,0.08,-66.32
36294,773.39,768.06,760.72,755.77,764.48,56.15,-851.56,533.69,0.24,-0.53,0.37,-65.93
36328,772.84,768.22,760.67,755.89,764.41,53.71,-858.89,541.99,-0.15,1.31,0.43,-68.33
36364,772.29,768.31,760.69,755.94,764.31,50.78,-850.10,541.50,-0.12,1.98,-0.25,-67.43
36398,772.05,768.44,760.68,755.94,764.28,42.97,-856.45,558.59,1.84,3.88,-2.24,-67.85
36433,772.18,768.49,760.65,755.91,764.31,42.97,-861.82,549.32,1.13,2.79,-0.69,-68.94
36467,772.36,768.53,760.72,755.97,764.40,56.15,-861.33,552.73,1.31,2.40,1.07,-68.88
36501,772.21,768.40,760.69,755.94,764.31,62.01,-864.26,537.60,2.89,2.24,1.50,-67.79
36535,771.83,768.42,760.69,755.98,764.23,51.76,-864.75,537.60,1.22,0.15,-0.23,-67.25
36570,771.35,768.36,760.67,755.97,764.09,44.43,-869.14,537.60,4.95,3.02,1.68,-65.45
36604,770.60,768.06,760.68,755.90,763.81,55.18,-847.66,552.25,1.72,3.80,1.02,-59.11
36638,768.81,767.93,760.54,755.81,763.27,46.39,-847.17,556.15,4.49,3.77,-0.53,-54.29
36673,767.20,767.62,760.32,755.80,762.73,37.60,-856.45,538.57,4.20,3.12,-0.27,-51.33
36707,767.31,767.06,759.72,755.41,762.37,34.18,-818.36,580.57,-9.04,-0.69,-0.29,-56.72
36741,767.45,766.93,759.11,754.93,762.11,57.62,-864.26,525.39,-9.74,-2.15,0.10,-64.08
36775,767.12,767.13,758.80,754.71,761.94,48.83,-900.39,515.14,-3.27,2.00,2.22,-69.02
36810,768.91,766.78,758.22,754.38,762.07,44.43,-837.40,550.29,-13.81,-0.76,-1.83,-82.04
36844,775.49,767.05,758.11,754.14,763.70,46.39,-873.54,494.14,-1.90,-2.73,-1.60,-106.06
36878,778.45,766.87,758.18,754.14,764.41,82.03,-882.81,521.97,1.74,-0.11,-2.76,-113.03
36912,783.65,766.45,758.10,753.86,765.51,48.83,-885.74,497.56,-4.31,-1.56,-1.59,-125.32
36947,786.26,765.72,758.04,753.58,765.90,84.96,-876.46,522.95,-4.93,-1.28,-3.69,-125.66
36981,787.28,765.61,758.08,753.42,766.10,60.55,-890.62,524.41,1.77,-1.63,-1.33,-124.87
37015,788.69,765.80,758.14,753.46,766.52,59.57,-850.10,555.66,2.22,-0.61,-0.98,-130.57
37049,788.32,765.72,758.12,753.47,766.41,70.80,-884.77,516.60,2.73,-0.07,-0.12,-129.28
37083,788.32,766.06,758.28,753.49,766.54,64.45,-886.72,519.04,3.80,-0.40,0.66,-128.22
37116,789.25,766.90,758.41,753.66,767.05,69.34,-866.21,533.69,18.19,2.26,2.14,-137.37
37150,788.77,767.35,758.48,753.92,767.13,70.80,-870.12,574.22,3.05,2.97,1.29,-141.65
37184,788.88,767.68,758.29,754.03,767.22,66.89,-873.05,546.87,2.02,1.61,-1.17,-150.91
37218,787.51,768.22,758.47,754.18,767.10,80.08,-869.14,541.50,5.97,2.44,3.53,-148.20
37252,785.66,768.81,758.65,754.61,766.93,42.97,-871.09,558.11,2.76,3.46,1.47,-148.41
37286,784.15,769.23,758.96,754.94,766.82,62.99,-880.86,522.95,13.37,3.95,0.65,-143.84
37322,782.40,769.42,759.21,755.40,766.61,32.71,-848.63,560.06,3.70,4.06,1.21,-139.86
37355,781.16,769.48,759.65,755.69,766.49,31.25,-857.42,535.64,11.45,1.86,-0.41,-129.48
37389,779.41,769.86,759.93,756.16,766.34,62.01,-838.87,575.20,7.40,2.86,0.63,-126.40
37423,777.65,770.14,760.23,756.53,766.14,47.85,-850.10,550.78,6.23,4.71,0.45,-120.48
37457,777.09,770.22,760.38,756.67,766.09,25.88,-853.03,559.08,6.24,0.56,2.00,-117.60
37492,776.84,770.27,760.44,756.82,766.09,52.25,-838.87,568.85,0.89,1.69,0.60,-117.90
37526,776.01,770.16,760.33,756.82,765.83,43.46,-855.96,535.16,2.77,2.29,0.76,-116.91
37560,775.85,770.08,760.33,756.87,765.78,54.69,-843.75,581.54,0.41,-0.11,0.68,-116.54
37594,775.93,770.13,760.16,756.83,765.76,53.22,-838.87,583.98,-3.28,-0.30,1.64,-120.90
37629,775.99,770.20,759.94,756.58,765.68,50.78,-855.47,551.27,-0.40,3.62,3.13,-123.25
37663,776.24,770.21,759.96,756.51,765.73,66.41,-849.12,558.11,-0.36,1.18,1.67,-122.85
37697,776.29,770.24,759.65,756.42,765.65,43.46,-824.71,589.36,2.15,2.28,0.75,-129.60
37732,776.85,770.29,759.60,756.35,765.78,35.64,-820.31,589.84,7.01,1.89,-0.63,-132.10
37766,776.57,770.35,759.56,756.42,765.72,57.13,-850.59,561.04,-0.95,-0.12,1.92,-133.75
37800,776.93,770.35,759.54,756.32,765.78,20.51,-817.87,571.29,-1.40,3.29,0.25,-133.64
37834,777.28,770.37,759.46,756.31,765.85,53.22,-832.52,573.73,0.72,2.89,1.07,-136.86
37869,776.99,770.21,759.23,756.13,765.64,56.64,-836.43,573.73,-3.74,2.71,-0.93,-137.91
37903,777.49,770.15,759.19,755.79,765.65,48.34,-847.66,564.45,-3.13,0.83,-2.04,-135.20
37937,777.60,770.21,759.11,755.66,765.65,51.27,-848.63,574.71,-2.48,3.44,-1.28,-135.90
37971,777.07,769.99,759.07,755.49,765.41,57.62,-860.84,551.27,-4.71,3.61,-0.98,-131.06
38006,777.15,770.16,759.05,755.46,765.46,55.66,-882.32,534.18,1.36,1.18,2.21,-132.60
38040,776.93,770.56,759.12,755.71,765.58,48.34,-847.66,566.89,2.60,4.94,-2.07,-137.08
38074,776.66,770.84,759.13,755.92,765.64,54.20,-847.66,579.10,-0.96,2.48,-1.08,-141.10
38108,776.47,771.42,759.22,756.08,765.80,28.32,-804.20,573.24,4.25,1.58,2.81,-145.18
38143,776.35,771.93,759.41,756.68,766.09,19.04,-805.66,603.52,1.17,1.79,3.50,-153.28
38177,775.29,772.06,759.44,756.72,765.88,46.39,-866.70,540.04,-3.82,1.82,2.39,-150.40
38211,775.78,772.13,759.29,756.60,765.95,38.57,-842.77,568.36,-8.02,-2.56,3.48,-154.48
38246,776.59,772.04,759.03,756.36,766.00,33.20,-839.36,565.43,-6.50,-3.23,2.10,-159.65
38281,776.49,771.54,758.93,756.30,765.82,42.48,-849.61,558.59,-7.17,-0.86,0.45,-156.94
38316,776.10,771.16,758.85,756.11,765.55,39.55,-847.66,537.60,-7.28,-1.29,1.87,-151.61
38350,775.76,770.69,758.67,755.84,765.24,28.81,-866.70,541.50,-1.89,-0.05,-0.82,-147.13
38384,775.55,770.48,758.62,755.79,765.11,39.06,-842.29,555.66,-5.88,-0.40,0.87,-145.28
38418,774.81,770.13,758.50,755.48,764.73,47.36,-844.73,544.43,-6.48,-0.28,0.69,-138.51
38453,773.18,769.78,758.49,755.34,764.20,59.08,-876.46,528.32,-4.70,1.45,-0.13,-128.17
38487,771.54,769.57,758.38,755.19,763.67,52.25,-869.14,527.83,-7.40,-0.22,1.17,-121.46
38521,770.35,769.60,758.34,755.09,763.34,33.69,-866.70,521.48,-2.20,4.00,0.60,-117.12
38556,770.17,769.15,758.42,755.11,763.22,53.22,-918.95,501.46,3.75,-0.31,0.12,-111.15
38590,771.57,767.53,758.51,755.06,763.17,55.66,-874.02,529.30,21.05,-0.76,-7.83,-99.88
38624,773.05,766.34,758.13,754.67,763.05,65.92,-854.98,547.36,-13.69,-2.78,-3.37,-99.17
38658,777.14,766.48,757.72,754.21,763.89,48.34,-802.73,570.31,-17.79,1.63,4.96,-117.89
38692,781.92,767.33,757.74,754.15,765.28,131.35,-1018.55,377.44,-29.03,-9.68,0.77,-139.69
38725,780.10,768.04,758.62,754.79,765.39,58.11,-886.23,494.14,40.69,-3.58,2.13,-126.68
38759,775.56,768.20,759.68,755.62,764.77,34.67,-798.34,601.07,27.52,1.50,3.88,-98.25
38793,771.53,768.27,760.21,755.88,763.97,60.55,-873.54,544.43,11.27,3.09,5.81,-75.34
38826,769.49,768.46,760.61,756.00,763.64,49.80,-819.82,580.57,7.68,4.62,1.08,-61.78
38861,770.01,768.43,760.48,755.92,763.71,56.15,-841.31,556.64,-3.23,0.24,0.15,-65.47
38895,770.57,768.40,760.25,755.72,763.74,46.88,-863.77,543.46,-5.73,1.25,3.87,-69.88
38929,770.91,768.27,760.17,755.76,763.78,64.94,-873.54,533.20,0.73,0.47,0.80,-72.64
38963,770.97,768.41,760.26,755.90,763.89,58.11,-856.45,550.29,4.22,2.39,-1.64,-73.58
38997,770.76,768.69,760.68,756.15,764.07,47.36,-877.93,545.90,4.92,3.79,-1.76,-68.40
39031,770.63,769.10,761.14,756.49,764.34,48.34,-846.68,551.76,5.44,3.41,-0.24,-64.91
39065,770.91,769.45,761.30,756.66,764.58,37.60,-841.80,558.59,-0.45,0.76,0.58,-67.17
39099,771.27,769.54,761.31,756.75,764.72,52.25,-878.91,536.13,-0.04,1.08,-1.40,-70.19
39133,771.59,769.39,761.24,756.68,764.72,58.11,-843.26,547.85,1.63,0.40,-0.30,-70.81
39167,771.73,769.42,761.18,756.59,764.73,49.80,-841.80,545.41,-4.41,1.89,-0.27,-71.71
39202,771.43,769.61,761.11,756.73,764.72,47.85,-865.23,541.50,1.33,0.61,-1.21,-75.99
39237,770.70,769.77,761.27,756.88,764.66,43.95,-862.30,545.90,0.58,3.82,-0.13,-73.02
39272,769.39,770.00,761.38,756.95,764.43,40.04,-863.77,551.27,5.95,4.09,0.47,-68.58
39306,767.44,770.15,761.69,757.21,764.12,40.53,-861.82,548.83,1.12,5.38,1.28,-59.31
39340,765.51,770.24,761.83,757.36,763.74,45.90,-861.33,549.32,2.92,1.53,-0.07,-52.01
39374,763.99,770.39,762.01,757.40,763.45,45.41,-844.73,553.22,1.30,2.62,2.21,-44.18
39409,762.82,770.60,762.13,757.51,763.27,58.11,-847.66,561.04,4.51,-0.06,1.75,-40.53
39443,761.66,770.80,762.39,757.68,763.13,43.95,-848.63,551.76,2.10,1.79,0.88,-34.19
39477,761.01,770.94,762.65,757.85,763.11,37.60,-851.56,565.92,2.43,1.46,0.33,-28.86
39512,760.85,770.97,762.64,757.89,763.09,48.34,-857.91,556.64,0.50,-0.24,0.21,-29.54
39546,761.14,771.11,762.69,757.90,763.21,42.97,-850.10,554.69,-2.18,2.71,-1.69,-30.57
39580,761.60,771.14,762.66,758.02,763.36,34.18,-861.82,548.83,-1.05,0.35,-0.57,-34.77
39614,762.11,771.12,762.61,757.89,763.43,56.64,-849.12,554.20,-1.73,1.37,1.44,-35.80
39649,762.51,771.23,762.70,757.98,763.60,43.46,-852.54,560.06,2.44,1.63,-2.48,-37.15
39683,763.34,771.28,762.70,757.98,763.82,39.55,-849.61,560.55,-0.76,2.95,0.38,-40.40
39717,764.26,771.31,762.65,757.95,764.04,48.34,-854.00,548.83,-1.57,2.16,1.92,-44.57
39751,764.94,771.36,762.65,758.00,764.24,41.99,-858.40,556.64,-0.67,4.33,-0.45,-48.05
39786,765.30,771.32,762.63,757.97,764.30,52.73,-851.07,550.29,-1.12,2.85,2.13,-49.02
39820,765.33,771.31,762.55,757.95,764.28,41.02,-849.61,534.67,-0.42,1.15,0.95,-50.85
39854,765.13,771.24,762.58,757.90,764.21,38.57,-860.35,551.76,3.28,1.08,-1.55,-48.07
39889,764.93,771.16,762.64,757.86,764.15,38.57,-836.43,544.43,1.26,2.40,-1.53,-44.70
39923,764.76,771.25,762.58,757.90,764.12,43.95,-846.68,553.22,-0.52,-1.31,2.11,-46.74
39957,764.69,771.17,762.60,757.80,764.07,40.04,-859.37,544.43,0.40,0.15,0.42,-43.94
39991,764.64,771.08,762.56,757.73,764.00,44.43,-844.24,550.78,-0.88,-0.02,-1.98,-43.07
40026,764.77,771.00,762.57,757.63,763.99,51.76,-858.89,547.36,-0.41,-1.28,1.95,-41.20
40060,764.73,770.99,762.48,757.59,763.95,57.62,-855.47,537.11,-2.16,0.60,-0.05,-42.66
40094,764.86,770.84,762.50,757.62,763.95,42.97,-848.63,559.57,1.52,2.39,0.83,-41.86
40128,764.81,770.88,762.38,757.55,763.90,29.79,-851.56,546.87,1.50,4.34,-0.94,-43.92
40163,764.83,770.87,762.49,757.67,763.97,44.92,-847.17,558.11,2.18,3.28,-2.50,-42.85
40199,764.88,770.94,762.52,757.65,764.00,46.39,-846.68,560.06,1.06,0.00,-1.26,-42.62
40233,764.87,770.96,762.52,757.64,764.00,46.88,-847.17,549.32,2.40,0.73,0.85,-42.61
40267,764.83,770.97,762.49,757.79,764.02,41.02,-857.91,556.64,2.50,-0.02,0.05,-45.54
40301,765.03,770.95,762.58,757.71,764.07,36.13,-854.98,548.83,0.24,0.56,-0.74,-42.60
40335,765.15,771.10,762.55,757.76,764.14,45.41,-855.96,547.36,1.47,0.39,0.95,-45.59
40368,765.36,771.15,762.59,757.63,764.18,43.95,-858.40,556.15,0.72,0.21,-2.61,-43.96
40402,765.52,771.25,762.56,757.73,764.26,51.27,-848.14,555.66,0.41,2.69,-0.68,-47.47
40436,765.67,771.28,762.57,757.82,764.34,46.88,-844.24,544.43,-0.24,1.59,1.43,-49.33
40470,765.59,771.37,762.57,757.81,764.33,49.32,-861.82,551.76,1.45,0.86,2.45,-49.56
40504,765.15,771.35,762.60,757.84,764.23,56.64,-849.12,563.96,0.25,3.71,2.97,-47.77
40538,764.75,771.38,762.70,757.83,764.16,45.41,-867.68,562.50,0.13,2.15,1.91,-43.90
40572,764.22,771.45,762.74,757.99,764.10,42.48,-850.10,559.57,2.79,2.45,1.18,-43.86
40606,763.63,771.53,762.73,758.09,764.00,47.85,-852.54,563.48,2.34,-0.18,0.11,-44.28
40640,762.94,771.58,762.92,758.12,763.89,43.46,-848.63,556.64,2.16,3.26,1.67,-38.05
40674,762.03,771.75,763.14,758.21,763.78,38.57,-836.43,566.41,-0.34,3.45,1.80,-32.01
40708,760.97,771.98,763.38,758.38,763.68,47.85,-864.75,545.90,2.80,2.38,1.34,-26.92
40742,760.07,772.12,763.56,758.60,763.59,48.83,-859.86,560.55,4.35,4.27,0.05,-23.73
40776,759.33,772.16,763.79,758.68,763.49,34.18,-859.37,560.06,2.54,1.37,0.39,-16.93
40810,759.17,772.17,763.73,758.52,763.40,39.55,-839.36,555.66,-2.64,4.05,-0.16,-15.49
40845,759.42,772.18,763.77,758.60,763.49,45.41,-852.05,559.57,0.07,0.86,-0.38,-16.76
40879,759.63,772.00,763.76,758.56,763.49,39.55,-833.50,563.48,0.92,0.76,3.38,-15.76
40913,759.85,771.82,763.66,758.40,763.43,37.11,-855.47,556.15,-3.24,0.08,1.22,-15.12
40948,760.03,771.72,763.53,758.28,763.39,39.55,-840.82,561.04,-1.61,1.22,0.15,-16.35
40982,760.41,771.55,763.42,758.22,763.40,34.67,-852.05,550.78,-0.53,-0.47,-1.89,-18.08
41016,760.81,771.57,763.36,758.12,763.46,45.90,-844.73,552.25,-1.34,1.41,-0.87,-19.70
41050,761.35,771.71,763.29,758.12,763.62,45.41,-845.70,554.20,0.23,0.27,-0.09,-24.32
41085,761.61,771.72,763.37,758.04,763.69,34.67,-859.86,552.25,-1.21,2.75,3.59,-22.28
41119,761.75,771.82,763.16,758.01,763.68,36.62,-870.12,547.36,-0.08,2.01,1.14,-28.30
41155,761.68,771.77,763.16,757.86,763.61,54.20,-869.14,566.89,3.19,0.93,-0.63,-25.38
41189,761.59,771.61,762.98,757.70,763.47,31.74,-856.45,553.22,0.97,4.21,1.52,-25.89
41223,762.07,771.15,762.64,757.48,763.34,32.71,-851.56,548.83,-0.41,0.92,-0.05,-29.21
41258,764.39,770.33,761.92,756.96,763.40,32.23,-846.19,569.34,-2.79,-3.53,-1.53,-40.88
41292,769.07,768.85,760.69,755.95,763.64,37.11,-857.42,541.99,-9.03,-6.44,-5.44,-60.87
41326,772.84,767.12,759.59,754.95,763.62,63.96,-867.68,539.06,-13.95,-3.53,-6.15,-72.38
41360,775.49,765.67,758.74,754.23,763.53,54.20,-841.80,552.73,-11.31,-3.73,-2.92,-80.58
41395,777.14,764.69,757.79,753.73,763.34,82.52,-890.62,515.62,-22.61,-5.15,-1.55,-94.71
41429,778.25,764.24,757.29,753.38,763.29,66.89,-883.79,525.88,-11.79,-0.87,0.03,-102.21
41463,780.71,763.74,757.02,753.09,763.64,43.46,-870.61,514.16,-20.40,-2.30,-3.82,-108.93
41497,782.74,763.41,756.82,752.95,763.98,81.05,-949.22,438.48,-15.56,-1.62,-3.48,-116.28
41532,783.92,763.40,756.80,752.81,764.23,74.22,-908.20,437.99,0.36,-0.02,3.52,-118.82
41566,783.49,763.56,756.79,752.93,764.19,69.82,-905.76,495.61,12.36,2.50,1.57,-120.59
41600,783.44,763.95,756.94,753.13,764.36,61.04,-875.98,493.16,13.03,5.95,2.74,-122.75
41635,784.26,764.55,757.32,753.51,764.91,71.29,-937.50,493.65,19.09,6.11,2.02,-126.41
41669,782.91,764.72,757.51,753.65,764.70,53.71,-890.14,521.48,6.60,1.60,-1.92,-120.46
41703,783.26,765.08,757.67,753.83,764.96,76.66,-863.77,512.70,11.96,2.79,-0.24,-123.30
41737,782.76,765.18,757.94,754.13,765.00,70.80,-864.26,541.02,2.44,2.99,1.18,-120.06
41772,782.25,765.26,757.91,754.06,764.87,76.17,-859.37,536.62,0.46,2.89,-1.05,-118.59
41806,782.85,765.59,757.83,754.12,765.10,61.04,-875.98,521.00,-0.17,-0.20,1.70,-126.19
41840,782.81,765.87,757.78,754.06,765.13,70.31,-896.00,523.44,-0.33,2.52,-1.48,-128.63
41874,783.84,766.11,757.60,753.90,765.36,46.39,-839.84,544.92,-1.43,-2.05,4.53,-136.35
41908,785.96,766.60,757.52,753.74,765.95,59.08,-876.95,528.81,-3.42,-0.70,6.07,-146.95
41942,786.09,766.74,757.30,753.43,765.89,50.29,-859.86,543.46,-13.18,1.65,-0.22,-149.66
41976,786.52,766.89,757.23,753.24,765.97,52.25,-889.16,499.02,-8.77,-0.78,-0.59,-151.39
42009,785.02,767.47,757.35,753.35,765.80,72.27,-896.97,518.55,12.50,4.45,3.60,-149.39
42043,782.44,768.21,757.59,753.58,765.46,62.50,-885.25,509.28,10.21,3.98,3.15,-143.82
42077,780.69,768.96,757.96,754.20,765.45,27.83,-836.43,571.78,17.60,4.84,0.68,-143.81
42113,778.62,769.40,758.30,754.69,765.25,49.32,-868.16,529.79,14.12,5.67,-1.46,-138.86
42147,777.70,769.86,758.74,755.30,765.40,43.95,-864.26,550.29,9.75,1.34,-0.43,-137.57
42181,776.22,770.34,759.35,755.96,765.47,51.76,-867.68,525.88,6.91,4.11,1.88,-130.79
42215,774.98,770.72,759.91,756.50,765.53,51.27,-835.45,564.94,7.73,1.55,0.32,-123.59
42249,773.97,770.77,760.16,756.67,765.39,56.64,-835.94,560.55,1.89,5.00,-0.89,-116.86
42283,773.10,770.64,760.27,756.95,765.24,60.55,-862.79,552.25,8.02,2.10,0.27,-114.06
42317,772.59,770.40,760.59,757.00,765.15,29.30,-830.57,564.45,0.78,0.08,-0.20,-103.16
42351,771.73,770.32,760.70,757.04,764.95,52.25,-862.30,553.22,4.72,2.43,0.52,-97.50
42385,771.23,770.47,760.80,757.22,764.93,53.71,-834.96,563.48,2.25,0.05,0.51,-96.97
42419,771.19,770.45,760.82,757.27,764.93,24.41,-850.10,569.82,0.85,0.65,0.16,-97.09
42454,771.59,770.44,760.82,757.25,765.02,47.85,-843.26,572.27,1.33,0.73,0.06,-98.12
42488,771.75,770.44,760.78,757.21,765.04,37.60,-843.75,569.34,3.08,1.65,-0.84,-98.98
42522,771.97,770.41,760.54,757.11,765.01,58.59,-851.56,549.80,-1.66,2.11,2.67,-104.07
42556,772.59,770.45,760.42,756.96,765.11,59.08,-841.80,558.59,-0.19,3.94,0.82,-107.38
42591,773.06,770.64,760.24,756.84,765.19,51.76,-839.36,574.71,-1.08,1.44,0.88,-113.00
42625,773.48,770.61,760.04,756.81,765.23,62.99,-850.59,562.01,1.53,3.55,-0.04,-118.99
42659,774.48,770.51,759.82,756.71,765.38,55.66,-837.40,581.54,-0.66,3.60,0.22,-125.55
42694,775.02,770.25,759.61,756.55,765.36,44.92,-846.19,563.96,-2.18,3.54,-2.43,-128.11
42728,775.68,770.14,759.38,756.30,765.38,30.27,-828.12,595.21,-0.72,3.54,-2.29,-131.51
42762,776.24,769.90,759.14,756.02,765.32,54.69,-835.94,563.48,-4.02,-1.76,0.17,-133.57
42796,776.33,769.53,758.80,755.70,765.09,58.59,-840.82,564.45,-8.08,2.23,0.81,-134.56
42831,776.56,769.47,758.57,755.24,764.96,54.20,-868.65,524.90,-5.24,0.43,1.16,-133.84
42865,776.66,769.58,758.52,755.30,765.01,46.39,-824.22,564.94,-3.02,0.32,2.73,-137.29
42899,776.98,769.77,758.42,755.16,765.08,50.78,-855.96,552.73,-3.82,3.24,1.15,-140.12
42933,777.35,769.91,758.29,755.02,765.14,47.36,-849.12,553.71,-6.09,0.56,1.02,-143.70
42968,776.73,770.14,758.23,755.12,765.06,58.59,-847.66,588.38,2.60,5.18,1.29,-146.46
43002,777.39,770.26,758.17,755.37,765.30,50.29,-839.36,558.11,2.49,-0.78,1.80,-154.91
43036,777.42,770.02,757.96,755.04,765.11,57.62,-861.33,550.78,-4.81,-0.02,3.53,-153.37
43072,776.81,769.85,757.82,755.02,764.88,38.09,-868.65,519.53,-0.56,1.44,0.60,-153.18
43106,777.50,769.61,757.78,755.08,764.99,47.36,-854.00,532.23,-0.95,0.40,-1.02,-155.49
43141,777.44,769.20,757.80,755.07,764.88,52.25,-849.61,549.32,0.48,0.33,0.28,-151.15
43175,776.96,769.04,757.96,755.09,764.76,50.78,-857.91,532.23,4.11,1.80,-1.02,-144.65
43209,777.17,768.77,758.09,755.15,764.80,44.92,-870.12,534.67,0.22,-3.17,-0.93,-140.98
43244,776.68,768.79,758.22,755.18,764.72,41.50,-850.59,552.25,1.92,-0.54,-0.87,-136.54
43278,775.24,768.79,758.28,755.36,764.42,52.73,-871.58,539.55,-0.24,-0.57,-0.45,-132.80
43312,773.01,768.65,758.42,755.62,763.92,53.71,-874.51,522.46,-0.56,1.60,0.35,-124.28
43346,770.54,768.47,758.57,755.82,763.35,54.20,-844.24,544.43,1.82,1.96,-0.50,-113.73
43381,769.01,768.14,758.58,755.73,762.86,54.20,-863.77,555.18,-3.28,1.00,0.09,-104.22
43415,768.39,768.02,758.55,755.73,762.67,61.04,-854.49,542.97,-2.73,1.43,-1.31,-101.76
43449,768.78,767.59,758.54,755.51,762.60,49.80,-878.42,524.41,-1.46,-0.43,-1.62,-96.73
43483,769.80,767.12,758.58,755.48,762.75,60.55,-871.09,542.97,4.75,-1.72,-4.01,-95.05
43517,771.04,766.58,758.61,755.43,762.91,72.27,-852.54,539.55,-0.95,0.31,-2.41,-93.46
43551,772.67,766.40,758.50,755.10,763.17,42.97,-864.26,525.88,-4.06,-2.37,0.76,-95.51
43585,775.03,766.54,758.42,754.89,763.72,48.34,-846.68,556.64,-12.38,-1.24,2.80,-103.59
43618,775.00,766.72,758.56,754.94,763.80,95.70,-928.71,484.86,2.11,0.34,1.60,-102.25
43652,772.80,767.06,759.29,755.45,763.65,56.64,-872.56,537.60,18.60,1.81,-0.42,-86.72
43686,770.79,767.14,759.91,755.78,763.41,64.94,-835.94,573.24,4.22,3.39,0.73,-69.90
43720,769.65,767.67,760.57,756.09,763.49,57.62,-866.70,545.90,7.74,3.86,0.53,-58.49
43754,769.82,768.11,760.86,756.32,763.78,42.97,-845.70,576.17,0.66,1.20,1.55,-58.57
43788,770.27,768.43,760.95,756.56,764.05,59.57,-858.40,541.02,-5.09,1.06,0.11,-64.04
43822,770.73,768.52,761.20,756.72,764.29,59.57,-875.98,541.99,2.33,3.39,0.56,-62.54
43856,770.64,768.54,761.35,756.82,764.34,52.73,-844.73,544.43,0.51,0.47,0.53,-60.17
43890,770.33,768.68,761.48,756.93,764.36,57.13,-851.56,549.32,2.77,3.43,0.66,-58.46
43924,769.73,768.97,761.69,757.17,764.39,59.08,-851.56,552.25,1.84,1.49,2.58,-56.97
43958,768.93,769.28,761.88,757.29,764.35,41.50,-860.35,545.41,0.09,1.30,1.52,-53.88
43992,767.82,769.55,762.13,757.44,764.23,41.99,-855.47,550.78,6.42,1.79,0.64,-48.16
44028,766.72,769.53,762.32,757.65,764.05,54.20,-845.21,548.34,1.65,1.55,1.69,-42.59
44063,765.55,769.58,762.33,757.69,763.79,49.32,-841.31,565.43,1.78,1.87,0.90,-39.33
44097,764.31,769.67,762.38,757.72,763.52,55.66,-846.68,546.87,1.60,0.43,2.96,-34.99
44131,763.06,769.76,762.42,757.82,763.26,47.85,-847.17,547.85,2.77,3.84,1.50,-31.76
44165,762.16,770.00,762.46,757.85,763.12,48.34,-845.21,554.20,2.40,3.85,2.45,-30.26
44200,761.70,770.10,762.62,758.03,763.11,46.88,-849.12,563.48,2.85,2.27,-0.39,-27.93
44234,761.96,770.08,762.59,757.98,763.15,46.88,-842.77,559.57,0.14,-0.42,0.30,-28.95
44268,762.57,770.04,762.52,757.97,763.28,45.41,-857.91,560.55,-3.65,-1.18,0.74,-32.05
44303,763.11,769.96,762.49,757.92,763.37,50.29,-850.10,564.94,-0.69,1.05,0.69,-33.47
44337,763.61,769.90,762.38,757.87,763.44,41.02,-854.00,547.85,-1.44,-1.37,-1.89,-36.58
44371,764.11,769.77,762.36,757.81,763.51,43.46,-860.84,560.55,0.92,-1.12,-1.89,-36.90
44405,764.69,769.75,762.34,757.84,763.66,46.39,-845.70,557.62,0.40,0.66,-1.26,-39.60
44440,765.31,769.77,762.29,757.75,763.78,44.92,-856.45,557.62,-0.18,1.30,-0.03,-41.77
44474,766.23,769.75,762.34,757.70,764.00,46.39,-851.56,550.78,1.39,0.31,-2.01,-42.82
44508,766.69,769.65,762.25,757.64,764.06,59.57,-859.37,550.29,-1.84,2.45,0.18,-45.10
44542,766.81,769.44,762.28,757.57,764.02,53.22,-845.70,541.02,1.06,0.10,-1.30,-42.02
44577,766.87,769.40,762.23,757.40,763.98,56.64,-849.61,565.92,-0.24,0.92,-0.35,-40.62
44611,766.70,769.40,762.15,757.51,763.94,62.50,-849.12,548.34,-0.14,2.07,2.37,-43.65
44645,766.66,769.25,762.20,757.37,763.87,43.46,-849.12,560.06,0.72,1.09,0.30,-39.12
44679,766.75,769.21,762.15,757.37,763.87,53.71,-844.73,552.73,0.10,0.60,-0.16,-40.26
44714,766.67,769.07,762.06,757.29,763.77,47.36,-858.40,552.73,1.50,0.50,0.28,-39.97
44748,766.64,769.14,762.05,757.27,763.77,45.90,-853.03,556.64,-1.95,0.23,-0.91,-40.31
44782,766.59,769.04,762.00,757.10,763.68,46.88,-855.47,543.95,0.05,-3.90,0.63,-38.14
44817,766.60,769.07,762.04,757.15,763.71,53.22,-848.14,561.52,-0.71,0.16,0.57,-37.91
44851,766.55,769.03,762.02,757.10,763.67,42.97,-854.49,556.15,0.31,1.84,-1.27,-37.43
44885,766.53,769.03,762.05,757.15,763.69,59.57,-848.63,557.13,-0.04,1.73,1.21,-37.31
44919,766.66,768.95,762.01,757.04,763.66,63.96,-848.14,552.25,0.98,0.21,0.54,-36.35
44954,766.70,768.97,762.05,757.07,763.70,65.43,-854.98,540.53,2.57,3.60,1.94,-36.04
44990,766.89,768.94,762.04,757.10,763.74,40.53,-847.17,558.11,2.08,0.91,-2.12,-37.20
45024,767.10,768.91,761.97,757.12,763.78,43.46,-851.56,553.71,-0.27,3.12,-0.98,-39.79
45058,767.30,768.84,761.96,757.07,763.79,49.80,-848.14,551.76,0.50,3.95,0.49,-39.57
45092,767.61,768.76,761.95,757.07,763.85,68.85,-856.93,563.48,1.67,1.37,-1.24,-40.04
45127,767.91,768.79,761.90,757.06,763.92,47.36,-849.12,556.15,-0.51,1.44,-1.44,-42.45
45160,768.30,768.91,761.88,757.01,764.02,59.08,-847.66,551.76,1.90,1.49,-0.47,-44.61
45194,768.48,768.85,761.93,757.03,764.07,55.18,-845.21,560.55,-0.82,2.90,0.40,-43.77
45228,768.28,768.86,762.00,757.18,764.08,41.02,-865.23,549.32,-0.56,3.93,-1.46,-43.58
45262,767.96,768.86,761.94,757.07,763.96,62.01,-851.56,542.97,-0.37,1.81,1.95,-42.56
45295,767.73,768.75,761.88,757.09,763.87,51.27,-852.54,554.69,-0.56,2.08,1.59,-42.43
45329,767.42,768.73,761.92,757.13,763.80,56.64,-851.56,558.11,1.00,2.40,0.47,-41.00
45363,766.83,768.84,761.98,757.07,763.68,57.62,-849.12,551.76,1.22,2.44,0.18,-37.26
45397,766.45,768.75,761.93,757.08,763.55,34.67,-836.43,549.80,-2.20,5.09,0.63,-36.86
45431,766.25,768.75,761.97,757.11,763.52,51.76,-855.96,559.08,0.98,1.99,2.44,-35.50
45465,766.19,768.88,761.91,757.14,763.53,48.83,-851.56,550.29,2.24,1.82,0.62,-38.24
45499,766.18,768.85,762.04,757.09,763.54,51.27,-857.42,560.55,1.08,-0.73,0.58,-33.83
45533,766.38,768.87,761.96,757.05,763.56,56.64,-854.49,562.01,-1.34,-0.18,0.82,-36.27
45567,766.53,769.04,761.95,757.15,763.67,56.64,-840.33,559.08,-4.00,1.85,-0.34,-39.75
45601,766.50,769.16,762.08,757.22,763.74,53.71,-850.10,551.76,-0.50,3.15,2.15,-38.37
45636,766.69,769.34,762.07,757.33,763.86,53.71,-853.03,545.41,2.24,0.45,2.69,-42.34
45670,766.77,769.48,762.14,757.44,763.96,65.43,-849.61,574.22,1.19,3.37,0.90,-43.63
45704,766.82,769.48,762.19,757.42,763.98,49.32,-846.19,550.29,2.02,0.13,-0.50,-42.30
45738,766.94,769.52,762.27,757.49,764.06,44.92,-862.79,551.76,-0.05,-0.98,0.98,-42.18
45773,767.28,769.62,762.32,757.43,764.16,51.76,-846.19,554.20,-0.62,0.82,-3.05,-42.04
45807,767.67,769.63,762.30,757.40,764.25,58.59,-853.52,559.08,-2.73,1.24,-1.77,-43.60
45841,767.92,769.63,762.30,757.43,764.32,45.41,-852.05,553.22,1.97,1.78,1.41,-44.60
45876,767.97,769.70,762.31,757.37,764.34,52.73,-852.05,548.83,-0.67,0.26,1.46,-44.31
45910,767.71,769.71,762.40,757.39,764.30,43.46,-851.07,558.59,0.66,0.79,0.60,-41.68
45946,767.30,769.56,762.35,757.39,764.15,47.85,-850.59,553.22,-1.21,5.21,-0.24,-40.32
45980,766.84,769.54,762.36,757.38,764.03,56.64,-856.93,543.46,0.16,1.71,1.19,-38.16
46014,766.40,769.50,762.37,757.32,763.90,48.83,-856.45,561.04,0.75,3.55,1.39,-35.29
46049,766.32,769.35,762.30,757.24,763.80,59.08,-861.33,555.66,1.15,2.69,1.22,-34.22
46083,766.26,769.23,762.25,757.21,763.74,57.13,-843.26,558.59,2.25,1.30,-0.18,-33.98
46117,766.60,769.18,762.20,757.22,763.80,43.95,-842.77,551.76,0.06,1.31,1.03,-36.14
46151,766.94,769.09,762.15,757.23,763.85,59.08,-849.61,544.43,0.32,0.20,-0.31,-37.85
46186,767.06,768.92,762.12,757.09,763.80,56.15,-861.33,554.69,-1.31,0.50,0.08,-35.46
46220,767.49,768.73,761.92,756.93,763.77,57.62,-853.03,551.27,-1.92,0.79,-0.76,-38.00
46254,767.93,768.50,761.73,756.77,763.73,59.08,-859.86,562.01,-0.71,-2.39,-0.94,-40.05
46288,768.62,768.47,761.70,756.70,763.87,63.48,-847.17,559.08,-4.05,0.24,0.34,-41.95
46323,769.33,768.43,761.57,756.60,763.98,50.29,-853.52,545.90,-1.90,0.40,1.32,-45.96
46357,769.94,768.38,761.48,756.54,764.09,65.92,-866.70,543.95,-1.10,0.21,0.68,-49.00
46391,770.57,768.46,761.37,756.48,764.22,53.71,-844.73,565.43,1.05,1.79,0.20,-53.66
46426,771.54,768.38,761.12,756.36,764.35,48.83,-841.80,560.06,-2.81,3.24,1.60,-60.73
46460,772.91,768.35,760.84,756.26,764.59,60.55,-854.00,531.25,-7.02,0.80,1.63,-70.78
46494,774.10,768.21,760.53,756.10,764.74,44.92,-860.84,538.09,-6.17,1.48,-1.54,-79.04
46528,775.17,767.99,760.14,755.83,764.78,47.85,-849.61,543.46,-7.54,-0.83,2.45,-86.76
46563,775.26,767.77,759.87,755.59,764.63,52.25,-874.02,526.86,-0.20,-2.15,-0.65,-88.40
46597,774.75,767.29,759.54,755.35,764.23,59.08,-849.12,536.13,-0.79,-2.16,0.39,-87.51
46631,773.53,767.31,759.51,755.17,763.88,56.15,-858.89,526.37,2.94,2.19,-0.56,-81.74
46665,772.82,767.20,759.35,754.95,763.58,43.95,-839.36,545.41,-3.42,3.70,2.08,-79.14
46700,771.93,767.19,759.00,754.78,763.23,88.38,-902.34,504.88,-1.34,2.87,1.05,-82.11
46734,772.26,767.36,758.93,754.67,763.30,61.52,-866.21,522.95,-1.61,4.43,3.21,-84.78
46768,773.83,767.44,759.06,754.77,763.77,37.11,-859.37,541.99,3.35,1.65,-0.11,-89.00
46801,775.28,767.03,759.08,754.74,764.03,39.06,-852.05,549.80,-1.25,-4.08,-1.16,-89.82
46835,779.08,767.03,758.90,754.56,764.89,43.46,-858.89,522.95,-8.33,-4.44,1.17,-104.56
46869,781.59,766.96,758.84,754.41,765.45,36.13,-853.03,543.95,-3.34,2.09,-1.51,-112.02
46904,781.44,766.65,758.62,754.27,765.24,59.57,-872.07,542.48,-2.78,0.42,-0.05,-112.51
46938,782.65,766.91,758.62,754.27,765.61,48.83,-855.47,536.13,1.87,0.85,-0.47,-118.79
46972,781.04,767.12,758.73,754.36,765.31,60.06,-870.61,533.20,1.32,3.82,2.79,-113.28
47006,780.63,767.48,758.82,754.48,765.35,41.99,-879.39,525.39,5.27,1.88,0.77,-114.37
47040,780.40,768.02,759.08,754.72,765.55,37.60,-852.05,537.11,8.03,3.56,1.40,-114.80
47074,779.49,768.60,759.33,754.86,765.57,47.36,-856.45,532.23,2.29,4.50,3.34,-112.30
47108,779.33,769.28,759.59,754.96,765.79,39.06,-870.12,523.93,0.76,2.26,2.50,-112.27
47142,779.20,769.75,759.83,755.15,765.98,47.85,-871.58,544.43,5.57,3.88,2.01,-112.44
47176,778.75,770.41,760.19,755.38,766.18,64.45,-861.33,556.15,3.69,0.80,5.66,-110.51
47210,777.86,770.91,760.50,755.57,766.21,47.85,-864.26,552.73,6.61,4.18,3.26,-106.69
47245,776.59,771.05,760.49,755.76,765.97,44.92,-863.28,549.80,3.15,2.85,-0.87,-106.34
47279,775.59,771.39,760.86,756.00,765.96,60.55,-860.84,555.66,9.24,2.73,2.55,-100.03
47313,774.30,771.92,761.34,756.40,765.99,35.16,-853.03,555.66,7.51,3.92,-0.18,-93.88
47347,773.23,772.23,761.63,756.89,765.99,65.43,-856.45,564.94,8.60,1.96,0.92,-92.61
47382,772.81,772.50,761.88,757.41,766.15,30.76,-858.40,552.73,6.69,3.74,1.40,-94.81
47416,772.54,772.45,762.02,757.89,766.22,32.71,-840.82,572.75,7.21,0.08,0.99,-96.78
47450,772.19,772.58,762.07,758.21,766.26,40.04,-834.47,580.08,4.65,1.92,-0.26,-100.21
47485,772.20,772.47,762.03,758.38,766.27,65.92,-849.61,552.73,3.31,3.18,1.82,-103.02
47519,771.88,772.37,761.80,758.28,766.08,44.92,-812.01,589.36,-0.56,4.26,-4.76,-105.13
47553,772.08,772.01,761.48,758.15,765.93,38.57,-853.52,550.29,0.98,2.33,1.58,-109.25
47618,772.43,771.32,760.90,757.68,765.58,38.09,-826.66,579.59,-1.61,-0.53,-1.15,-112.45
47670,772.95,770.98,760.59,757.28,765.45,48.34,-839.84,572.75,-0.75,-0.63,0.67,-113.23
47719,773.23,770.80,760.34,757.12,765.37,29.79,-831.05,586.91,1.24,0.70,0.93,-116.68
47774,774.49,770.75,759.98,756.82,765.51,56.64,-866.70,547.85,-0.85,1.75,0.93,-125.13
47826,775.06,770.77,759.66,756.80,765.57,30.76,-849.12,563.48,-0.70,1.90,-1.63,-134.87
47861,775.62,770.81,759.50,756.77,765.68,33.20,-845.21,577.15,-1.10,-0.22,1.21,-140.53
47895,776.21,770.73,759.28,756.57,765.70,41.02,-833.50,569.34,-1.48,0.40,2.47,-144.56
47929,777.17,770.52,758.99,756.43,765.78,53.22,-861.82,537.60,-5.04,-1.75,-1.19,-151.32
47963,778.63,770.14,758.47,756.19,765.86,58.59,-833.98,557.62,-4.99,2.81,-1.33,-162.78
47998,780.65,769.45,758.15,755.68,765.98,50.29,-826.66,582.52,-10.24,-1.68,-1.95,-164.70
48032,782.46,768.49,757.76,755.18,765.97,62.01,-885.74,535.64,-8.53,-5.04,-1.57,-165.33
