currTime,s1,s2,s3,s4,s,AccX,AccY,AccZ,GyroX,GyroY,GyroZ,GRF,Frame,SubFrame,Weight,Fx,Fy,Fz,Mx,My,Mz,Cx,Cy,Cz
11637,787.4,766.89,753.79,768.21,769.08,-50.29,-873.54,526.37,0.17,0.64,0.33,-460.18,2328,0,64,-0.708647,-14.85,-49.0837,5498.79,-5114.55,1403.07,-104.26,-112.072,0
11672,787.29,766.93,753.78,768.35,769.09,-41.02,-878.42,537.11,0.1,-1.35,-0.07,-462.62,2335,0,64,-5.82332,-1.07495,-98.3888,8356.97,-11133.9,245.453,-113.226,-85.0619,0
11707,787.08,766.99,753.84,768.47,769.09,-44.43,-870.12,524.41,1.16,-0.66,-0.88,-462.56,2342,0,64,8.96212,35.7998,-181.126,7263.36,-19269.7,-3911.47,-106.379,-40.0365,0
11742,786.86,766.95,753.84,768.41,769.01,-43.95,-884.28,537.6,0.41,2.3,-3.2,-460.61,2349,0,64,10.9284,45.3653,-257.202,7919.94,-28055.1,-5542.36,-109.078,-30.7931,0
11778,786.79,767.02,753.84,768.31,768.99,-36.62,-872.56,530.76,-0.99,1.48,-3.07,-459.4,2357,0,64,19.5254,40.5927,-256.825,4537.95,-27488.2,-4585.28,-107.031,-17.6711,0
11815,786.75,766.91,753.77,768.38,768.96,-35.64,-876.46,528.32,-0.5,1.31,-1.08,-461.15,2364,0,64,23.7752,44.6498,-281.783,959.972,-29938,-5338.57,-106.243,-3.41746,0
11850,786.76,766.97,753.81,768.49,769.01,-41.02,-876.95,532.71,1.34,-0.59,0.92,-462.23,2371,0,64,24.0803,55.8567,-349.356,-1543.95,-37337.7,-6967.9,-106.875,4.4187,0
11885,786.79,766.89,753.78,768.45,768.98,-35.64,-874.51,521.48,0.09,-0.66,-0.08,-461.99,2378,0,64,29.5424,68.4744,-451.132,-1444.97,-48152.1,-8416.22,-106.737,3.20699,0
11920,786.93,766.91,753.81,768.38,769.01,-45.41,-883.79,521,-1.93,-1.33,0.82,-460.69,2385,0,64,37.9628,77.3843,-552.951,-16.8391,-58593.5,-8967.72,-105.967,0.0329295,0
11955,786.77,766.81,753.83,768.51,768.98,-56.64,-871.09,522.95,-1.68,-2.98,0.24,-460.72,2392,0,64,46.9482,85.1716,-639.855,1218.54,-67007.4,-9230.98,-104.723,-1.90384,0
11993,786.59,766.71,753.77,768.41,768.87,-49.32,-877.93,530.76,-0.9,-0.38,0.6,-459.56,2400,0,64,53.2256,81.0187,-685.36,2728.71,-70673.1,-7967.57,-103.118,-3.98124,0
12027,786.59,766.55,753.77,768.33,768.81,-143.07,-853.03,568.85,6.44,3.5,0.4,-456.95,2406,0,64,53.8131,72.0697,-682.893,3705.5,-69791.9,-6800.26,-102.2,-5.42635,0
12062,786.51,766.58,753.81,768.3,768.8,-59.57,-864.26,537.6,-0.46,4.34,-0.02,-455.52,2413,0,64,50.5695,62.2639,-660.283,5145.92,-67429.1,-5581.71,-102.122,-7.79389,0
12097,786.36,766.56,753.81,768.39,768.78,-38.57,-864.26,526.86,-0.09,1.92,0.93,-456.12,2420,0,64,46.3875,55.6935,-632.566,6602.69,-64858,-4872.53,-102.532,-10.4386,0
12132,785.98,766.5,753.84,768.52,768.71,-36.13,-859.86,535.64,-1.28,1.34,0.44,-455.44,2427,0,64,42.7817,49.6761,-618.473,9235.02,-63801.4,-4321.6,-103.16,-14.9321,0
12166,785.93,766.45,753.78,768.54,768.67,-43.95,-874.51,525.39,-1.13,-1.89,-0.95,-456.77,2434,0,64,41.6478,42.3865,-618.083,13305,-64190.9,-3640.64,-103.855,-21.5258,0
12204,785.88,766.52,753.77,768.46,768.66,-41.02,-863.77,535.16,-1.37,-2.5,-0.51,-456.27,2442,0,64,43.0108,35.4204,-637.384,18777.5,-66695.8,-2953.94,-104.64,-29.4592,0
12239,785.73,766.53,753.86,768.5,768.66,-29.79,-872.56,523.93,-0.11,-0.34,-1.17,-454.2,2449,0,64,44.9726,33.4485,-658.067,22283.5,-69165.3,-2679.89,-105.104,-33.8617,0
12274,785.71,766.44,753.88,768.57,768.65,-37.6,-874.51,544.92,-1.07,1.32,-0.15,-453.73,2456,0,64,46.5241,32.731,-675.917,24059.3,-71290.3,-2807.85,-105.472,-35.5949,0
12309,785.28,766.5,753.82,768.5,768.53,-35.16,-864.75,531.25,-0.99,-1.39,-2.06,-453.26,2463,0,64,47.5866,30.8113,-677.815,24675.4,-71563,-2761.98,-105.579,-36.4044,0
12344,785.01,766.57,753.85,768.68,768.53,-39.55,-871.09,527.34,-0.04,-1.37,1.15,-454.95,2470,0,64,48.8492,27.0579,-668.578,24528.2,-70467.6,-2569.52,-105.399,-36.6871,0
12379,784.95,766.66,753.79,768.8,768.55,-35.16,-867.68,521.97,-0.61,2.2,-0.29,-458.78,2477,0,64,50.0801,23.0088,-652.11,23450.5,-68706.2,-2265.5,-105.36,-35.9608,0
12417,784.87,766.69,753.85,768.85,768.56,-8.79,-880.86,539.55,-0.85,0.36,-0.26,-457.88,2484,0,64,50.1063,19.5132,-638.406,22555.4,-67309,-1845.65,-105.433,-35.3308,0
12452,784.83,766.74,753.8,768.87,768.56,-23.93,-901.86,524.41,1.41,-1.03,-1.56,-459.63,2491,0,64,50.9072,14.839,-626.051,22433.9,-66073.4,-1483.28,-105.54,-35.834,0
12487,784.73,766.74,753.8,768.89,768.54,-28.81,-876.95,528.32,-0.27,-0.66,-3.21,-459.73,2498,0,64,51.0294,8.4612,-596.978,22158.5,-63074.8,-999.78,-105.657,-37.1183,0
12522,784.67,766.71,753.91,768.9,768.55,-26.37,-880.86,527.34,-0.62,2.19,0.21,-456.64,2505,0,64,46.2658,3.35872,-547.759,21065.9,-58046.3,-497.361,-105.971,-38.4589,0
12557,784.71,766.69,753.85,768.88,768.53,-29.3,-890.14,538.09,2.79,-3.1,-0.11,-457.73,2512,0,64,42.4662,-0.185663,-479.688,18850.8,-51019.5,-341.435,-106.361,-39.2977,0
12592,784.7,766.79,753.86,768.83,768.54,-35.64,-870.61,541.99,-0.77,-0.96,-0.8,-457.58,2519,0,64,37.6976,-2.49231,-403.478,15721.9,-42889,62.2185,-106.297,-38.9668,0
12631,784.78,766.72,753.97,768.9,768.59,-33.2,-868.65,524.9,-2.77,0.05,0.08,-455.68,2527,0,64,27.7794,-8.13265,-301.78,11534.4,-32199.8,744.456,-106.7,-38.2237,0
12666,784.8,766.76,753.86,768.89,768.58,-43.46,-882.32,518.55,-1.43,-0.25,-0.29,-458.62,2534,0,64,15.023,-11.3638,-185.825,6512.69,-19946.3,1016.28,-107.35,-35.0112,0
12701,784.81,766.73,753.85,768.89,768.57,-45.9,-881.84,530.76,-1.07,0.37,0.15,-458.7,2541,0,64,2.93629,-6.50029,-72.5892,1092.77,-7816.5,356.3,-107.689,-14.8381,0
12984,784.73,767.07,753.89,769.3,768.75,-22.46,-870.61,536.62,0.5,-0.34,0.15,-466.17,2598,0,64,-4.68094,-1.01042,-86.3398,931.09,-12109.9,-723.322,-140.125,-10.6651,0
13021,784.72,767.11,753.88,769.41,768.78,-28.81,-881.84,531.25,-1.54,3.93,1.41,-468.23,2605,0,64,2.60099,-6.67382,-157.796,55.8269,-21594.3,-876.959,-136.842,-0.374922,0
13056,784.59,767.11,753.94,769.5,768.78,-31.25,-868.16,521,0.03,-1.53,0.99,-467.76,2612,0,64,9.20832,-0.956555,-166.196,-2325.18,-22276.8,-2030.36,-134.039,13.9907,0
13091,784.55,767.13,753.95,769.48,768.78,-41.02,-877.93,547.36,-0.79,-0.21,-1.05,-467.01,2619,0,64,19.2118,3.19536,-167.461,-4877.19,-21509.8,-2749.39,-128.448,29.1218,0
13126,784.61,767.21,753.9,769.52,768.81,-31.25,-876.46,530.76,-1.56,0.07,0.76,-469.71,2626,0,64,22.5127,6.64929,-188.39,-6373.85,-24102.7,-3716.91,-127.937,33.8344,0
13161,784.63,767.26,753.95,769.61,768.86,-45.41,-876.46,539.55,-0.79,-1.41,-1.25,-470.32,2633,0,64,23.0972,7.93016,-229.501,-7179.97,-29614.8,-4218.1,-129.039,31.2938,0
13196,784.58,767.28,753.96,769.6,768.86,-39.55,-867.19,537.6,0.54,1.67,-2.3,-470.01,2640,0,64,24.165,7.43275,-268.039,-7493.28,-34961.7,-4377.18,-130.437,27.9575,0
13234,784.69,767.31,753.95,769.63,768.89,-25.39,-864.75,540.53,-2.53,-3.82,0.69,-471.24,2648,0,64,26.4012,6.50787,-290.969,-8527.51,-37983.4,-4602.21,-130.541,29.3068,0
13269,784.63,767.35,753.97,769.69,768.91,-44.43,-878.42,524.41,0.33,0.82,-3.23,-471.69,2655,0,64,29.697,6.06668,-306.823,-9967.51,-39891.3,-4767.59,-130.014,32.4856,0
13304,784.75,767.39,753.96,769.69,768.95,-30.27,-880.37,535.16,0.05,-2.5,-0.87,-472.55,2662,0,64,32.6032,6.76731,-331.66,-11408.5,-42949.3,-5038.96,-129.498,34.3974,0
13339,784.71,767.42,753.92,769.69,768.94,-40.53,-876.46,532.23,0.76,1.11,2.05,-473.99,2669,0,64,34.5329,8.071,-361.63,-12462.8,-47050.3,-5496.38,-130.106,34.4631,0
13374,784.69,767.45,753.94,769.78,768.96,-35.16,-887.7,531.25,0.02,0.86,-3.44,-474.94,2676,0,64,35.9083,9.18363,-381.169,-13047.1,-49710.8,-5737.36,-130.417,34.2293,0
13409,784.57,767.5,753.99,769.76,768.96,-26.37,-884.77,532.71,-1.5,0.77,-2.35,-473.2,2683,0,64,35.7273,8.37368,-391.448,-12916.4,-51144.1,-5757.07,-130.654,32.9966,0
13447,784.52,767.67,754.03,769.85,769.02,-26.37,-882.32,541.5,1.59,-0.15,0.61,-474.78,2690,0,64,35.3419,8.88526,-396.472,-12773,-51990.2,-5690.39,-131.132,32.2166,0
13482,784.49,767.69,753.91,769.96,769.02,-35.16,-875.98,530.76,1.21,-0.81,1.31,-479.45,2697,0,64,34.4667,7.80478,-388.999,-12391.8,-51099.1,-5436.75,-131.36,31.8555,0
13516,784.35,767.65,753.99,770.04,769.01,-35.64,-867.19,526.86,-2.32,-0.5,0.39,-477.97,2704,0,64,32.3274,5.46504,-373.279,-11626.1,-49152,-4956.55,-131.677,31.1454,0
13552,784.07,767.67,754,770.19,768.98,-36.62,-870.12,536.13,-2.19,-0.85,-2.05,-479.04,2711,0,64,30.066,3.40989,-359.463,-10773.2,-47354.6,-4570.92,-131.737,29.97,0
13587,783.78,767.73,754.05,770.28,768.96,-20.02,-878.42,523.44,0.4,-1.89,0.28,-478.41,2718,0,64,28.7377,2.48474,-350.576,-9995.95,-46257.3,-4262.04,-131.947,28.5127,0
13625,783.53,767.75,753.95,770.34,768.89,-43.95,-869.14,535.16,0.36,0.58,-0.85,-481.15,2726,0,64,28.665,1.32092,-343.407,-9136.52,-45307.9,-3698.3,-131.937,26.6055,0
13660,783.43,767.76,754.03,770.36,768.89,-34.18,-873.05,526.86,1.19,0.01,-0.42,-479.2,2733,0,64,26.9502,0.968064,-338.97,-8291.79,-44815.3,-3599.49,-132.21,24.4616,0
13694,783.37,767.71,754.01,770.39,768.87,-37.11,-873.05,534.67,2.19,1.78,-0.5,-479.6,2740,0,64,26.7639,0.984243,-333.96,-7702.98,-44202.4,-3549.03,-132.358,23.0654,0
13729,783.23,767.77,754.03,770.53,768.89,-32.71,-862.3,525.88,-0.43,-0.78,1.97,-481.07,2747,0,64,26.5559,0.541799,-330.804,-6924.97,-43906.7,-3190.38,-132.728,20.9338,0
13764,782.89,767.75,754.03,770.58,768.81,-37.6,-879.88,527.83,0.27,-2.34,-2.56,-480.53,2754,0,64,25.653,-0.323752,-329.875,-6325.15,-43794.4,-3124.08,-132.76,19.1744,0
13799,782.64,767.75,754.05,770.75,768.8,-38.57,-884.28,533.69,0.74,-0.26,-0.31,-481.77,2761,0,64,25.5751,-0.072432,-329.701,-6221.93,-43760.8,-3115.95,-132.729,18.8715,0
13836,782.51,767.79,754.11,770.84,768.81,-37.6,-868.16,535.16,0.12,0.03,1.5,-481.44,2768,0,64,25.5851,-0.100545,-327.996,-6393.11,-43646,-3153.53,-133.069,19.4914,0
13871,782.19,767.82,754.02,770.89,768.73,-40.04,-873.05,532.71,-0.03,0.27,0.85,-483.34,2775,0,64,25.1073,0.00273307,-327.84,-6799.81,-43681,-3328.9,-133.239,20.7412,0
13906,781.95,767.86,754.04,771.03,768.72,-26.37,-882.32,532.71,-0.35,0.22,0.47,-484.6,2782,0,64,25.6679,0.211352,-330.091,-7332.56,-43910.3,-3502.5,-133.025,22.2137,0
13941,781.72,767.91,754.16,771.18,768.74,-45.9,-866.21,537.11,-0.26,-0.2,-1.73,-483.5,2789,0,64,25.895,0.150145,-334.794,-8064.38,-44489,-3623.12,-132.885,24.0874,0
13976,781.56,767.93,754.13,771.35,768.74,-44.92,-869.63,521.97,1.1,-0.88,-0.98,-486.43,2796,0,64,26.2471,-0.025741,-338.925,-9074.74,-44999.4,-3955.25,-132.771,26.7748,0
14011,781.42,768,754.17,771.41,768.75,-36.62,-874.51,519.04,0.8,-0.37,-1.63,-486.39,2803,0,64,26.3741,0.490729,-340.962,-10231.2,-45231.9,-4118.87,-132.66,30.0071,0
14049,781.21,767.99,754.11,771.51,768.7,-31.25,-866.7,535.16,0.13,-0.15,-0.74,-488.38,2811,0,64,26.6103,2.00402,-334.141,-11615.9,-44275.4,-4270.1,-132.505,34.764,0
14084,781.21,767.93,754.14,771.5,768.7,-31.25,-866.21,520.02,0.6,2.2,-0.29,-486.99,2818,0,64,26.1665,3.79688,-327.116,-12708.8,-43402.2,-4795.94,-132.681,38.851,0
14119,781.03,767.97,754.11,771.62,768.68,-30.27,-872.56,538.09,-2.5,0.4,0.08,-489.14,2825,0,64,26.2172,4.85641,-323.573,-13526.6,-42871.2,-5014.83,-132.493,41.8038,0
14154,781.01,767.96,754.09,771.7,768.69,-42.48,-878.91,533.2,-0.97,-0.19,-2.14,-490.94,2832,0,64,26.0609,5.15282,-321.243,-14193.3,-42603.2,-5253.95,-132.62,44.1825,0
14189,780.85,768.01,754.17,771.75,768.7,-36.62,-876.46,541.5,-0.17,0.63,-1.34,-489.3,2839,0,64,26.05,4.82382,-317.878,-14667.3,-42096,-5118.03,-132.428,46.1415,0
14224,780.81,768.07,754.21,771.84,768.73,-34.18,-882.32,522.95,-0.5,-0.69,-1.18,-489.93,2846,0,64,26.2348,4.80341,-314.249,-15120.5,-41607.5,-5208.39,-132.403,48.1167,0
14262,780.65,768.12,754.12,771.93,768.7,-38.09,-883.79,534.18,1.6,-0.24,-0.34,-493.56,2853,0,64,26.3315,5.38484,-310.126,-15612.4,-40972.9,-5377.87,-132.117,50.3419,0
14297,780.3,768.17,754.19,772.11,768.7,-34.18,-863.28,536.62,-0.81,0.45,2.98,-493.56,2860,0,64,25.5312,6.60587,-305.734,-15960.4,-40289.2,-5483.44,-131.779,52.2038,0
14332,780.13,768.2,754.14,772.16,768.66,-35.64,-877.44,540.04,-1.15,0.84,-0.94,-495.15,2867,0,64,25.655,7.16816,-301.585,-15940.3,-39760.7,-5608.75,-131.839,52.8549,0
14367,779.92,768.22,754.16,772.33,768.66,-41.02,-875,530.27,-0.53,0.84,0.94,-496.51,2874,0,64,25.4943,7.51957,-302.655,-15754,-39902.2,-5511.41,-131.841,52.0527,0
14402,779.81,768.26,754.13,772.44,768.66,-51.27,-856.45,534.18,-0.1,-2.38,-0.1,-499.01,2881,0,64,25.5655,6.41227,-306.989,-15241.3,-40585.9,-5454.08,-132.206,49.6482,0
14437,779.73,768.33,754.28,772.46,768.7,-32.23,-884.77,538.09,0,0.56,-1.11,-495.68,2888,0,64,26.0964,4.02041,-316.429,-14368.3,-41895.7,-5069.97,-132.401,45.4079,0
14476,779.77,768.34,754.21,772.4,768.68,-35.64,-867.68,530.76,-0.34,0.33,0.1,-496.85,2896,0,64,25.6376,1.56554,-321.286,-13428.3,-42646.6,-4566.83,-132.737,41.7955,0
14511,780.07,768.3,754.18,772.47,768.76,-32.71,-867.19,523.44,-0.13,1.2,-0.86,-499.43,2903,0,64,25.5656,1.22388,-320.125,-12889.5,-42386.7,-4528.92,-132.407,40.2639,0
14546,780.11,768.38,754.18,772.42,768.77,-19.53,-873.05,541.02,-0.24,-1.29,0.7,-499.47,2910,0,64,25.8818,1.72415,-321.141,-12525.4,-42512.1,-4668.32,-132.378,39.003,0
14581,780.19,768.3,754.24,772.32,768.76,-32.71,-876.46,539.55,0.8,-0.46,1.68,-496.05,2917,0,64,26.1114,1.39129,-326.237,-12071,-43195.4,-4821.72,-132.405,37.0007,0
14616,780.31,768.26,754.18,772.32,768.77,-31.25,-873.05,538.57,-0.03,-0.61,0.64,-497.69,2924,0,64,25.9277,1.97117,-323.71,-11985,-42844,-4847.53,-132.353,37.024,0
14654,780.49,768.29,754.1,772.25,768.78,-34.18,-865.23,539.06,1.07,-0.65,-2.11,-499.53,2932,0,64,25.3852,3.02386,-310.661,-12084.9,-41041.5,-4811.15,-132.111,38.9009,0
14689,780.54,768.25,754.16,772.2,768.79,-39.06,-877.93,536.62,0.28,0.93,-1.4,-497.04,2939,0,64,24.5128,4.35371,-303.598,-12018,-40102.9,-4877.55,-132.093,39.5851,0
14724,780.7,768.23,754.16,772.17,768.82,-32.23,-875,547.85,-0.3,-0.92,1.02,-497.02,2946,0,64,23.6893,5.09375,-298.79,-12044.1,-39551.4,-4908.25,-132.372,40.3095,0
14759,780.64,768.31,754.18,772.17,768.82,-42.97,-870.12,531.74,1.21,0.26,0.77,-497.07,2953,0,64,23.375,5.31386,-297.793,-11809.9,-39494.3,-4765.99,-132.623,39.6581,0
14794,780.69,768.28,754.19,772.24,768.85,-29.3,-874.51,519.53,0.54,-0.36,0.76,-497.69,2960,0,64,23.7711,4.81835,-301.243,-11321.3,-39832.6,-4555.01,-132.228,37.5822,0
14829,780.64,768.39,754.16,772.27,768.87,-24.41,-863.77,545.41,1.19,0.48,-0.15,-499.59,2967,0,64,24.6471,4.6676,-301.242,-10826.7,-39794.4,-4440.14,-132.101,35.94,0
14867,780.55,768.38,754.19,772.34,768.87,-45.9,-866.7,532.71,-2.15,-1.61,-0.66,-499.44,2974,0,64,24.7487,4.4971,-298.2,-10358.4,-39289.3,-4518.09,-131.755,34.7361,0
14903,780.4,768.4,754.19,772.4,768.85,-31.25,-877.93,544.43,0.03,-2.6,-0.63,-500.16,2982,0,64,24.6977,4.31156,-296.976,-9871.22,-39091.6,-4583.12,-131.632,33.2391,0
14938,780.28,768.52,754.19,772.39,768.85,-46.39,-875.49,543.46,0.12,0.54,-3.62,-500.38,2989,0,64,24.4176,4.91363,-301.33,-9424.75,-39617.8,-4661.18,-131.477,31.2772,0
14973,780.28,768.64,754.2,772.58,768.93,-41.99,-878.91,535.64,-0.08,2.82,-1.93,-504.01,2996,0,64,24.9337,4.74539,-308.012,-8865.86,-40485.9,-4714.33,-131.443,28.7844,0
15008,780.33,768.71,754.29,772.78,769.03,-29.79,-875,538.57,-1.66,-2.85,-2.32,-505.32,3003,0,64,25.7078,3.93275,-314.086,-8303.38,-41236.9,-4619.14,-131.292,26.4369,0
15043,780.39,768.81,754.36,772.98,769.13,-34.67,-875,530.27,-1.88,-0.89,-1.84,-507.55,3010,0,64,25.4032,3.09965,-318.27,-7821.62,-41732.2,-4573.4,-131.122,24.5755,0
15081,780.62,768.85,754.28,773.02,769.19,-23.44,-866.7,537.6,2.79,-0.5,-0.26,-511.28,3017,0,64,25.8087,2.46896,-319.782,-7357.23,-41982.2,-4679.01,-131.284,23.0072,0
15116,780.81,768.87,754.29,773.12,769.27,-28.81,-883.79,532.71,0.5,0.17,-0.13,-513.18,3024,0,64,25.6715,2.34959,-323.023,-7021.25,-42304.4,-4613.08,-130.964,21.7362,0
15151,781.24,768.91,754.35,773.23,769.43,-44.92,-869.63,531.74,-0.61,-2.77,1.98,-515.4,3031,0,64,26.4522,2.58922,-327.006,-6783.35,-42863.5,-4814.8,-131.079,20.7439,0
15186,781.76,768.99,754.26,773.22,769.56,-31.74,-872.56,534.18,1.74,0.77,0.95,-519.89,3038,0,64,26.3539,2.38964,-334.109,-6676.97,-43803.7,-4747.81,-131.106,19.9845,0
15221,782.22,768.88,754.32,773.1,769.63,-34.18,-869.63,535.64,1.35,0.73,-0.42,-517.38,3045,0,64,26.4795,2.17867,-341.222,-6575.52,-44737.7,-4604.47,-131.11,19.2707,0
15256,782.39,768.76,754.3,772.94,769.6,-30.76,-882.81,534.67,0.15,-0.16,0.03,-515.02,3052,0,64,26.8272,1.19554,-346.771,-6439.03,-45525.7,-4520.76,-131.284,18.5685,0
15294,782.5,768.78,754.23,772.71,769.56,-34.18,-876.95,536.62,-1.95,0.34,0.32,-513.85,3060,0,64,27.8102,1.49491,-349.919,-6638.49,-45861.9,-4510.42,-131.064,18.9715,0
15329,782.57,768.76,754.19,772.61,769.53,-43.95,-877.44,526.37,-1.15,0.53,-1.16,-513.48,3067,0,64,28.5726,1.6438,-353.825,-6691.35,-46359.2,-4375.42,-131.023,18.9115,0
15364,782.61,768.68,754.31,772.47,769.52,-35.16,-862.79,532.23,-0.29,2.83,0.15,-508,3074,0,64,30.537,1.92267,-359.153,-6798.44,-47113,-4245.52,-131.178,18.929,0
15399,782.22,768.59,754.2,772.21,769.31,-25.88,-862.3,544.92,-0.38,2.24,-0.04,-504.85,3081,0,64,31.7478,1.96225,-366.449,-6828.17,-48071,-4127.52,-131.181,18.6334,0
15434,782.03,768.43,754.28,772,769.19,-28.81,-870.12,534.18,1.49,0.11,-3.04,-497.64,3088,0,64,33.4048,2.53463,-371.946,-6796.01,-48819.9,-4148.91,-131.255,18.2715,0
15472,781.77,768.43,754.17,771.76,769.03,-31.74,-879.88,531.74,-0.04,-2.12,-1.69,-496.07,3095,0,64,34.0907,3.05046,-373.469,-6662.74,-49050.4,-4106.7,-131.337,17.8402,0
15507,781.52,768.34,754.16,771.44,768.87,-23.93,-875,540.53,1.11,0.69,-0.56,-490.08,3102,0,64,34.6175,2.89976,-370.356,-6477.06,-48638.4,-4216.62,-131.329,17.4887,0
15542,781.48,768.32,754.13,771.01,768.74,-39.06,-866.7,531.25,-2.9,-0.21,-1.37,-484.19,3109,0,64,34.4597,3.03915,-363.699,-6178.22,-47779.7,-4281.05,-131.372,16.9871,0
15577,781.22,768.32,754.09,770.62,768.56,-36.62,-881.35,533.2,-3.69,3.72,-1.35,-478.51,3116,0,64,33.9103,3.68332,-357.28,-5804.59,-46898.5,-4280.9,-131.266,16.2465,0
15612,781.1,768.15,754.05,770,768.32,-39.06,-868.16,538.57,-1.76,2.82,-0.4,-468.49,3123,0,64,33.1742,4.01386,-350.052,-5533.69,-46076.7,-4319.15,-131.628,15.8084,0
15647,781.17,768,753.94,769.33,768.11,-39.06,-862.3,530.27,-3.18,2.75,0.47,-460.54,3130,0,64,31.5622,4.84617,-338.784,-5149.74,-44656.4,-4312.16,-131.814,15.2005,0
15685,781.36,767.77,753.85,768.56,767.89,-27.34,-882.81,524.41,-1.24,2.59,-1.92,-450.25,3138,0,64,29.49,4.6379,-321.909,-4452.16,-42544.1,-4183.99,-132.162,13.8302,0
15721,781.56,767.64,753.81,767.98,767.75,-25.88,-871.09,529.3,-2.62,3.09,0.57,-442.4,3145,0,64,27.9175,5.28015,-305.642,-3763.22,-40573.1,-3842.33,-132.747,12.3119,0
15756,780.82,767.7,753.84,767.96,767.58,-30.76,-868.16,528.32,-1.89,0.55,-0.88,-439.28,3152,0,64,25.5869,4.43152,-284.043,-2546.66,-37762,-3380.05,-132.944,8.9631,0
15791,778.4,767.78,753.88,768.02,767.02,-34.67,-874.02,522.95,-4.92,0.71,0.78,-431.44,3159,0,64,21.8833,2.53234,-249.721,-1068.4,-33325.1,-2789.25,-133.447,4.27413,0
15826,771.97,768.02,753.94,768.27,765.55,-44.43,-891.11,526.86,-18.85,1.14,-2.73,-413.5,3166,0,64,14.5209,0.867932,-193.127,85.1981,-26018.8,-2106.59,-134.731,-0.449967,0
15861,760.92,767.29,753.86,767.13,762.3,-81.54,-957.03,488.28,-43.06,8.78,-7.62,-355.02,3173,0,64,7.47554,-0.329491,-135.32,1113.69,-18464.1,-1580.24,-136.452,-8.24931,0
15899,751.35,764.5,753.54,763.14,758.13,-40.04,-1090.33,352.05,-64.31,-6.27,-35.05,-248.97,3181,0,64,2.26916,-3.02784,-89.6405,2356.67,-12418.4,-879.496,-138.543,-26.3384,0
15934,749.5,760.22,753.08,758.08,755.22,-113.77,-1285.64,312.5,-76.98,1.31,-92.2,-145.3,3188,0,64,1.04336,-2.85687,-71.4931,3050.72,-10132.9,-525.783,-141.734,-42.6864,0
15969,748.61,756.91,752.46,754.98,753.24,-102.05,-1569.82,252.93,-67.44,42.65,-131.16,-85.42,3195,0,64,-0.476698,-6.21138,-64.5042,3606.52,-9362.76,208.455,-145.153,-55.9147,0
16005,748.42,755.54,752.05,753.68,752.42,123.05,-1024.41,166.99,-44.4,85.5,-145.61,-65,3202,0,64,-1.46038,-7.28232,-66.1572,4020.94,-9752.43,207.559,-147.414,-60.7764,0
16040,748.43,755.08,751.99,753.44,752.24,278.81,-1517.09,222.66,-80.68,153.84,-100.54,-59.29,3209,0,64,-3.51918,-7.96671,-70.5384,4322.38,-10544.3,179.038,-149.485,-61.2789,0
16078,748.18,754.71,752,753.27,752.04,-66.89,-1063.96,305.18,-16.61,154.84,-45.98,-52.7,3217,0,64,-3.32975,-8.39649,-74.2486,4198.03,-11183.2,416.735,-150.617,-56.5412,0
16113,748.18,754.43,751.93,753.14,751.92,-186.52,-873.54,298.83,-7.02,115.08,-41.03,-50.22,3224,0,64,2.1095,-7.62458,-91.9714,2549.33,-13090.7,-196.701,-142.425,-28.4728,0
16148,748.21,754.2,751.87,753.02,751.83,-287.11,-780.27,304.69,-15.11,62.34,-17.07,-48.31,3231,0,64,2.76966,-4.58029,-126.026,1914.18,-17164.3,-237.376,-136.195,-15.1914,0
16183,748.09,754.06,751.93,752.99,751.77,-280.27,-761.23,298.34,-31.24,18.12,7.44,-44.75,3238,0,64,4.64096,-0.451776,-149.554,782.569,-19808.4,-839.537,-132.45,-5.23585,0
16218,748.1,753.98,751.92,752.89,751.72,-239.26,-759.77,292.48,-37.58,9.25,32.26,-43.03,3245,0,64,7.62697,0.259947,-165.323,-160.684,-21567.6,-830.326,-130.457,0.969885,0
16253,748.07,753.98,751.94,752.86,751.71,-199.22,-765.14,300.29,-42.08,14.43,46.11,-41.99,3252,0,64,10.9952,1.63119,-185.973,-706.738,-23896.5,-1209.25,-128.494,3.7993,0
16291,748,753.81,751.91,752.87,751.65,-170.9,-807.13,302.25,-38.08,31.64,51.11,-41.33,3259,0,64,14.4263,1.51723,-213.429,-920.18,-27121.4,-1286.58,-127.074,4.3121,0
16326,747.92,753.8,751.89,752.92,751.63,-172.36,-854.98,316.89,-29.56,41.89,60.54,-41.97,3266,0,64,17.5843,1.78239,-245.4,-1064.32,-31160.1,-1495.03,-126.978,4.33772,0
16362,747.89,753.72,751.93,752.86,751.6,-162.6,-874.51,291.5,-19.97,41.69,69.32,-39.34,3273,0,64,21.1898,1.92741,-279.742,-1031.75,-35282.3,-1781.18,-126.124,3.68812,0
16397,747.89,753.67,751.96,752.83,751.59,-126.95,-921.87,327.15,-20.17,35.6,70.86,-37.83,3280,0,64,26.0058,3.07597,-318.135,-1050.18,-39926.5,-2217.99,-125.505,3.30236,0
16432,747.82,753.63,751.92,752.88,751.56,-93.26,-972.17,344.24,-13.75,22.02,76.41,-39.22,3287,0,64,32.2023,3.37605,-359.539,-501.651,-44744.6,-2265.33,-124.45,1.39599,0
16468,747.8,753.62,751.92,752.91,751.56,-48.83,-966.8,353.03,-3.11,16.84,71.16,-39.31,3295,0,64,35.9923,4.11951,-399.459,-50.4371,-49676.6,-2634.44,-124.36,0.126691,0
16506,747.79,753.69,751.85,752.92,751.56,48.83,-981.93,366.21,-11.93,23.24,62.72,-41.77,3302,0,64,35.7893,3.34182,-426.221,694.377,-53236.9,-2580.21,-124.904,-1.62822,0
16541,747.71,753.67,751.87,752.87,751.53,21.48,-923.34,338.87,-16.99,33.66,53.62,-40.1,3309,0,64,35.5381,0.235787,-448.441,1731.43,-56166.7,-2274.74,-125.249,-3.86068,0
16576,747.64,753.73,751.93,752.87,751.54,34.18,-1055.18,371.09,-19.19,38.08,48.84,-38.89,3316,0,64,36.3737,-1.96855,-467.021,2498.83,-58565.2,-1933.44,-125.402,-5.3505,0
16611,747.65,753.75,751.93,752.93,751.57,17.58,-975.59,345.21,12.46,47.68,55.07,-39.93,3323,0,64,36.1034,-0.542969,-475.257,2561.77,-59693.1,-2022.42,-125.602,-5.39027,0
16646,747.66,753.86,751.96,752.88,751.59,5.37,-874.02,258.3,7.51,44.24,49.37,-39.44,3330,0,64,35.5233,1.56169,-480.347,2484.21,-60453.8,-2194.12,-125.855,-5.17175,0
16684,747.54,753.83,751.88,752.93,751.54,106.93,-986.33,305.66,6.11,38.78,34.79,-41.3,3338,0,64,34.9481,3.10448,-484.805,2272.48,-61016.4,-2389.68,-125.858,-4.68742,0
16719,747.64,754.05,751.87,752.95,751.63,255.86,-938.96,271.48,35.47,33.75,17.89,-44.1,3345,0,64,34.698,3.23804,-484.443,2267.24,-61006.2,-2315.28,-125.931,-4.68009,0
16754,751.9,754.25,751.86,752.53,752.64,989.75,-1896,-1201.66,-38.46,138.89,-124.41,-54.44,3352,0,64,33.9232,2.226,-484.266,2714.05,-61035.7,-2129.15,-126.038,-5.60448,0
16789,754.02,754.44,751.81,752.35,753.16,-62.01,-439.94,456.54,146.9,33.32,-126.47,-61.66,3359,0,64,33.7255,2.24185,-481.885,3080.47,-60816.9,-2065.3,-126.206,-6.39255,0
16824,762.98,755.08,752.01,752.55,755.66,-313.48,-1083.98,-67.87,29.36,-51.67,-108.37,-95.5,3366,0,64,32.3749,2.64179,-479.386,3327.1,-60571.7,-2084.01,-126.353,-6.94029,0
16859,774.53,756.64,751.98,752.92,759.01,239.75,-1115.23,695.8,88.6,11.66,-82.01,-154,3373,0,64,31.4828,3.19791,-472.072,3562.52,-59703.8,-2019.2,-126.472,-7.54671,0
16897,791.52,759.16,752.22,754.22,764.28,-136.72,-1067.87,363.77,104.02,-28.53,-22.11,-245.5,3380,0,64,30.6267,3.8281,-464.735,4024.19,-58880.5,-1948.08,-126.697,-8.65922,0
16932,811.21,761.3,752.43,755.72,770.17,37.11,-849.61,526.86,63.17,-20.92,-9.78,-347.08,3387,0,64,29.7979,2.91446,-457.816,4842.51,-58111.5,-1763.19,-126.932,-10.5775,0
16967,834.1,763.72,752.69,758.02,777.13,-34.67,-889.16,522.95,50.47,-16.51,-7.05,-472.49,3394,0,64,28.7395,1.52084,-452.328,6034.25,-57713,-1576.06,-127.591,-13.3407,0
17002,852.72,765.77,752.85,759.25,782.65,-18.55,-870.12,560.55,18.94,-7.01,-1.15,-566.8,3401,0,64,28.0874,0.417345,-447.205,7260.64,-57287.1,-1295.15,-128.1,-16.2357,0
17036,864.63,767.39,752.89,760.02,786.23,-52.25,-927.73,443.85,-1.29,-4.37,1.24,-631.19,3408,0,64,28.1864,-0.847422,-443.893,8141.38,-56948.4,-1252.43,-128.293,-18.3408,0
17071,869.04,768.19,752.96,760.82,787.75,-49.32,-927.25,444.34,2.73,-4.6,-2.99,-662.76,3415,0,64,28.397,-1.75247,-442.199,8803.98,-56704.6,-1167.55,-128.233,-19.9096,0
17109,869.56,768.35,753.03,761.68,788.16,-31.74,-905.27,474.12,4.09,1.45,-0.18,-676.79,3423,0,64,28.9867,-2.93861,-437.671,9958.97,-56299.6,-978.55,-128.635,-22.7547,0
17144,867.91,768.71,753.07,762.28,787.99,-38.09,-884.28,498.05,5.43,0.6,-2.7,-681.64,3430,0,64,28.4492,-4.45466,-433.081,11354.7,-55843.8,-739.128,-128.946,-26.2187,0
17179,863.67,769.58,753.17,763.01,787.36,-24.41,-913.09,485.84,-1.39,2.1,-3.94,-682.34,3437,0,64,27.8924,-4.85055,-425.143,12388.6,-54995.8,-766.219,-129.358,-29.1401,0
17214,857.56,771.53,753.39,764.6,786.77,-44.43,-913.57,463.38,0.72,3.81,-5.53,-695.04,3444,0,64,27.4877,-5.40447,-415.155,13290.5,-53780.6,-559.594,-129.544,-32.0136,0
17250,849.51,774.96,753.59,766.67,786.18,-40.53,-909.18,486.33,5.53,5.11,-8.32,-720.45,3451,0,64,26.7382,-5.35597,-404.311,13866.8,-52532.2,-501.234,-129.93,-34.2977,0
17288,841.93,780.38,753.93,767.02,785.81,-32.71,-892.09,494.63,-6.37,7.37,-5.98,-734.7,3459,0,64,25.8859,-6.03949,-393.567,14436.5,-51265.5,-102.419,-130.259,-36.6814,0
17323,834.45,785.91,754.2,768.78,785.84,-38.57,-923.34,461.91,-6.15,4.18,-8.69,-772.39,3466,0,64,24.5447,-6.97473,-382.952,14686.3,-50092.4,96.2869,-130.806,-38.3506,0
17359,823.97,791.3,754.61,771.62,785.37,-30.76,-899.41,484.37,0.56,4.79,-8.8,-811.27,3473,0,64,23.3585,-6.4912,-368.635,14436.6,-48362,204.561,-131.192,-39.1624,0
17394,812.37,796.25,754.97,774.76,784.59,-20.02,-901.86,480.47,1.73,4.54,-8.38,-848.54,3480,0,64,22.9146,-5.4914,-354.271,13976.3,-46547.3,79.4795,-131.389,-39.4511,0
17429,800.8,800.73,755.49,778.66,783.92,-23.93,-894.53,480.47,5.11,2.8,-7.02,-889.25,3487,0,64,22.7864,-4.8775,-345.994,13398.8,-45373.3,94.4789,-131.139,-38.7256,0
17464,791,804.62,755.87,782.9,783.6,-26.37,-915.53,483.89,6.66,3.47,-5.08,-939.67,3494,0,64,21.9423,-3.68868,-342.514,12908.4,-44829.2,-90.1528,-130.883,-37.6871,0
17502,783.32,807.56,756.43,787.61,783.73,-16.11,-896.97,477.54,7.53,-2.82,-2.08,-992.23,3501,0,64,21.2679,-2.70593,-339.479,12453.7,-44509.3,-212.907,-131.111,-36.6846,0
17537,777.66,809.73,757.03,791.82,784.06,-16.11,-905.76,487.79,7.37,-2.77,-3.6,-1037.25,3508,0,64,20.9196,-1.34108,-335.654,11995.1,-44045.9,-481.36,-131.224,-35.7366,0
17572,771.83,811.6,757.61,795.57,784.15,-4.39,-914.06,486.82,1.81,-2.68,-2.56,-1072.89,3515,0,64,21.6098,0.688917,-334.097,11675.6,-43717.6,-697.125,-130.853,-34.9466,0
17607,765.97,812.91,758.23,799.51,784.16,-8.3,-911.13,468.75,-5.95,-0.69,-10.82,-1105.89,3522,0,64,22.4446,3.3786,-335.267,11301.2,-43858.7,-995.676,-130.817,-33.7081,0
17643,760.26,814.3,759.13,803.57,784.32,43.46,-895.02,494.63,-7.08,-1.69,-7.15,-1134.93,3530,0,64,23.3872,5.61588,-338.332,10815.3,-44189.9,-1362.01,-130.611,-31.9666,0
17678,755.07,816.25,760.18,807.69,784.8,-26.37,-928.22,509.28,-19.69,-2.76,-4.53,-1167.1,3537,0,64,24.4876,6.41632,-342.11,10943.2,-44685.6,-1546.4,-130.618,-31.9873,0
17715,752.25,818.11,761.82,810.98,785.79,-45.9,-941.89,512.7,-34.95,-20.55,-22.45,-1180.11,3544,0,64,24.5369,4.26375,-347.388,11860.7,-45460.2,-1397.15,-130.863,-34.1422,0
17751,750.97,819.11,763.65,812.27,786.5,-32.71,-965.33,491.21,-51.34,-24.64,-24.58,-1156.94,3551,0,64,23.6372,0.213983,-349.575,12877.3,-45732.1,-951.342,-130.822,-36.8371,0
17786,750.12,818.23,765.62,811.82,786.45,-22.46,-1008.3,491.21,-63.58,-29.1,-40.76,-1091.37,3558,0,64,23.3138,-2.8826,-347.432,13389.3,-45407.4,-614.389,-130.695,-38.5379,0
17820,749.44,814.46,767.49,810.38,785.44,1.46,-1033.69,384.77,-55.89,-41.02,-62.89,-990.78,3565,0,64,24.0795,-5.22862,-351.167,13388,-45547.1,-327.406,-129.702,-38.1245,0
17856,748.96,808.53,768.88,807.55,783.48,43.46,-1038.57,388.67,-60.35,-34.26,-87.87,-865.33,3572,0,64,26.4896,-9.50742,-361.064,13754.5,-46467,16.0465,-128.696,-38.0943,0
17893,748.65,801,769.74,802.56,780.49,95.7,-1048.83,366.21,-55.27,-34.93,-121.89,-709.19,3580,0,64,28.2913,-13.3872,-369.603,14179.8,-47288,641.049,-127.943,-38.3648,0
17928,748.21,793.48,769.47,793.97,776.28,135.74,-1095.7,303.71,-58.44,-50.33,-159.15,-527.53,3587,0,64,27.7243,-14.7652,-367.218,14077.2,-46958,693.329,-127.875,-38.3347,0
17963,747.68,784.45,766.92,782.69,770.43,177.73,-1469.73,237.79,-77.27,-67.51,-219.1,-350.93,3594,0,64,25.2909,-15.0811,-362.266,13770,-46145.1,716.078,-127.379,-38.0108,0
17998,747.12,773.9,762.67,771.77,763.86,303.71,-1989.26,295.9,-75.47,-33.8,-250.14,-209.47,3601,0,64,23.8649,-13.8802,-350.169,13162.6,-44499.2,424.507,-127.08,-37.5887,0
18033,746.74,761.58,756.71,759.48,756.13,1015.62,-1777.83,233.89,-88.73,-16.89,-250.14,-76.78,3608,0,64,23.6269,-11.4807,-341.539,12594.7,-43211.3,64.4492,-126.519,-36.8766,0
18068,746.56,756.62,752.07,754.01,752.31,-224.12,-1451.66,230.47,2.27,21.69,-250.14,-71.48,3615,0,64,23.6995,-9.11996,-336.668,12388.1,-42688.2,-246.762,-126.796,-36.7962,0
18106,746.58,755.5,751.93,753.32,751.83,-7.32,-1532.71,269.53,-84.23,101.96,-183.73,-55.95,3622,0,64,22.9136,-7.62185,-337.195,12786.6,-42857.4,-515.183,-127.1,-37.9205,0
18141,746.51,754.94,751.81,752.98,751.56,-340.82,-780.27,210.94,1.9,162.25,32.64,-49.26,3629,0,64,22.2344,-6.53636,-340.679,13019.5,-43333.4,-589.633,-127.197,-38.2164,0
18176,746.45,754.65,751.8,752.88,751.45,-420.41,-299.32,138.67,17.41,136.34,141.65,-45.42,3636,0,64,23.1189,-5.46846,-340.956,12726.2,-43357,-653.237,-127.163,-37.3249,0
18211,746.47,754.53,751.76,752.81,751.39,-296.87,-307.13,236.33,-30.92,106.11,203.1,-44.68,3643,0,64,24.6078,-4.30922,-350.145,12542.5,-44474.9,-779.19,-127.018,-35.8212,0
18247,746.43,754.4,751.75,752.82,751.35,-116.7,-595.7,479.49,-67.34,99.59,250.13,-43.83,3650,0,64,25.9458,-2.70834,-364.94,12302.2,-46345.7,-1018.15,-126.995,-33.7107,0
18284,746.29,754.41,751.75,752.76,751.3,75.2,-865.72,731.93,-65.36,119.75,250.13,-42.4,3658,0,64,26.7871,-1.38048,-380.723,12139.5,-48432,-1229.29,-127.211,-31.8856,0
18319,746.2,754.52,751.75,752.71,751.3,230.47,-977.05,928.71,-54.21,165.93,242.15,-42.28,3665,0,64,27.2597,0.634525,-383.238,11653.8,-48801.6,-1493.28,-127.34,-30.4087,0
18354,746.19,754.86,751.81,752.8,751.41,221.19,-1073.73,1076.66,-50.66,203.13,198.89,-44.84,3672,0,64,26.7357,0.936184,-372.982,11032.1,-47610.3,-1614.83,-127.648,-29.5782,0
18389,746.12,755.24,751.84,752.8,751.5,182.13,-1299.32,1137.7,-51.85,180.52,147.92,-47.12,3679,0,64,25.9947,1.40017,-364.849,10380.8,-46557.3,-1693.97,-127.607,-28.4523,0
18424,746.09,755.41,751.77,752.74,751.5,487.79,-1425.29,1083.98,-40.93,130.03,133.06,-49.08,3686,0,64,25.6623,1.80699,-360.516,9825.91,-46016.3,-1720.5,-127.64,-27.2552,0
18459,745.97,755.35,751.75,752.67,751.43,1069.82,-1217.29,919.92,-115.31,103.4,109.65,-47.72,3693,0,64,25.903,2.66189,-357.842,8907.87,-45503.6,-1830.38,-127.161,-24.8932,0
18496,746.02,755.46,751.68,752.67,751.46,1352.05,-1463.38,1063.96,-105.49,56.88,91.69,-50.35,3700,0,64,27.0735,6.18092,-364.297,7771.64,-46296.8,-2497.1,-127.085,-21.3339,0
18531,745.99,755.37,751.75,752.51,751.4,1560.55,-963.87,701.66,66.56,-16.54,30.6,-45.34,3707,0,64,28.1789,8.58665,-372.541,6602.5,-47216.5,-3004.88,-126.742,-17.723,0
18566,748.98,755.39,751.83,752.26,752.11,171.39,1215.33,651.37,165.08,-28.59,-250.14,-50.36,3714,0,64,28.2558,10.0409,-370.287,5687.42,-46769.6,-3368.41,-126.306,-15.3594,0
18601,764.48,757.52,751.74,752.19,756.48,-119.63,-533.69,976.07,92.59,69.88,-180.87,-121.74,3721,0,64,26.7699,8.22861,-356.187,5234.31,-44797.5,-3302.83,-125.769,-14.6958,0
18635,816.36,763.71,752.15,754.19,771.6,549.8,-286.62,-117.68,250.13,-13.13,-76.69,-368.55,3728,0,64,24.2214,3.71314,-339.089,5265.42,-42634.6,-2817.88,-125.732,-15.5282,0
18673,836.73,768.45,752.56,757.27,778.75,372.07,-965.33,559.57,49.87,-45.73,-70.37,-511.55,3736,0,64,22.5312,-2.38723,-328.474,5664.68,-41151.5,-2196.5,-125.281,-17.2454,0
18708,837.85,771.29,752.67,758.27,780.02,1.95,-924.32,451.66,-8.86,-7.3,-2.24,-550.3,3743,0,64,23.6929,-11.2563,-341.235,6666.74,-42454.9,-1130.56,-124.416,-19.5366,0
18743,837.63,775.19,752.87,760.76,781.61,-75.2,-904.3,515.14,2.37,-13.15,-3.87,-612.57,3750,0,64,26.3443,-11.6162,-353.432,6660.17,-43834.7,-993.858,-124.026,-18.844,0
18778,839.64,779.32,753.13,763.81,783.98,-51.27,-882.32,496.09,12.72,-2.65,-3.96,-690.91,3757,0,64,26.7448,-4.99176,-337.801,5084.94,-41798.7,-1595.53,-123.738,-15.0513,0
18813,841.23,783.27,753.48,766.29,786.07,-43.46,-893.55,502.93,4.56,-1.53,-5.58,-755.82,3764,0,64,24.6609,-1.5346,-320.756,3217.01,-39723.3,-2002.03,-123.843,-10.0284,0
18848,839.43,787.37,753.66,768.7,787.29,-48.34,-903.32,482.42,-0.63,-0.94,-6.74,-813.44,3771,0,64,23.2503,0.22354,-315.552,1588.15,-39096.3,-2161.93,-123.898,-5.03289,0
18886,833.54,791.45,753.94,770.49,787.35,-40.53,-906.25,485.35,-3.39,2.78,-4.47,-845.47,3778,0,64,24.3403,0.843845,-315.08,309.689,-38950.6,-2034.39,-123.622,-0.983124,0
18921,825.11,794.08,754.1,771.41,786.18,-26.37,-906.25,469.73,-3.94,5.63,-7.27,-847.02,3785,0,64,25.3578,1.1736,-314.758,-985.295,-38718.3,-1956.12,-123.01,3.13049,0
18956,816.83,796.04,754.19,772.2,784.81,-29.3,-900.39,483.4,-4.22,7.31,-5.78,-843.76,3792,0,64,22.9979,1.47772,-304.38,-2574.12,-37346.5,-1951.38,-122.697,8.45814,0
18991,810.73,798.29,754.26,773.39,784.17,-31.25,-896,482.91,1.23,5.27,-2.34,-856.78,3799,0,64,21.6701,3.027,-291.207,-4274.08,-35581.8,-2137.63,-122.187,14.678,0
19026,806.69,800.49,754.51,774.97,784.16,-21,-886.72,473.63,8.27,5.63,-3.76,-877.55,3806,0,64,21.0801,5.08441,-282.218,-5882.52,-34325.8,-2511.57,-121.629,20.8452,0
19061,804.44,802.38,754.67,776.54,784.51,-31.25,-899.41,498.54,8.94,0.72,-2.92,-903.97,3813,0,64,18.7252,4.52944,-267.43,-6794.95,-32390.5,-2443.23,-121.118,25.4094,0
19099,802.32,804.63,755.05,778.67,785.17,-21.48,-915.04,495.61,8.83,4.58,-6.79,-936.76,3821,0,64,18.3952,0.907411,-251.148,-6095.56,-30261.7,-1664.04,-120.494,24.2686,0
19134,799.39,806.83,755.2,780.67,785.52,-21,-902.83,490.72,8.76,2.56,-4.79,-969.91,3828,0,64,16.1375,-4.03089,-246.458,-4542.3,-29938.4,-670.723,-121.475,18.4311,0
19169,794.62,809.14,755.65,783.42,785.71,-35.64,-902.83,488.28,9.13,0.31,-6.56,-1001.5,3835,0,64,15.1542,-7.05732,-257.761,-2177.1,-31771.6,215.093,-123.26,8.4474,0
19204,786.08,812.21,756.27,787.13,785.42,-40.53,-889.65,489.75,4.82,2.43,-9.75,-1035.95,3842,0,64,18.1564,-8.08505,-257.965,-932.94,-31725.1,566.218,-122.982,3.61695,0
19239,775.4,815.71,757.11,791.51,784.93,-15.14,-882.32,505.37,1.21,-1.57,-13.48,-1071.05,3849,0,64,21.0831,-3.86966,-284.064,245.824,-35019.5,-14.5939,-123.28,-0.861968,0
19274,764.59,818.83,758.14,795.61,784.29,-30.76,-902.34,514.65,-7.26,1.13,-9.45,-1093.49,3856,0,64,21.5154,-5.28003,-317.341,2704.79,-39562.9,-193.491,-124.67,-8.51863,0
19312,755.26,821.13,759.19,798.27,783.46,14.65,-881.84,505.37,-25.27,-0.35,-12.9,-1093,3863,0,64,22.4884,-6.9163,-343.082,6156.37,-43115.8,-241.38,-125.672,-17.9442,0
19347,750.6,821.05,759.95,798.13,782.43,-68.85,-968.26,574.71,-48.57,-12.84,-16.19,-1055.49,3870,0,64,19.7986,-13.6898,-343.175,8651.17,-43576.5,716.773,-126.98,-25.209,0
19382,748.87,816.67,760.77,795.63,780.48,-1.46,-1053.71,565.43,-63.18,-28.62,-28.37,-957.12,3877,0,64,18.7246,-13.5913,-361.442,10540,-46297.3,674.825,-128.09,-29.1605,0
19417,747.85,804.11,761.74,791.1,776.2,-94.24,-1159.18,408.69,-30.19,-65.89,-59.22,-761.95,3884,0,64,18.7796,-12.8865,-373.862,12102.4,-48139.7,261.727,-128.763,-32.3712,0
19452,747.44,787.08,761.51,781.68,769.43,-91.31,-1221.68,575.68,-35.63,-64.24,-117.34,-491.09,3891,0,64,19.5369,-14.6611,-368.375,12502,-47393,582.596,-128.654,-33.9381,0
19490,746.96,770.32,758.88,768.66,761.2,-105.96,-1895.02,336.43,-29.42,-92.4,-199.83,-228.87,3899,0,64,18.983,-11.239,-376.145,12189.5,-48432.5,-115.799,-128.76,-32.4064,0
19525,746.49,761.31,755.46,760.68,755.99,141.6,-1705.08,715.33,51.18,-72.43,-247.95,-122.63,3906,0,64,18.5082,-9.86759,-366.717,11651.4,-47182.9,-538.214,-128.663,-31.7722,0
19560,746.41,757.58,752.95,754.85,752.95,92.77,-1462.4,236.33,101.06,-84.79,-241.15,-69.11,3913,0,64,17.4818,-8.9792,-359.781,11943.8,-46263.1,-713.191,-128.587,-33.1971,0
19595,746.6,756.38,752.04,753.27,752.07,-346.19,-572.27,156.25,132.81,-49.37,-186.38,-59.83,3920,0,64,17.5991,-9.69067,-366.781,13440.5,-47155.4,-674.269,-128.566,-36.6443,0
19630,746.59,755.8,752.04,753.01,751.86,-278.81,-492.19,21,29.1,34.63,-7.93,-51.24,3927,0,64,16.3122,-11.6606,-363.929,14945.8,-46897,-295.555,-128.863,-41.0677,0
19665,746.5,755.13,751.86,752.85,751.58,-231.93,-273.93,30.27,20.15,64.31,73.61,-47.64,3934,0,64,14.262,-10.6995,-369.709,16009.9,-48093.9,-394.546,-130.086,-43.304,0
19703,746.5,754.84,751.82,752.72,751.47,-204.59,-300.29,125.98,-13.55,89.52,114.39,-44.5,3942,0,64,9.30017,-11.4405,-369.888,15819.8,-48390.5,-531.865,-130.825,-42.769,0
19738,746.48,754.67,751.89,752.69,751.43,-131.84,-461.91,235.84,-27.28,85.68,135.79,-40.64,3949,0,64,5.27779,-12.3771,-358.91,14519.4,-47134.8,-555.504,-131.328,-40.4545,0
19773,746.35,754.55,751.76,752.63,751.32,-68.85,-673.83,400.88,-50.64,69.72,151.2,-41.62,3956,0,64,2.18712,-9.0394,-369.831,13113.2,-48554.3,-1371.12,-131.288,-35.4579,0
19808,746.33,754.6,751.76,752.63,751.33,159.18,-1011.23,577.64,-66.03,59.5,176.25,-42.05,3963,0,64,1.46913,-5.49016,-377.779,11384.5,-49440.1,-2213.73,-130.87,-30.1352,0
19843,746.23,754.53,751.7,752.69,751.28,312.99,-1183.59,647.95,-63.33,54.96,188.73,-43.52,3970,0,64,-2.78042,-6.11649,-370.567,10254.5,-48583.7,-2178.56,-131.107,-27.6722,0
19881,746.14,754.58,751.74,752.71,751.29,374.02,-1292.97,677.73,-47.88,33.22,161.27,-42.9,3977,0,64,-5.40819,-8.1553,-368.708,9175.46,-48552.6,-2137.83,-131.683,-24.8857,0
19915,746.13,754.63,751.76,752.67,751.3,347.17,-1282.71,626.46,-38.82,14.8,134.34,-42.13,3984,0,64,-7.92897,-6.589,-369.91,7398.77,-48860,-2711.94,-132.086,-20.0013,0
19950,746.14,754.61,751.82,752.66,751.31,374.51,-1270.51,548.83,-35.94,3.95,111.46,-40.38,3991,0,64,-9.69177,-6.09899,-365.701,6071.62,-48523.5,-2953.64,-132.686,-16.6025,0
19985,746.16,754.54,751.76,752.57,751.26,366.21,-1132.81,466.31,-42.1,-0.35,91.2,-40.1,3998,0,64,-13.1532,-4.97447,-364.734,5018.6,-48683.4,-3293.51,-133.476,-13.7596,0
20020,746.14,754.41,751.76,752.54,751.21,338.87,-1004.39,451.17,-39.42,-16.4,71.04,-38.51,4005,0,64,-16.3165,-2.10675,-360.795,3854.12,-48594.5,-3887.13,-134.687,-10.6821,0
20055,746.12,754.47,751.75,752.58,751.23,295.41,-933.59,432.13,-47.14,-20.53,48.31,-39.76,4012,0,64,-18.3197,-1.90443,-353.536,3463.06,-48049.2,-3920.79,-135.911,-9.79546,0
20093,746.09,754.4,751.77,752.48,751.19,287.6,-948.73,338.38,-39.75,-21.08,21.98,-37.22,4020,0,64,-22.0107,0.458678,-348.664,3393.91,-47970.8,-4358.86,-137.584,-9.73402,0
20128,746.12,754.44,751.79,752.47,751.2,164.06,-996.09,281.25,-6.17,-13.21,23.7,-36.94,4027,0,64,-21.8628,2.80673,-343.294,3072.44,-47244.4,-4639.17,-137.621,-8.9497,0
20163,746.15,754.55,751.71,752.51,751.23,-37.6,-793.46,250.49,-8.44,-4.04,13.41,-40.47,4034,0,64,-21.9126,3.26641,-335.327,3103.97,-46152.8,-4818.26,-137.636,-9.25677,0
20198,746.18,754.61,751.7,752.46,751.24,-33.2,-886.72,257.81,-16.33,-4.26,19.63,-40.51,4041,0,64,-22.0054,0.100503,-329.868,3456.4,-45446.5,-4379.94,-137.772,-10.4784,0
20233,746.83,754.52,751.75,752.26,751.34,-1507.81,348.63,388.18,250.13,-87.72,-85.18,-37.87,4048,0,64,-21.4782,-0.393469,-326.664,3110.98,-44730.9,-4328.03,-136.932,-9.52418,0
20270,751.95,755.1,751.75,752.2,752.75,-31.74,-1176.27,624.51,60.6,-87.6,-115.83,-59.18,4055,0,64,-18.675,2.96805,-337.886,1589.58,-45085.7,-4610.46,-133.435,-4.7046,0
20305,761.3,756.5,751.78,753.46,755.76,295.9,-1771.48,781.74,124.39,1.09,-153.08,-120.3,4062,0,64,-17.8066,0.557135,-342.698,1725.39,-45052.6,-3834.76,-131.465,-5.03472,0
20341,779.03,760.78,752.36,755.12,761.82,400.39,-723.63,1003.42,89.92,1.55,-29.01,-225.47,4069,0,64,-17.7645,1.33313,-351.673,2061.51,-46003.2,-3995.15,-130.812,-5.86194,0
20376,782.77,761.8,752.6,756.87,763.51,-14.16,-801.27,638.67,9.67,3.45,-3.82,-266.45,4076,0,64,-17.4952,-2.17119,-359.04,2797.2,-46663.9,-3639.66,-129.969,-7.79064,0
20411,779.8,763.28,753.14,759.69,763.98,-57.13,-890.62,454.59,14.26,-3.91,-5.15,-296.12,4083,0,64,-16.0479,-3.13487,-370.903,3049.65,-47620.9,-3544.18,-128.392,-8.22219,0
20446,779.02,765.36,753.96,763.64,765.5,-37.11,-887.7,496.58,22.57,-8.22,-3.88,-347.86,4090,0,64,-15.5866,-5.874,-383.204,3698.12,-48956.7,-3080.45,-127.756,-9.65046,0
20484,784.64,768.59,755.07,768.27,769.14,-33.2,-846.68,549.32,33.31,-7.32,-6.01,-433.35,4098,0,64,-15.6533,-7.58316,-392.387,4318.16,-50045,-2854.72,-127.54,-11.0049,0
20519,796.08,772.41,755.64,771.68,773.95,-21.48,-846.19,559.57,24.81,-0.63,-2.27,-539.45,4105,0,64,-14.7321,-7.65885,-399.203,4500.81,-50478.2,-2473.57,-126.447,-11.2745,0
20554,809.04,776.56,755.99,774.6,779.05,-37.6,-864.26,522.95,19.37,-3.49,-4.47,-651.32,4112,0,64,-13.1054,-7.1628,-400.246,3788.47,-50302.2,-2139.02,-125.678,-9.46522,0
20589,819.2,780.02,756.25,776.01,782.87,-34.67,-856.45,562.5,9.76,-0.89,-6.95,-728.17,4119,0,64,-9.40944,-7.05093,-396.755,4057.15,-49529.5,-1970.78,-124.837,-10.226,0
20624,824.66,781.95,756.01,775.75,784.6,-37.6,-860.84,537.11,-1.53,0.05,-0.83,-764.53,4126,0,64,-6.24111,-8.24983,-390.218,3985.82,-48605.4,-1632.4,-124.56,-10.2138,0
20660,826.26,782.13,755.78,774.63,784.7,-24.41,-876.95,536.62,-5.75,-0.43,-1.15,-760.79,4133,0,64,-4.3382,-2.70556,-384.829,2120.89,-48089.5,-2707.17,-124.964,-5.51106,0
20698,826.81,780.96,755.53,773.03,784.08,-28.81,-866.21,537.11,-3.9,-0.74,2.31,-735.9,4141,0,64,-0.298508,-3.36228,-377.685,1944.46,-47202.3,-3033.51,-124.978,-5.14769,0
20733,827.53,779.69,755.13,771.47,783.45,-29.3,-880.86,539.06,-4.65,0.68,-1.79,-715.3,4148,0,64,3.57489,-0.57139,-380.523,793.513,-47686.9,-4072.41,-125.319,-2.08556,0
20768,831.01,778.22,754.78,769.52,783.38,-33.69,-875.98,536.62,-1.71,2.47,1.43,-695.5,4155,0,64,7.30329,3.28919,-388.939,268.93,-48949.8,-5118.15,-125.855,-0.691303,0
20803,837.56,776.82,754.35,767.47,784.05,-37.11,-874.51,543.95,-0.88,1.68,0.6,-687.23,4162,0,64,11.1985,2.95397,-387.221,799.896,-48726.9,-5534.52,-125.837,-2.06585,0
20838,846.32,775.75,754.17,766.22,785.62,-25.88,-878.42,548.83,0.89,-0.39,-0.64,-694.72,4169,0,64,13.8749,1.66977,-381.84,1338.99,-48065.8,-5313.14,-125.88,-3.50657,0
20873,853.47,775.3,754.08,765.73,787.15,-37.11,-886.23,537.6,-0.31,-0.02,-1.62,-710.67,4176,0,64,17.3576,4.388,-381.967,1308.28,-48125.8,-5707.9,-125.995,-3.42501,0
20911,858.06,774.93,753.82,765.2,788,-46.39,-871.09,533.2,-0.21,4.79,-2.89,-722.1,4183,0,64,21.2671,5.26575,-374.622,1281.11,-47055.8,-5781.42,-125.609,-3.41971,0
20946,859.58,774.69,753.95,764.91,788.28,-35.16,-864.75,548.34,-2.44,2.94,-0.86,-718.01,4190,0,64,24.2851,5.80701,-362.948,1441.34,-45396.8,-5522.75,-125.078,-3.97133,0
20982,859.05,774.42,753.87,764.71,788.01,-38.57,-871.09,539.55,-4.24,1.43,-2.58,-713.04,4197,0,64,25.06,5.40949,-343.155,1404.63,-42992.8,-5057.96,-125.286,-4.0934,0
21017,857.42,774.32,753.86,764.75,787.59,-28.81,-877.93,527.34,-1.43,0.78,-0.21,-707.51,4204,0,64,26.0454,5.16199,-320.211,808.659,-39971.2,-4543.93,-124.826,-2.52436,0
21052,856.01,773.95,753.84,764.41,787.05,-22.46,-877.44,543.46,-1.63,2.04,-0.63,-694.99,4211,0,64,27.1023,2.80021,-287.38,224.512,-35521.8,-3869.87,-123.604,-0.778943,0
21090,854.72,773.29,753.8,763.57,786.34,-26.86,-885.25,521,-6.67,2.99,-0.88,-673.99,4219,0,64,28.379,-0.634071,-260.436,-440.676,-31587,-3158,-121.285,1.69224,0
21125,851.8,772.03,753.57,762.44,784.96,-52.25,-880.37,546.39,-7.6,2.06,-1.7,-643.03,4226,0,64,29.1388,-5.51123,-251.678,-175.857,-30358.1,-2263.68,-120.623,0.698835,0
21161,846.21,770.44,753.4,761.03,782.77,-37.11,-864.26,543.95,-7.99,1.3,-1.06,-594.37,4233,0,64,28.7851,-6.7567,-261.497,331.95,-31767.2,-1896.3,-121.483,-1.2692,0
21196,837.35,768.47,753.16,759.73,779.68,-37.6,-879.88,528.32,-11.32,1.31,2.51,-535.14,4240,0,64,26.6771,-6.16985,-276.099,171.742,-33858.6,-1885.08,-122.632,-0.622694,0
21231,825.84,766.32,753,758.44,775.9,-32.23,-885.25,520.51,-17.15,-1.26,4.34,-463.44,4247,0,64,22.8489,-2.84907,-293.473,207.778,-36716.2,-2245.64,-125.109,-0.707698,0
21266,808.62,763.16,752.69,756.8,770.32,-62.01,-893.07,514.16,-33.94,3.38,4.93,-362.59,4254,0,64,22.2673,-2.32812,-290.903,145.823,-36426.7,-2214.43,-125.219,-0.500909,0
21304,779.52,759.73,752.26,755.08,761.65,-86.91,-930.18,435.55,-62.12,2.05,7,-220.61,4262,0,64,21.5161,-2.14241,-269.281,-412.656,-33455.6,-2196.29,-124.24,1.53244,0
21339,756.97,757.29,752.1,753.97,755.08,-174.32,-1099.61,349.61,-85.86,-7.97,-3.27,-111.44,4269,0,64,21.8742,-7.63993,-276.642,37.5174,-34154.1,-1538.59,-123.459,-0.134913,0
21374,750.51,755.78,751.93,753.31,752.89,96.19,-1233.89,566.89,-56.76,20.26,-42.35,-71.56,4276,0,64,24.2216,-16.0449,-298.326,258.363,-36559.8,-400.004,-122.55,-0.866647,0
21409,749.78,755.18,751.85,752.7,752.38,-106.45,-1007.32,274.9,7.24,2.92,-63.6,-57.42,4283,0,64,28.0116,-8.43686,-318.451,-1515.94,-38741.6,-1634.52,-121.657,4.75898,0
21445,749.48,754.98,751.83,752.55,752.21,-155.27,-778.32,224.61,-59.45,-33.82,-21.53,-53.05,4290,0,64,26.8519,4.13759,-311.533,-4995.8,-37909.8,-3689.34,-121.688,16.0386,0
21480,749.34,755.08,751.82,752.49,752.18,-151.86,-801.76,325.68,-43.22,-44.98,27.57,-52.56,4297,0,64,25.7781,8.34781,-296.281,-6549.35,-35844.7,-4500.31,-120.982,22.1057,0
21518,749.26,755.11,751.85,752.42,752.16,-58.59,-902.83,334.96,-12.61,-22.99,78.6,-50.9,4305,0,64,26.9649,8.00267,-298.49,-7007.84,-35975.6,-4411.2,-120.525,23.4773,0
21553,748.92,755.24,751.85,752.42,752.11,21.48,-809.08,279.3,10.36,-12.11,96.43,-50.68,4312,0,64,28.0601,5.4917,-312.728,-6919.01,-37763.7,-4126.29,-120.756,22.1255,0
21587,751.03,756.29,751.82,753.28,753.1,429.69,-211.91,1337.4,217.35,-35.23,-92.52,-79.91,4318,0,64,29.028,1.38572,-323.112,-6329.27,-39144,-3453.67,-121.147,19.5885,0
21622,760.57,758.31,752.13,755.26,756.57,-229,-1000.49,871.58,80.56,51.25,2.18,-150.01,4325,0,64,28.7554,0.0955483,-325.717,-6385.81,-39505.5,-3263.23,-121.288,19.6055,0
21657,765.01,760.69,752.33,756.53,758.64,-32.71,-905.76,537.6,12.53,1.47,-10.69,-198.21,4332,0,64,28.2387,2.70494,-320.805,-7013.61,-38915.6,-3736.13,-121.306,21.8626,0
21695,762.78,762.77,752.44,757.4,758.84,-44.43,-886.23,508.3,-3.13,-0.55,-11.31,-217.31,4340,0,64,27.8693,3.00118,-313.531,-7107.24,-37875.6,-3777.04,-120.804,22.6684,0
21730,761.68,765.28,752.56,758.38,759.47,-45.9,-927.25,445.8,5,2.16,-8.71,-245.01,4347,0,64,27.832,3.31969,-316.407,-7109.63,-38220.8,-3776.96,-120.796,22.47,0
21764,763.48,767.39,752.83,759.84,760.88,-61.52,-930.18,452.64,18.89,-2.52,-4.27,-283.01,4354,0,64,28.3096,1.01909,-320.302,-6454.49,-38855.5,-3375.17,-121.309,20.1513,0
21799,767.78,768.9,753.01,761.41,762.78,-33.69,-892.09,504.39,21.31,-1.5,-1.31,-328.5,4361,0,64,29.0078,-0.848828,-324.042,-5908.12,-39279.3,-3121.46,-121.217,18.2327,0
21834,771.37,770.04,753.12,762.55,764.27,-59.57,-894.53,512.21,10.98,-2.37,-0.1,-363.91,4368,0,64,29.2215,-0.333395,-325.604,-5826.35,-39539.7,-3209.57,-121.435,17.894,0
21869,772.19,771.54,753.33,763.66,765.18,-45.41,-891.11,504.88,5.87,0.24,-0.76,-389.94,4375,0,64,28.2458,-0.0149665,-324.933,-5675.53,-39539.1,-3221.8,-121.684,17.4667,0
21906,772.71,773.42,753.49,765.32,766.23,-42.97,-895.02,495.12,7.46,-2.11,-2.55,-427.09,4382,0,64,28.2703,0.321481,-323.173,-5313.38,-39359.3,-3156.82,-121.79,16.4413,0
21941,774.61,775.12,753.69,766.96,767.59,-35.64,-893.55,498.54,12.4,-2.34,-0.81,-466.59,4389,0,64,27.9318,-0.175993,-318.387,-4877.29,-38812.1,-2974.1,-121.902,15.3185,0
21977,777.06,776.36,753.95,768.22,768.9,-24.9,-888.18,532.71,9.22,-1.82,-1.34,-496.81,4396,0,64,27.718,-1.92704,-316.499,-3858.98,-38729.5,-2686.74,-122.369,12.1929,0
22012,778.73,776.81,753.95,768.76,769.56,-25.88,-872.07,526.86,3.79,-2.1,-0.44,-514.23,4403,0,64,27.8523,-2.07944,-321.633,-2908.85,-39601.3,-2377.42,-123.126,9.04415,0
22047,780.33,776.8,753.94,769.08,770.04,-37.11,-885.25,519.04,5.37,-0.43,-2.15,-524.57,4410,0,64,27.7139,-1.18007,-324.495,-2584.51,-40016.8,-2483.16,-123.32,7.96472,0
22082,781.2,776.61,754.04,768.98,770.21,-36.62,-884.77,537.11,2.06,-1.17,1.05,-522.15,4417,0,64,28.0525,-1.53971,-323.721,-2075.96,-39954.8,-2339.42,-123.424,6.4127,0
22119,780.96,775.97,753.89,768.36,769.8,-27.34,-880.86,521.48,-1.59,4.08,0.81,-510.89,4425,0,64,28.3646,-0.883642,-324.233,-1801.09,-40031.9,-2240.42,-123.466,5.55493,0
22155,780.61,775.33,753.78,767.74,769.37,-29.79,-885.25,530.76,-3.99,1.33,-1.48,-498.04,4432,0,64,28.1375,-1.55881,-325.579,-1752.3,-40225,-2190.38,-123.549,5.38228,0
22190,780.25,774.74,753.71,767.27,768.99,-29.3,-867.68,531.25,-3.73,0.69,1.1,-486.96,4439,0,64,28.1877,-2.83333,-333.779,-1315.05,-41272.1,-2014.99,-123.651,3.93997,0
22224,780.4,774.12,753.68,766.74,768.73,-24.9,-891.11,528.32,-2.76,-1.05,1.33,-475.23,4446,0,64,28.6354,-3.66588,-339.867,-1064.27,-42083.4,-1997.26,-123.823,3.13147,0
22260,780.66,773.51,753.59,766.21,768.49,-20.51,-886.72,526.86,-1.77,-1.49,2.51,-465.88,4453,0,64,28.9752,-3.86603,-341.444,-1152.96,-42197.7,-2057.98,-123.586,3.37674,0
22295,781.1,772.99,753.63,765.78,768.38,-32.23,-862.79,522.46,-2.02,2.31,-1.24,-455.79,4460,0,64,29.4441,-4.41631,-346.255,-1297.44,-42651.5,-2003.81,-123.179,3.74705,0
22332,781.31,772.36,753.5,765.29,768.12,-36.62,-878.91,517.09,-0.68,-0.75,2.36,-447.56,4467,0,64,28.9556,-4.71735,-344.405,-1663.95,-42407.8,-2104.53,-123.134,4.83138,0
22367,782.02,771.85,753.5,764.89,768.06,-47.85,-890.14,515.14,-0.37,1.28,-2.15,-440.06,4474,0,64,28.9267,-4.03348,-348.503,-1941.09,-42860.5,-2138.11,-122.985,5.56975,0
22402,782.58,771.67,753.42,764.86,768.13,-27.34,-886.72,527.34,-0.6,1.68,-0.94,-441.94,4481,0,64,29.3677,-2.93977,-352.638,-2301.11,-43332.2,-2314.76,-122.88,6.5253,0
22437,782.47,771.65,753.42,764.84,768.09,-22.46,-875.98,524.9,-0.6,-1.24,-1.67,-440.99,4488,0,64,29.792,-1.48534,-362.524,-2475.92,-44685.7,-2527.31,-123.263,6.82968,0
22472,782.46,771.61,753.44,764.95,768.11,-38.09,-892.58,517.58,0.78,-1.22,1.67,-441.76,4495,0,64,29.5916,-0.367888,-359.746,-2715.59,-44209.9,-2812.99,-122.892,7.54874,0
22510,781.94,772,753.43,765.31,768.17,-41.02,-873.05,512.7,1.36,2.53,-1.79,-448.76,4503,0,64,29.3674,-0.415103,-353.062,-2838.78,-43386.7,-2888.2,-122.887,8.04046,0
22545,781.65,772.38,753.42,765.72,768.29,-33.2,-884.77,516.6,-0.23,2.36,-2.05,-456.97,4510,0,64,28.8145,-1.29059,-350.793,-2544.01,-43023.8,-2819.83,-122.647,7.25205,0
22580,781.19,772.93,753.6,766.38,768.52,-33.69,-879.88,522.95,1.51,1.22,-3.02,-465.04,4517,0,64,28.538,-2.06087,-346.349,-2421.24,-42439.1,-2556.59,-122.533,6.99078,0
22615,780.44,773.49,753.65,767.07,768.66,-43.46,-880.86,528.81,2.34,-1.76,-0.94,-476,4524,0,64,28.8074,-2.35346,-340.074,-2630.92,-41531.3,-2489.92,-122.124,7.73635,0
22650,779.01,773.85,753.7,767.53,768.52,-49.8,-883.3,528.32,-0.55,1.2,0.52,-479.61,4531,0,64,28.7018,-1.35024,-336.834,-2973.62,-41086,-2585.77,-121.977,8.82819,0
22685,777.1,774.08,753.84,768.08,768.28,-37.11,-873.54,527.34,-1.27,-0.83,1.67,-479.37,4538,0,64,28.7094,0.233991,-338.548,-3073.4,-41259.6,-2643.27,-121.872,9.07817,0
22722,775.29,774.26,753.82,768.5,767.96,-30.76,-872.56,523.93,-0.76,0.34,-3.33,-481.32,4545,0,64,29.0139,0.539564,-341.162,-3062.31,-41733.3,-2590.4,-122.327,8.97606,0
22758,774.02,774.5,753.93,768.84,767.82,-40.04,-879.88,502.44,-0.69,0.85,0.02,-481.18,4553,0,64,29.2139,0.499937,-347.506,-2853.18,-42575.6,-2445.19,-122.517,8.21064,0
22793,773.02,774.66,753.91,769.07,767.66,-27.34,-866.7,528.81,-0.27,1.41,-0.21,-482.83,4560,0,64,29.3488,0.0707352,-352.788,-2574.55,-43408.8,-2419.45,-123.045,7.29778,0
22827,771.96,774.75,754,769.3,767.5,-30.76,-879.88,517.58,-1.34,0.82,-1.52,-481.28,4566,0,64,29.1035,-0.089569,-352.82,-2500.67,-43383.7,-2375.36,-122.963,7.08771,0
22863,770.9,774.89,754,769.53,767.33,-22.95,-881.84,532.23,-0.77,1.89,-1.66,-481.97,4574,0,64,28.5316,-0.361985,-350.159,-2544.08,-43156.6,-2417.15,-123.249,7.26547,0
22898,769.95,774.9,754.04,769.56,767.11,-31.25,-878.42,517.58,-1.74,2.31,-0.55,-478.27,4581,0,64,28.1148,-0.44862,-349.469,-2589.85,-43045.2,-2342.07,-123.173,7.41084,0
22936,768.99,774.83,754.04,769.64,766.87,-31.74,-883.79,522.46,-2.35,-0.73,-2.16,-475.49,4588,0,64,28.1687,-0.794142,-347.981,-2546.48,-42805.3,-2247.24,-123.01,7.31783,0
22971,768.76,774.73,754.07,769.63,766.8,-30.76,-873.05,525.88,-1.68,0.89,-0.05,-473.25,4595,0,64,28.3209,-0.641212,-346.398,-2593.94,-42646.7,-2262.84,-123.115,7.48828,0
23006,769.07,774.68,753.99,769.52,766.81,-27.34,-863.77,508.3,0.39,-1.33,-1.79,-474.04,4602,0,64,28.1275,0.0254562,-346.647,-2691.38,-42650.8,-2333.38,-123.038,7.76404,0
23041,770.14,774.69,753.97,769.37,767.05,-26.86,-872.07,528.81,3.48,-1.02,0.83,-476.26,4609,0,64,28.2873,0.292306,-347.729,-2727.77,-42841.7,-2401.8,-123.204,7.84454,0
23076,771.63,774.65,753.93,769.01,767.31,-33.2,-879.39,535.16,2.99,1.04,-0.23,-476.62,4616,0,64,28.3184,0.535435,-347.916,-2604.81,-42882.3,-2431.75,-123.255,7.4869,0
23111,772.47,774.51,753.9,768.67,767.39,-31.74,-894.53,514.16,-0.08,-1.28,0.92,-474.02,4623,0,64,28.5021,0.388725,-347.591,-2427.56,-42922.7,-2304.03,-123.486,6.98395,0
23149,772.66,774.52,753.83,768.42,767.36,-29.79,-886.23,520.51,-0.38,-0.88,-1.08,-472.99,4631,0,64,28.249,-0.662838,-347.819,-2134.64,-42980.1,-2244.88,-123.571,6.13717,0
23184,773.5,774.49,753.88,768.25,767.53,-35.64,-884.28,506.35,0.89,-0.12,1.36,-471.86,4638,0,64,28.1637,-1.13818,-347.8,-1894.75,-43036.7,-2321.06,-123.74,5.44785,0
23218,774.25,774.51,753.85,768.1,767.68,-31.74,-869.14,519.53,0.45,-0.31,0.47,-473,4645,0,64,27.7546,-1.25213,-347.607,-1646.69,-42984.6,-2072.09,-123.659,4.73723,0
23253,773.72,774.31,753.8,767.91,767.44,-51.76,-885.25,528.81,-0.34,-0.98,0.08,-468.09,4652,0,64,27.7629,-0.92156,-346.953,-1405.47,-43013.7,-2145.77,-123.975,4.05091,0
23288,772.9,774.01,753.76,767.71,767.1,-30.76,-883.79,519.53,-1.53,-2.23,-0.75,-460.99,4659,0,64,27.928,-1.0041,-346.493,-1086.52,-43008.6,-2071.35,-124.125,3.13578,0
23326,772.45,773.63,753.75,767.57,766.85,-41.02,-879.39,520.51,-0.42,0.85,-1.03,-454.49,4666,0,64,27.9249,-0.968469,-346.73,-976.003,-43003.3,-1983.53,-124.025,2.81489,0
23361,772.17,773.53,753.8,767.5,766.75,-41.5,-886.23,521,-1.47,0.15,0.78,-450.65,4673,0,64,27.8758,-1.55375,-346.506,-764.267,-43094.5,-1951.5,-124.369,2.20564,0
23396,772.51,773.32,753.71,767.32,766.71,-34.67,-874.02,514.16,0.32,-0.91,-2.1,-449.65,4680,0,64,27.5977,-1.20897,-346.519,-647.59,-43050.5,-1975.83,-124.237,1.8689,0
23430,773.1,773.23,753.68,767.05,766.76,-26.37,-878.91,515.14,0.95,0.56,-2.67,-447.7,4687,0,64,27.5979,-1.28274,-346.242,-563.889,-43056.1,-2062.83,-124.353,1.62859,0
23465,773.56,773.1,753.71,766.58,766.74,-40.04,-889.65,528.32,-2.95,1.34,-1.83,-440.48,4694,0,64,27.7839,-1.2606,-345.341,-517.705,-42983.1,-2008.62,-124.466,1.49911,0
23500,773.74,772.97,753.71,766.17,766.65,-27.83,-879.88,528.32,-1.37,-0.48,-0.08,-434.06,4701,0,64,27.569,-1.38262,-344.645,-532.825,-42854.8,-2008.7,-124.345,1.54601,0
23538,774.3,772.9,753.67,765.89,766.69,-41.99,-885.25,513.18,1.16,2.18,1.66,-432.3,4709,0,64,27.511,-0.725318,-343.198,-642.947,-42686.8,-2004.05,-124.379,1.8734,0
23573,775.27,772.91,753.56,765.64,766.85,-35.16,-873.05,527.34,1.05,1.71,-0.17,-434.71,4716,0,64,27.644,-0.47028,-341.712,-700.728,-42478.5,-1994.49,-124.311,2.05066,0
23608,776.67,772.99,753.55,765.34,767.14,-33.2,-882.32,533.2,-1.4,1.04,-2.05,-436.12,4723,0,64,27.2225,-0.183232,-337.342,-903.342,-41862.3,-1993.43,-124.094,2.67792,0
23643,777.95,773.03,753.54,764.98,767.38,-24.9,-887.7,507.32,1.11,0.44,-1.15,-435.66,4730,0,64,27.0185,0.235757,-333.19,-1109,-41296.9,-2122.15,-123.944,3.32842,0
23678,778.95,772.98,753.54,764.7,767.54,-42.48,-889.65,518.07,-0.29,2.39,-4.26,-434.66,4737,0,64,26.943,0.53407,-332.529,-1112.96,-41268.1,-2010.28,-124.104,3.34697,0
23713,779.67,772.92,753.45,764.41,767.61,-30.27,-885.25,517.09,-2.02,0.98,-0.3,-434.58,4744,0,64,27.0654,0.886339,-334.786,-1074.88,-41557.5,-2081.17,-124.131,3.21078,0
23751,780.6,773.07,753.44,764.34,767.86,-34.67,-882.81,512.21,-1.18,2.95,0.23,-438.31,4751,0,64,26.9959,1.03132,-336.072,-882.706,-41842.9,-2079.39,-124.506,2.62656,0
23786,781.45,773.08,753.47,764.33,768.08,-26.86,-888.18,514.16,1.4,-0.14,-2.24,-440.2,4758,0,64,27.0947,0.288541,-337.9,-419.292,-42103.2,-2073.45,-124.602,1.24092,0
23821,782.49,773.25,753.48,764.44,768.42,-45.41,-885.25,515.62,1.36,1.64,-1.25,-446.59,4765,0,64,26.3985,-0.829815,-341.302,330.031,-42645.4,-2044.42,-124.949,-0.966941,0
23857,783.36,773.38,753.4,764.51,768.66,-36.62,-886.23,516.6,1.85,0.82,-1.66,-453.55,4772,0,64,26.9283,-2.49854,-343.192,1249.05,-42906.1,-1759.94,-125.021,-3.63946,0
23892,784.06,773.4,753.46,764.67,768.9,-30.76,-876.46,503.42,-0.63,-0.26,-1.34,-457.01,4779,0,64,27.8103,-3.76022,-348.431,1899.02,-43533.5,-1820.97,-124.942,-5.45009,0
23927,784.34,773.58,753.5,764.8,769.06,-26.37,-878.42,521.48,1.08,-0.59,0.07,-460.37,4786,0,64,28.1862,-3.97913,-358.191,2501.23,-44775.3,-1847.97,-125.004,-6.98295,0
23965,784.88,773.65,753.57,764.9,769.25,-40.53,-887.7,523.93,1.38,-4.69,-1.1,-462.62,4794,0,64,28.0197,-3.87898,-360.316,2842.22,-45049.1,-1923.94,-125.027,-7.88813,0
24001,785.5,773.67,753.55,765.16,769.47,-17.58,-875.49,529.3,0.8,1.13,-0.25,-469.29,4801,0,64,27.8437,-3.11172,-361.665,2883.83,-45277.6,-2073.09,-125.192,-7.97376,0
24036,786.48,773.73,753.6,765.35,769.79,-30.27,-877.93,527.34,0.7,-0.76,-1.88,-474.59,4808,0,64,27.4495,-3.29049,-361.073,2894.63,-45066.1,-1905.23,-124.812,-8.01668,0
24071,787.21,773.75,753.63,765.37,769.99,-17.09,-871.09,516.11,-1.22,-1.29,-2.4,-476.9,4815,0,64,28.0647,-3.00865,-362.86,2872.01,-45145.9,-1921.13,-124.417,-7.91493,0
24106,787.66,773.64,753.59,765.22,770.03,-36.62,-882.32,521,0.79,-1.82,-0.18,-476.22,4822,0,64,27.5764,-2.00074,-358.01,2262.31,-44364.2,-1915.57,-123.919,-6.3188,0
24141,787.75,773.45,753.54,764.88,769.91,-23.44,-881.35,517.09,0.39,2.46,-1.02,-471.25,4829,0,64,26.453,-0.988626,-349.92,1301.32,-43246.7,-1732.34,-123.59,-3.71864,0
24179,787.55,773.07,753.44,764.56,769.65,-37.6,-891.11,527.83,-3.04,1.39,-0.06,-465.29,4837,0,64,27.9469,-0.998964,-346.143,45.3497,-42371.5,-1725.52,-122.41,-0.130718,0
24214,787.43,772.72,753.51,764.3,769.49,-39.06,-889.16,505.37,-1.86,1.34,0.5,-456.63,4844,0,64,27.9317,-0.134443,-333.414,-1782.29,-40251.9,-1861.86,-120.726,5.34656,0
24249,787.07,772.27,753.45,763.96,769.19,-43.95,-879.39,513.67,-0.52,1.56,-0.86,-448.37,4851,0,64,25.7759,-0.493269,-318.829,-3018.83,-38341.6,-1895.1,-120.258,9.46879,0
24284,786.49,771.5,753.45,763.28,768.68,-28.81,-881.35,517.09,-2.35,0.73,2.53,-429.96,4858,0,64,25.3846,-5.03,-309.363,-2546.24,-36973.5,-1256.09,-119.515,8.23054,0
24319,785.88,770.63,753.38,762.55,768.11,-40.53,-892.58,516.11,-3.4,0.69,0.59,-411.9,4865,0,64,23.1574,-6.10361,-297.116,-2575.89,-35461.2,-937.347,-119.351,8.66962,0
24357,785.16,769.36,753.19,761.39,767.28,-24.9,-888.67,531.74,-4.02,0.18,2.11,-386.93,4872,0,64,23.016,-6.16876,-303.825,-1730.54,-36412.7,-545.561,-119.848,5.69628,0
24392,784.12,767.7,753.01,759.8,766.16,-42.48,-892.58,531.74,-10.15,0.47,4.47,-351.13,4879,0,64,22.067,-13.8764,-289.435,108.341,-34731.2,477.936,-119.997,-0.375349,0
24427,781.29,765.27,752.76,757.54,764.22,-38.09,-892.09,499.02,-21.72,1.55,5.83,-294.92,4886,0,64,24.6209,-9.23371,-298.257,505.308,-35645.8,-173.729,-119.514,-1.69446,0
24463,775.31,762.31,752.5,755.42,761.39,-44.92,-897.46,483.89,-31.78,1.54,4.23,-225.92,4894,0,64,23.4365,-7.9099,-315.124,1691.51,-38017.3,-799.338,-120.642,-5.36758,0
24498,769.42,759.93,752.22,753.78,758.84,-21.48,-901.86,475.1,-37.12,-0.56,10.24,-169.53,4901,0,64,23.158,-6.07613,-332.686,3577.58,-40611.5,-1299.86,-122.071,-10.751,0
24533,765.77,758.28,752.15,752.93,757.28,-23.93,-915.04,478.52,-30.5,-1.46,8.28,-132.89,4908,0,64,21.2877,-4.14301,-371.68,5423.43,-46062.7,-1675.38,-123.931,-14.5912,0
24571,763.72,757.47,752.05,752.72,756.49,32.23,-963.38,496.09,-35.15,24.82,24.82,-118.78,4915,0,64,19.338,-3.2283,-375.305,5272.7,-46711.3,-1608.77,-124.462,-14.0485,0
24606,762.68,757.09,751.97,752.66,756.1,-91.8,-965.82,468.26,-5.33,29.63,16.18,-113.31,4922,0,64,18.0446,-5.96912,-361.101,5285.6,-44940.2,-1056.9,-124.454,-14.6375,0
24641,762.91,756.92,751.99,752.65,756.12,-156.74,-874.02,387.21,13.69,31.13,2.54,-112.07,4929,0,64,15.8755,-4.78313,-376.866,5951.97,-47297.5,-1193.63,-125.502,-15.7933,0
24676,763.11,756.66,751.98,752.72,756.12,-113.77,-837.4,441.41,13.25,35.18,-24.97,-112,4936,0,64,15.5928,-3.89707,-362.483,5254,-45183.9,-1428.62,-124.651,-14.4944,0
24711,763.27,756.6,752.03,753.09,756.25,-226.56,-812.5,374.51,19.98,32.57,-54.82,-116.4,4943,0,64,14.6347,-3.63105,-367.129,4881.5,-45693.9,-1813.67,-124.463,-13.2955,0
24747,764.35,757.22,752.07,754.36,757,362.3,-1637.7,509.28,-1.13,17.31,-32.89,-142.65,4950,0,64,12.1058,-0.835257,-387.893,4829.73,-48354.1,-2553.05,-124.659,-12.4514,0
24785,766.99,758.03,752.2,755.27,758.12,-187.5,-1028.32,329.1,13.08,7.34,-8.76,-168.38,4958,0,64,9.78489,-1.01049,-392.259,4270.33,-48551.6,-2589.08,-123.774,-10.8865,0
24820,768.24,758.88,752.26,756.13,758.88,-86.43,-922.85,389.16,6.33,6.84,-3.93,-190.46,4965,0,64,5.50713,-3.60198,-404.885,4909.82,-50346.1,-2509.95,-124.347,-12.1263,0
24855,769.17,759.85,752.4,756.95,759.59,-61.04,-926.27,436.52,4.95,1.63,-4.38,-210.18,4972,0,64,2.89545,-8.01295,-410.87,4577.81,-50863.2,-2166.83,-123.794,-11.1414,0
24890,771.29,761.06,752.57,757.8,760.68,-45.41,-908.69,485.84,8.21,1.87,-3.65,-235.53,4979,0,64,2.39464,-6.41022,-402.183,2474.54,-49166.3,-2427.58,-122.249,-6.15243,0
24925,774.5,762.43,752.62,758.61,762.04,-40.04,-894.04,472.17,9.78,1.08,-6.09,-268.18,4986,0,64,0.310668,-4.63563,-412.18,1242.58,-50080.2,-2633.74,-121.501,-3.01501,0
24963,778.71,764.23,752.67,759.57,763.79,-40.53,-880.37,490.23,10.69,0.79,-3.77,-309.9,4994,0,64,-1.57064,-5.7814,-415.809,893.073,-50250.3,-2515.08,-120.849,-2.14781,0
24998,783.16,765.91,752.86,760.44,765.59,-45.41,-891.6,496.58,11.55,0.5,-5.82,-346.74,5001,0,64,-1.73815,-5.6167,-414.093,328.758,-49832.9,-2467.61,-120.342,-0.7939,0
25033,788.82,767.67,752.97,761.17,767.66,-26.37,-893.55,524.9,5.41,1.56,-3.18,-388.26,5008,0,64,-3.66863,-7.5523,-403.361,-370.306,-48437.4,-2260.31,-120.084,0.917998,0
25068,794.94,769.32,753.04,761.82,769.78,-43.46,-900.39,503.91,4.97,0.01,-0.66,-430.4,5015,0,64,-7.0298,-9.00593,-396.561,-541.922,-48004.3,-2175.42,-121.052,1.36656,0
25103,800.18,770.19,753.1,762.3,771.44,-41.5,-884.77,519.53,5.08,-2.6,-2.51,-460.66,5022,0,64,-9.31912,-7.08888,-390.42,-1264.8,-47542.7,-2503,-121.774,3.24006,0
25138,804.96,770.76,753.14,762.44,772.82,-42.97,-870.61,512.7,1.06,1.1,-0.37,-482.94,5029,0,64,-9.91724,-4.68986,-375.5,-1816.9,-45820.5,-2791.76,-122.026,4.83861,0
25175,809.96,771.24,753.14,762.63,774.24,-40.53,-887.7,519.53,0.6,1.76,-0.19,-506.6,5036,0,64,-10.1293,-4.94923,-369.651,-2002.64,-45076.4,-2726.83,-121.943,5.41773,0
25210,813.2,771.5,753.17,762.92,775.2,-52.25,-886.72,522.46,2.92,-2.41,-0.76,-523.37,5043,0,64,-9.56266,-2.10893,-365.694,-1823.54,-44788.8,-3223.13,-122.476,4.98655,0
25246,814.83,771.56,753.23,763.12,775.68,-36.13,-878.91,505.37,-0.19,-2.26,-0.31,-530.89,5050,0,64,-11.725,-6.19291,-364.837,-652.778,-45143.9,-2861.19,-123.737,1.78924,0
25281,815.95,771.65,753.2,763.49,776.07,-35.16,-879.88,529.3,2.68,0.07,0.93,-541.65,5057,0,64,-14.9496,-5.65291,-362.434,-161.19,-45599,-3197.86,-125.814,0.444624,0
25316,816.44,771.79,753.26,763.61,776.27,-36.13,-883.3,522.95,1.34,0,-1.01,-544.74,5064,0,64,-14.6744,-5.7977,-356.189,90.829,-44853.2,-2964.05,-125.926,-0.255163,0
25351,816.84,771.69,753.22,763.47,776.31,-35.16,-874.02,527.83,-2.69,0.3,0.16,-544.26,5071,0,64,-17.0972,-6.44211,-360.812,623.439,-45841.8,-2864.64,-127.052,-1.72776,0
25418,818.07,771.39,753.25,763.21,776.48,-39.55,-874.51,519.53,-2.1,0.76,0.74,-541.52,5085,0,64,-16.7226,-3.54318,-358.011,1402.47,-45856.1,-3147.66,-128.086,-3.91743,0
25453,818.4,771.09,753.14,763.02,776.41,-42.97,-876.46,508.79,-1.56,0.63,2.02,-540.09,5092,0,64,-18.3781,-4.43091,-367.876,1984.11,-47177.7,-3011.72,-128.243,-5.39345,0
25488,818.45,770.69,753.2,762.71,776.26,-39.55,-881.35,510.25,0.36,-1.53,-1.82,-530.96,5099,0,64,-16.9012,-3.87329,-374.152,2004.37,-47661,-2997.5,-127.384,-5.35703,0
25523,818.59,770.16,753.08,762.27,776.02,-57.13,-875,529.3,-3.56,-0.45,0.44,-523.83,5106,0,64,-15.8859,-6.24048,-380.849,2165.59,-48187.3,-2653.13,-126.526,-5.68632,0
25558,819.13,769.54,753.06,761.59,775.83,-38.09,-881.35,520.02,-3.82,-0.51,0.24,-511.11,5113,0,64,-14.979,-5.17846,-387.314,2384.64,-48814.3,-2754.78,-126.033,-6.15687,0
25593,820.2,768.86,753,760.81,775.72,-43.46,-885.25,524.41,-2.08,3.54,-0.35,-499.37,5120,0,64,-12.9968,-5.22631,-389.632,2295.5,-48754.5,-2483.69,-125.129,-5.89145,0
25630,821.44,768.24,752.94,760.12,775.68,-40.04,-887.7,509.28,-2.2,1.26,1.33,-490.07,5127,0,64,-10.927,-4.71124,-385.039,2089.43,-47860.4,-2467.38,-124.3,-5.42659,0
25665,822.5,767.97,752.88,759.71,775.77,-50.78,-878.42,512.7,-1.38,1.88,-1.3,-486.98,5134,0,64,-6.23314,-3.96641,-377.256,1581.24,-46521.3,-2270.31,-123.315,-4.19117,0
25700,823.42,767.62,752.9,759.03,775.74,-52.73,-893.07,509.77,-3.93,0.5,0.63,-476.76,5141,0,64,-4.18307,-3.84546,-363.173,427.185,-44651.8,-2537.04,-122.949,-1.1762,0
25735,824.44,767.16,752.78,758.2,775.65,-41.5,-893.07,512.7,-5.36,3.18,0.65,-467.39,5148,0,64,-2.1711,-2.61768,-357.986,-679.467,-44290.4,-3276.29,-123.721,1.89804,0
25770,825.94,766.54,752.67,757.34,775.62,-56.15,-887.7,514.65,-5.54,0.73,-0.64,-457.73,5155,0,64,0.702897,-3.14921,-356.817,-747.07,-44292.8,-3814.3,-124.133,2.09372,0
25804,826.84,765.86,752.66,756.48,775.46,-35.64,-886.23,499.02,-4.44,2.99,4.04,-442.82,5162,0,64,4.25847,-2.81006,-362.545,-590.957,-45097.9,-4289.56,-124.393,1.63006,0
25842,827.28,765.15,752.52,755.67,775.16,-52.25,-885.74,498.54,-4.74,0.79,0.87,-430.29,5169,0,64,8.14013,-0.57256,-371.636,-656.177,-46273.5,-4921.38,-124.513,1.76547,0
25877,827.19,764.47,752.37,755.24,774.82,-48.34,-894.53,508.79,-4.48,-0.07,0.28,-421.91,5176,0,64,11.9302,1.53667,-370.833,-1068.63,-46149.7,-5540.72,-124.449,2.88173,0
25912,827.17,763.84,752.44,754.86,774.58,-36.62,-897.46,487.79,-4.21,-1.02,2.89,-409.33,5183,0,64,15.2179,-0.605923,-363.536,-668.898,-45195.8,-5259.11,-124.323,1.83963,0
25946,826.74,763.28,752.35,754.62,774.25,-56.15,-898.44,501.46,-2.6,-0.82,0.49,-402.07,5190,0,64,18.9877,0.133955,-353.435,1.55585,-43883.7,-5050.47,-124.163,-0.00473865,0
25981,825.67,762.72,752.3,754.37,773.76,-44.92,-890.62,501.46,-3.17,-0.38,0.63,-391.46,5197,0,64,20.8531,-1.1747,-340.454,374.347,-42231.8,-4567.52,-124.045,-1.0996,0
26019,823.77,762.45,752.31,754.29,773.2,-52.73,-891.6,481.93,-1.99,-0.5,0.67,-381.49,5205,0,64,23.8795,1.11723,-327.861,121.132,-40618.7,-4656.72,-123.89,-0.369277,0
26053,822.47,762.26,752.34,754.32,772.85,-53.22,-894.53,494.14,-0.36,1.18,-0.11,-375.09,5212,0,64,26.85,3.84954,-318.263,-397.101,-39301.9,-4602.93,-123.489,1.24834,0
26088,821.5,762.29,752.38,754.41,772.65,-46.88,-891.6,498.54,2.92,-4.08,1.51,-372.48,5219,0,64,27.7746,4.47766,-297.985,-1430.66,-36543.9,-4454.85,-122.636,4.8024,0
26123,820.81,762.22,752.29,754.53,772.46,-39.06,-882.32,497.56,0.57,-2.98,0.11,-373.49,5226,0,64,28.4429,4.80919,-272.574,-2730.85,-33111.7,-4181.34,-121.476,10.0208,0
26158,819.92,762.26,752.35,754.53,772.26,-47.36,-886.72,498.54,3.15,0.71,-2.77,-369.19,5233,0,64,29.0369,2.7386,-249.621,-3729.1,-29890.3,-3660.88,-119.743,14.9402,0
26193,819.35,762.28,752.36,754.67,772.17,-43.46,-905.76,480.96,-0.63,-2.27,-1.8,-369.15,5240,0,64,27.8615,-0.496219,-241.182,-3895.24,-28855.4,-2957.92,-119.642,16.1506,0
26230,819.06,762.36,752.39,754.83,772.16,-44.43,-896,494.14,2.27,-0.24,-3.24,-370.4,5247,0,64,27.4429,-3.41992,-242.649,-4127.52,-28960.4,-2562.58,-119.351,17.01,0
26265,818.98,762.56,752.39,754.91,772.21,-47.36,-893.55,493.65,0.48,3.47,0.51,-372.99,5254,0,64,22.4329,-2.08763,-264.408,-3975.31,-32308.9,-2673.69,-122.192,15.037,0
26300,819.1,762.6,752.36,754.81,772.22,-53.22,-897.95,492.68,0.11,1.1,-0.52,-373.01,5261,0,64,19.3671,-0.823253,-307.399,-3911.44,-38240.4,-3079.83,-124.398,12.7252,0
26336,820.31,762.58,752.31,754.55,772.44,-48.34,-887.7,502.93,-4.93,-0.64,-0.05,-374.41,5268,0,64,24.1021,3.03701,-327.801,-4095.69,-40605.2,-3531.01,-123.872,12.4944,0
26371,821.53,762.39,752.32,754.23,772.62,-42.97,-912.6,486.82,-3.12,0.56,0.63,-372.18,5275,0,64,29.8189,-0.224788,-322.376,-3918.39,-39260.5,-2728.09,-121.785,12.1546,0
26406,821.77,762.34,752.29,754.08,772.62,-52.73,-889.16,507.32,-3.83,2.88,1.1,-371.15,5282,0,64,28.6428,-19.0522,-324.937,-2799.04,-39294.6,-47.7417,-120.93,8.61393,0
26443,821.95,762.61,752.35,754,772.73,-54.69,-887.21,494.14,-3.5,2.04,-1.45,-371.28,5290,0,64,27.9806,-11.3486,-331.608,-5915.05,-40043,-1449.92,-120.754,17.8376,0
26478,822.96,763.07,752.34,754.09,773.11,-61.52,-903.81,485.84,-2.35,1.48,-2.16,-379.92,5297,0,64,25.0794,6.31804,-329.254,-9931.75,-39807.2,-4360.12,-120.901,30.1652,0
26512,824.17,763.22,752.29,754,773.42,-38.57,-917.48,488.28,-1.59,2.01,-3.27,-385.12,5303,0,64,25.9433,11.7603,-322.9,-11779.7,-38788.3,-5255.38,-120.125,36.4811,0
26547,824.11,763.22,752.31,754.08,773.43,-51.27,-901.37,466.31,-1.77,0.67,0.21,-385.67,5310,0,64,30.0212,13.0763,-326.875,-12595.2,-38855,-5561.11,-118.868,38.5324,0
26582,823.66,763.29,752.23,753.9,773.27,-50.78,-896.97,478.52,-3.48,3.22,-2.85,-384.09,5317,0,64,31.4408,11.112,-334.347,-12413.3,-39715.8,-5282.46,-118.786,37.1272,0
26617,822.17,763.27,752.2,753.74,772.84,-49.32,-896,477.05,-7.89,4.86,-2.01,-377.06,5324,0,64,28.4183,7.45443,-335.804,-11439.3,-40299.2,-4710.26,-120.008,34.0654,0
26654,820.68,763.32,752.24,753.7,772.48,-44.92,-909.67,471.68,-5.18,0.06,-2.6,-370.71,5332,0,64,27.7921,4.58885,-334.303,-10227.3,-40287.2,-3883.57,-120.511,30.5929,0
26689,820.06,763.32,752.31,753.49,772.29,-43.95,-921.87,458.98,-3.4,1.72,-1.8,-363.96,5339,0,64,28.7639,4.96679,-335.864,-9637.23,-40546.4,-4021.22,-120.722,28.6938,0
26723,820.29,763.06,752.26,753.38,772.25,-52.25,-918.46,467.29,-2.33,0.31,-1.44,-362.18,5346,0,64,28.8619,6.70966,-338.268,-9517.17,-40943.5,-4253.38,-121.039,28.135,0
26758,820.87,763.01,752.29,753.36,772.38,-46.39,-900.39,464.36,0.98,2.02,-1.17,-362.71,5353,0,64,28.5708,6.795,-342.83,-9266.76,-41646.9,-4439.99,-121.48,27.0302,0
26793,820.85,763.19,752.38,753.41,772.45,-49.8,-921.87,458.01,-0.46,-0.61,-1.05,-362.61,5360,0,64,28.0464,5.8591,-347.275,-8754.48,-42276.7,-4284.9,-121.738,25.2092,0
26830,821.22,763.5,752.33,753.66,772.68,-36.62,-907.71,464.84,1.04,2.42,-1.56,-371.48,5367,0,64,29.0523,2.90988,-349.695,-7964.04,-42585.5,-3518.96,-121.779,22.7742,0
26865,822.24,763.97,752.42,754.05,773.17,-46.88,-916.5,467.77,6.44,0.14,-0.22,-382.04,5374,0,64,29.549,-0.103404,-348.347,-7206.31,-42397.8,-3076.44,-121.711,20.6871,0
26900,823.47,764.38,752.39,754.28,773.63,-37.11,-907.71,476.07,5.1,-2.28,-0.08,-393.79,5381,0,64,29.3564,-1.21705,-349.508,-6890.87,-42545.4,-2876.97,-121.729,19.7159,0
26934,823.95,764.49,752.51,754.49,773.86,-48.34,-892.09,494.14,3.8,1.8,-1.8,-396.33,5388,0,64,28.8563,-0.825093,-351.316,-6711.95,-42775.4,-2841.09,-121.757,19.1051,0
26969,822.86,764.5,752.5,754.57,773.61,-48.83,-881.35,497.07,-1.03,1.94,1.04,-394.16,5395,0,64,29.0923,-0.514847,-352.281,-6428.47,-42974.6,-2861.42,-121.989,18.2481,0
27004,821.5,764.42,752.49,754.6,773.26,-50.29,-900.39,481.93,-0.92,0.04,0.5,-389.62,5402,0,64,28.1726,-0.0230665,-355.058,-6223.23,-43486.7,-2857.34,-122.478,17.5274,0
27042,820.5,764.52,752.5,754.92,773.11,-42.97,-882.81,483.89,0.71,0.54,-2.46,-391.48,5409,0,64,27.7395,-0.22655,-356.203,-6013.02,-43764.6,-2439.41,-122.864,16.8809,0
27077,819.24,764.86,752.53,755.39,773.01,-47.36,-909.67,475.1,4.6,0.5,-0.82,-395.81,5416,0,64,27.8586,-0.486511,-358.222,-5682.8,-44079.9,-2234.89,-123.052,15.8639,0
27112,818.33,765.45,752.54,756.05,773.09,-42.97,-912.6,491.21,9.13,0.37,-1.35,-407.09,5423,0,64,27.6841,-1.49244,-360.402,-5154.05,-44586.2,-2085.16,-123.713,14.3009,0
27147,818,766.23,752.69,756.62,773.38,-31.74,-896,491.7,4.6,-0.64,-2.39,-416.7,5430,0,64,27.258,-0.335266,-360.293,-5189,-44602,-2177.65,-123.794,14.4022,0
27181,816.82,766.73,752.72,756.8,773.27,-50.29,-884.28,510.25,1.99,1.85,-0.68,-418.49,5437,0,64,27.0068,-0.536636,-356.534,-4938.15,-44117.9,-2218.27,-123.741,13.8504,0
27216,814.88,766.8,752.69,756.58,772.74,-33.69,-875.98,497.56,-5.95,3.74,-0.24,-409.95,5444,0,64,26.8485,-0.559948,-353.391,-4642.09,-43868.4,-2125.27,-124.135,13.1358,0
27254,812.57,766.61,752.65,756.15,772,-40.53,-897.95,494.63,-7.48,4.11,-0.91,-395.21,5452,0,64,26.0575,-1.44147,-353.257,-3750.4,-43938.3,-1858.24,-124.381,10.6167,0
27289,811.09,766.48,752.6,755.79,771.49,-49.32,-890.14,493.65,-8.11,4.76,0.98,-385.14,5459,0,64,26.5121,-1.73688,-353.546,-3360.64,-44054.1,-1890.31,-124.607,9.50551,0
27324,811.78,766.79,752.65,755.69,771.73,-51.27,-906.25,477.05,-4.43,2.4,0.04,-387.28,5466,0,64,26.3312,-1.76882,-354.526,-2927.71,-44121.5,-1675.49,-124.452,8.25819,0
27359,813.7,767.21,752.63,755.91,772.36,-57.62,-920.9,466.31,0.8,-3.56,-2.21,-400.94,5473,0,64,26.5356,-1.75465,-356.683,-2437.16,-44481.1,-1767.12,-124.708,6.83288,0
27394,811.77,767.2,752.75,756.3,772,-38.57,-917.48,464.84,2.06,-2.24,-1.6,-396.92,5480,0,64,26.3602,-2.11429,-360.814,-1733.96,-45203.6,-1672.7,-125.282,4.80583,0
27429,808.07,767.27,752.79,756.82,771.24,-50.29,-905.27,484.86,2.83,-1.4,0.05,-391.46,5487,0,64,26.3949,-2.42616,-364.897,-1173.89,-45696.4,-1513.91,-125.231,3.21712,0
27467,804.3,767.6,752.94,757.52,770.59,-37.11,-906.25,493.16,8.06,-1.42,0.44,-387.89,5494,0,64,26.6115,-2.30474,-366.25,-775.698,-45952.1,-1516.84,-125.467,2.11795,0
27502,802.08,767.8,753.05,758.23,770.29,-53.71,-898.93,492.19,5.17,-3.14,-2.53,-389.31,5501,0,64,26.9342,-2.10232,-367.042,-576.607,-46079.4,-1564.67,-125.543,1.57097,0
27536,800.19,768.18,753.23,758.99,770.15,-41.99,-891.6,495.12,4.76,-2.78,-2.36,-392.76,5508,0,64,26.8453,-2.26957,-367.184,-278.425,-46043.2,-1614.36,-125.395,0.758267,0
27571,796.87,768.39,753.34,759.62,769.55,-38.57,-900.88,490.72,2.66,-1.35,-0.79,-389.55,5515,0,64,27.0531,-2.36729,-367.995,-109.633,-46146.1,-1783.7,-125.399,0.297929,0
27606,792.3,768.63,753.46,760.31,768.67,-35.64,-876.46,515.14,3.13,0.4,-2.79,-382.95,5522,0,64,27.0542,-2.30499,-365.961,25.2763,-45784.6,-1741.15,-125.108,-0.069018,0
27641,788.35,768.89,753.6,760.95,767.95,-39.06,-907.71,489.75,1.45,-1.16,0.6,-377.56,5529,0,64,27.561,-1.94718,-363.749,-24.3338,-45410.9,-1746.54,-124.841,0.0669398,0
27679,784.22,768.79,753.71,761.1,766.95,-34.18,-874.51,513.18,-1.8,-1.91,-1.83,-361.8,5537,0,64,27.2052,-1.56863,-362.391,-23.6753,-45206.6,-1911.15,-124.745,0.0653501,0
27714,781.8,768.28,753.61,760.39,766.02,-35.64,-904.79,497.07,-7.01,-0.76,1.33,-341.53,5544,0,64,26.5573,-1.06785,-360.197,-59.2904,-44934.6,-1944.17,-124.75,0.164646,0
27749,781.86,767.53,753.49,759.96,765.71,-56.64,-891.11,479.49,-2.4,-1.82,1,-332.54,5551,0,64,26.2228,-0.269704,-358.704,-148.435,-44723.9,-2007.2,-124.682,0.413793,0
27783,784.59,766.63,753.39,759.19,765.95,-36.62,-894.04,503.91,-2.21,-2.83,2.65,-325.65,5558,0,64,26.5434,-0.474026,-358.572,-76.8553,-44717.3,-1954.72,-124.71,0.214326,0
27818,787.18,766.16,753.26,758.63,766.31,-70.8,-906.25,491.21,-8.54,-1.66,0.22,-325.87,5565,0,64,26.1256,-0.623358,-359.9,84.6635,-44903.1,-1942.78,-124.765,-0.235249,0
27856,790.88,766.37,753.25,758.39,767.22,-22.95,-922.85,472.17,-2.27,2.21,0.24,-337.08,5572,0,64,26.3059,-0.0708299,-361.281,115.923,-45248.1,-2011.29,-125.244,-0.320859,0
27891,797.55,766.59,753.18,757.6,768.73,-41.99,-902.83,499.51,-2.79,4.6,-1.86,-351.72,5579,0,64,26.7001,0.138783,-362.667,64.2645,-45374,-1829.73,-125.112,-0.177149,0
27926,805.85,766.19,753.03,756.1,770.29,-49.32,-906.74,494.63,-17.4,5.09,0.19,-358.56,5586,0,64,26.4324,-0.228618,-363.693,276.901,-45540.8,-1824.22,-125.218,-0.761357,0
27961,810.16,765.1,752.93,755.47,770.92,-49.8,-940.92,448.73,-14.26,-0.6,1.25,-357.92,5593,0,64,26.8485,-0.180674,-365.266,325.744,-45732.8,-1954.83,-125.204,-0.891826,0
27996,814.59,764.58,752.87,754.92,771.74,-25.88,-903.32,458.98,-8.54,2,-0.07,-362.38,5600,0,64,26.2343,-0.440871,-366.729,334.55,-45936.1,-1890.82,-125.259,-0.912254,0
28031,818.7,764.41,752.75,754.37,772.56,-38.09,-896.97,477.05,-11.19,1.75,-0.8,-369.86,5607,0,64,26.5039,-0.544395,-368.603,394.697,-46235.6,-1714.52,-125.435,-1.07076,0
28068,819.83,764.17,752.68,754.01,772.67,-59.08,-906.74,436.52,-12.07,2.73,1.18,-368.46,5615,0,64,26.7468,-0.770948,-371.434,518.277,-46583.6,-1788.41,-125.416,-1.39533,0
28103,820.58,764.46,752.68,754.05,772.94,-40.53,-924.8,439.45,-2.99,4.42,-2.95,-373.79,5622,0,64,26.7244,-1.09699,-373.662,576.162,-46873.8,-1786.96,-125.444,-1.54195,0
28138,820.28,764.55,752.63,753.88,772.84,-49.32,-921.39,440.43,-7.98,0.08,-1.6,-372.29,5629,0,64,26.9911,-1.35114,-375.594,388.846,-47178,-1737.84,-125.609,-1.03528,0
28172,819.1,764.52,752.61,753.49,772.43,-38.57,-899.41,444.82,-12.72,1.92,-2.07,-362.76,5635,0,64,26.9572,-1.42953,-374.254,403.62,-46969.7,-1678.98,-125.502,-1.07847,0
28208,820.87,764.23,752.55,752.88,772.63,-39.55,-925.78,460.94,-15.17,4.02,-0.98,-358.92,5643,0,64,27.4657,-1.35039,-373.869,275.154,-46856.1,-1671.95,-125.328,-0.735965,0
28242,822.52,763.53,752.44,752.4,772.72,-69.34,-904.3,470.21,-20.27,1.97,0.27,-354.91,5649,0,64,27.2929,-1.0215,-374.293,42.1149,-46887.5,-1619.36,-125.27,-0.112527,0
28280,824.53,763.08,752.36,752.11,773.02,-74.22,-954.59,363.77,-12.96,1.63,-0.68,-355.56,5657,0,64,27.4591,-1.15995,-373.452,-47.5143,-46784.2,-1665.88,-125.275,0.127241,0
28315,826.14,763.12,752.4,752.06,773.43,-70.8,-912.11,391.6,-4.35,0.56,-1.94,-359.82,5664,0,64,26.8792,-1.82142,-371.236,14.8573,-46511.1,-1488.97,-125.287,-0.0399957,0
28350,824.13,763.24,752.42,752.14,772.98,-93.75,-944.82,384.28,-0.57,-1.11,-2.86,-354.53,5671,0,64,27.2168,-1.61842,-368.181,-5.47929,-46151.6,-1528.64,-125.35,0.0148753,0
28384,823.65,763.78,752.57,752.31,773.08,-51.27,-930.66,407.71,7.55,-1.59,-3.05,-356.24,5678,0,64,27.5293,-1.66179,-367.583,-84.9926,-46040.9,-1491.43,-125.253,0.231221,0
28419,822.61,764.77,752.56,752.62,773.14,-52.25,-928.22,417.97,5.78,2.68,-5.89,-365.28,5685,0,64,27.2651,-1.74924,-365.631,8.14221,-45805.5,-1431.27,-125.278,-0.0222382,0
28454,821.08,765.21,752.71,752.8,772.95,-54.2,-926.76,396.48,2.99,1.7,-3.8,-362.29,5692,0,64,26.9066,-2.61907,-363.202,-129.099,-45381.4,-1441.98,-124.948,0.355467,0
28491,819.25,765.53,752.7,753.32,772.7,-61.04,-924.8,416.99,1.94,-0.07,-1.69,-366.58,5699,0,64,27.1846,-2.89621,-363.673,-215.324,-45501.1,-1420.53,-125.115,0.592084,0
28526,817.25,766.19,752.85,754.03,772.58,-34.18,-928.71,449.22,7.66,-0.34,-6.12,-371.94,5706,0,64,27.1359,-3.31285,-366.634,-291.377,-45886.4,-1574.63,-125.156,0.794737,0
28561,814.79,766.59,753.01,754.52,772.23,-59.57,-940.92,388.18,3.8,-0.95,-2.18,-369.82,5713,0,64,26.8319,-3.52002,-368.374,-292.369,-46041.5,-1537.03,-124.986,0.793649,0
28596,812.95,766.64,753.2,755.21,772,-48.34,-944.82,411.13,5.89,1.79,-1.66,-369.23,5720,0,64,27.1286,-3.00333,-369.633,-473.82,-46169.4,-1745.26,-124.906,1.2819,0
28631,810.86,766.58,753.34,755.56,771.59,-21.48,-910.16,471.68,5.74,-4.05,-2.65,-363.16,5727,0,64,27.1069,-2.45453,-369.46,-712.589,-46084.5,-1797.82,-124.734,1.92874,0
28668,808.87,766.13,753.41,755.76,771.04,-29.3,-933.59,407.71,0.59,0.07,-1.76,-354.02,5735,0,64,27.1529,-1.99351,-374.628,-885.9,-46769.3,-1996.83,-124.842,2.36473,0
28703,807.43,765.59,753.44,755.85,770.58,-49.32,-930.18,426.76,-0.13,-4.13,2.46,-345.33,5742,0,64,27.169,-2.1918,-383.52,-864.121,-47978.2,-1980.25,-125.1,2.25303,0
28738,806.8,765.43,753.52,755.88,770.41,-47.85,-914.06,441.89,-0.65,-0.58,0.4,-340.37,5749,0,64,27.2305,-2.12494,-387.848,-1158.03,-48503.9,-2037.19,-125.059,2.98581,0
28773,805.6,765.35,753.48,755.62,770.01,-17.58,-911.13,450.68,-0.29,-0.44,-0.36,-332.76,5756,0,64,26.9712,-2.13905,-386.158,-1400.58,-48199.3,-1959.84,-124.817,3.62695,0
28808,805.13,765.28,753.4,755.44,769.81,-28.81,-929.2,427.73,-1.62,1.23,0.4,-329.91,5763,0,64,27.2648,-1.47953,-384.375,-1649.51,-47964.9,-2065.07,-124.787,4.29141,0
28843,804.4,765.33,753.41,755.47,769.65,-47.36,-925.29,434.57,0.33,3.92,-2.53,-328.2,5770,0,64,26.9099,-0.464491,-383.816,-1783.62,-47882.5,-2200.6,-124.754,4.64707,0
28881,803.93,766.61,753.41,755.84,769.95,-34.67,-918.46,445.8,0.02,2.33,-3,-342.17,5777,0,64,27.3688,-0.0956679,-381.239,-1669.88,-47473.1,-2269.96,-124.523,4.38012,0
28916,804.13,767.69,753.4,755.64,770.22,-36.13,-932.62,429.69,-2.79,2.01,-1.98,-348.85,5784,0,64,28.0858,1.02938,-374.047,-1696.82,-46461.3,-2444.38,-124.213,4.53632,0
28951,805.15,768.36,753.26,755.55,770.58,-39.06,-920.9,425.29,-1.82,3.98,-1.57,-359.85,5791,0,64,27.5455,1.516,-365.862,-1659.1,-45453.1,-2564.5,-124.236,4.53473,0
28986,806.55,768.86,753.31,755.14,770.97,-23.93,-908.69,448.24,-4.16,3.41,1.82,-361.28,5798,0,64,26.7557,1.15451,-359.798,-1343.91,-44599.6,-2540.87,-123.957,3.73519,0
29021,807.65,769.68,753.33,755.09,771.44,-44.43,-937.99,405.76,-6.12,3.35,-1.44,-370.56,5805,0,64,26.8793,0.398322,-359.217,-1052.42,-44547.4,-2497.14,-124.013,2.92975,0
29056,809.48,770.36,753.34,754.81,772,-44.92,-938.96,427.25,-4.44,2.4,-4.11,-377.74,5812,0,64,26.9195,0.186182,-356.697,-945.284,-44239.9,-2459.01,-124.027,2.6501,0
29093,811.25,770.8,753.29,754.6,772.48,-36.62,-940.43,409.18,-4.3,1.34,-2.5,-385.71,5820,0,64,26.9863,0.436213,-354.389,-1030.01,-43897.1,-2532.63,-123.867,2.90645,0
29129,812.5,771.12,753.34,754.51,772.87,-47.85,-934.57,434.57,-1.75,1.49,0.07,-389.77,5827,0,64,26.5031,0.758478,-349.725,-1341.34,-43206.1,-2653.18,-123.543,3.83539,0
29164,812.96,771.43,753.36,754.79,773.14,-57.62,-952.15,399.41,1.08,-0.28,-2.37,-397.56,5834,0,64,26.6318,0.806539,-346.368,-1490.07,-42796.5,-2682.26,-123.558,4.30198,0
29199,812.47,771.57,753.25,754.52,772.95,-19.04,-924.32,431.64,-1.69,-1.1,-0.93,-395.82,5841,0,64,26.916,1.13271,-344.97,-1579.3,-42569.7,-2714.11,-123.401,4.57808,0
29234,812.38,771.41,753.39,754.71,772.97,-41.02,-930.66,421.39,-0.21,3.03,-0.16,-393.34,5848,0,64,26.4752,1.47506,-347.326,-1534.94,-42943.3,-2717.08,-123.64,4.4192,0
29269,810.64,771.52,753.43,755.34,772.73,-52.73,-939.45,398.93,11.46,-1.79,-2.97,-396.67,5855,0,64,26.2601,1.25269,-351.96,-1458.25,-43590.1,-2736.7,-123.85,4.14328,0
29307,809.72,771.32,753.56,755.27,772.47,-42.97,-906.25,425.29,4.81,3.63,1.45,-387.72,5862,0,64,26.3655,1.26486,-358.128,-1327.46,-44420,-2721.96,-124.034,3.7067,0
29342,808.37,771.4,753.73,755.78,772.32,-43.95,-931.64,416.99,12.49,-0.31,-4.4,-386.81,5869,0,64,26.5927,0.883816,-361.395,-1482.21,-44834.2,-2636.79,-124.059,4.10134,0
29377,808.03,771.56,753.9,756.11,772.4,-26.37,-871.58,446.78,18.19,-0.02,-3.44,-387.72,5876,0,64,26.7555,0.56912,-361.694,-1643.43,-44861,-2602.51,-124.03,4.54383,0
29412,808.76,771.45,753.97,755.97,772.54,-25.39,-911.62,456.05,5.93,0.56,-0.24,-385.56,5883,0,64,25.9363,0.510221,-356.487,-2269.75,-44308.5,-2486.6,-124.292,6.36705,0
29447,808.69,771.19,753.92,755.93,772.43,-29.79,-920.9,427.73,3.05,-0.99,0.73,-383.77,5890,0,64,25.1284,0.415197,-350.555,-3188.54,-43271.7,-2606.03,-123.438,9.09604,0
29484,809.17,771.06,753.85,756.17,772.56,-24.9,-897.46,438.48,7.21,2.24,-0.37,-389.76,5898,0,64,23.8103,-0.810412,-325.279,-4940.41,-39771.8,-2409.62,-122.269,15.1905,0
29520,808.68,770.88,753.81,756.28,772.41,-66.41,-923.34,453.61,5.47,-1.42,-2.24,-389.21,5905,0,64,20.407,-0.957421,-285.117,-6244.59,-34504.3,-2263.95,-121.018,21.9049,0
29555,807.98,770.34,753.7,756.37,772.1,-35.64,-903.32,443.85,2.79,-1.61,2.12,-386.51,5912,0,64,16.4538,-0.835798,-239.79,-6149.5,-28602.4,-1767.68,-119.281,25.6448,0
29589,806.74,769.53,753.59,756.43,771.57,-28.81,-916.02,458.5,3.97,-5.37,2.08,-379.46,5919,0,64,20.3599,-0.221105,-237.148,-4341.29,-28068.7,-1461.31,-118.359,18.3116,0
29625,804.22,768.85,753.5,756.37,770.74,-48.83,-920.41,450.2,6.08,-5.58,-0.11,-366.83,5926,0,64,25.0626,-4.27819,-273.643,-2258.88,-32558.1,-990.996,-118.981,8.2591,0
29660,799.92,768.22,753.45,756.2,769.45,-7.81,-897.46,462.4,-6.27,-0.79,0.63,-345.44,5933,0,64,23.9374,-8.81142,-288.135,-340.467,-34535,-507.387,-119.859,1.18307,0
29697,794.87,767.93,753.29,756.06,768.04,-45.41,-911.13,481.93,-3.44,1.11,-0.71,-327.81,5940,0,64,26.5802,-7.08625,-318.708,1826.36,-38564.6,-796.13,-121.002,-5.72774,0
29732,791.76,767.58,753.18,755.91,767.1,-0.49,-953.61,405.76,0.01,0.28,-1.85,-314.89,5947,0,64,24.5922,-5.0649,-345.556,3586.68,-42198.3,-1141.49,-122.117,-10.3793,0
29767,791.83,767.5,753.18,755.98,767.12,-35.64,-921.39,479,9.76,-2.21,-1.58,-315.39,5954,0,64,24.9041,-5.62624,-361.201,5724.59,-44681.1,-1122.51,-123.701,-15.8482,0
29802,792.83,767.67,753.24,756.6,767.58,-38.57,-928.22,426.27,12.31,-2.2,0.05,-327.84,5961,0,64,20.6158,-11.4579,-365.608,7893.12,-45833.4,-169.754,-125.362,-21.5887,0
29837,794.48,767.5,753.27,757.19,768.11,-35.16,-922.85,444.34,16.31,-8.18,0.55,-340.21,5968,0,64,17.4136,-11.764,-366.708,7723.96,-46147.1,-284.718,-125.842,-21.0629,0
29872,795.69,767.38,753.41,757.26,768.44,-44.92,-880.86,507.32,5.42,0.09,0.49,-340.87,5975,0,64,17.5351,-9.57391,-366.506,8013.17,-46113.2,-951.48,-125.818,-21.8637,0
29909,793.92,767.09,753.34,757.09,767.86,-45.41,-901.37,482.42,-3.27,-2.18,-1.76,-331.67,5983,0,64,15.106,-10.408,-345.079,7616.97,-43502.7,-970.099,-126.065,-22.0732,0
29944,792.41,767.19,753.34,757.08,767.5,-20.51,-885.74,492.19,-0.21,1.69,-1.08,-327.16,5990,0,64,10.3414,-10.2737,-341.848,7317.42,-43386.8,-1221.21,-126.919,-21.4056,0
29979,793.78,767.8,753.34,757.38,768.08,-40.04,-891.6,495.12,3.89,1.31,-1.21,-341.13,5997,0,64,5.75438,-7.2098,-356.346,7941.05,-45843.8,-1987.56,-128.65,-22.2848,0
30014,795.3,768.88,753.51,758.38,769.02,-56.15,-932.62,450.2,9.11,-0.05,-1.4,-365.7,6004,0,64,-1.98603,-9.75016,-344.321,8428.26,-45084,-1768.82,-130.936,-24.4782,0
30048,794.06,769.83,753.86,759.74,769.37,-29.3,-902.83,470.7,10.92,-0.89,-2.69,-380.37,6011,0,64,-6.23252,-11.5821,-358.565,9330.18,-47468.2,-1939.57,-132.384,-26.0213,0
30084,789.59,770.16,753.99,760.29,768.51,-24.41,-877.44,520.02,1.77,1.98,-0.76,-372.58,6018,0,64,-10.8009,-12.3095,-362.923,8582.38,-48117.4,-2035.43,-132.583,-23.6476,0
30121,786.78,770.37,753.98,760.56,767.92,-30.76,-889.16,489.26,2.15,-0.52,-2.41,-368.53,6025,0,64,-11.1989,-10.0389,-355.784,7082.31,-46892.2,-2293.2,-131.8,-19.9063,0
30156,786.85,770.86,754.06,760.99,768.19,-23.93,-898.93,494.63,4.21,-0.95,-0.57,-377.3,6032,0,64,-12.5303,-6.77062,-363.999,6308.49,-47888.2,-2928.33,-131.562,-17.3311,0
30191,788.28,771.08,754.09,761.13,768.65,-39.06,-890.62,493.16,2.91,-0.54,-0.99,-385.08,6039,0,64,-12.1785,-7.32897,-361.572,5217.26,-47313.1,-2787.49,-130.854,-14.4293,0
30226,789.38,771.19,754.1,761.37,769.01,-48.83,-905.27,490.23,-0.34,-0.88,0.09,-393.11,6046,0,64,-12.1826,-3.74852,-354.86,4429.65,-46241.3,-3142.7,-130.309,-12.4828,0
30261,788.81,771.25,754.2,761.57,768.96,-34.18,-909.18,488.28,-0.92,-0.63,-0.89,-392.13,6053,0,64,-13.2999,-4.86023,-353.193,4140.37,-45937.8,-2894.2,-130.064,-11.7224,0
30296,787.87,771.14,754.09,761.41,768.63,-36.13,-903.32,502.93,-3.05,0.23,0.56,-388.38,6060,0,64,-13.3883,-3.044,-346.173,3559.27,-45020,-3169.78,-130.051,-10.2818,0
30334,787.43,771.25,754.15,761.52,768.59,-41.99,-905.27,495.61,1.45,0.45,2.79,-387.71,6068,0,64,-13.5855,-3.98468,-355.792,3846.98,-46198.6,-3098.34,-129.847,-10.8124,0
30369,787.96,771.18,754.12,761.39,768.67,-24.41,-889.16,493.65,-0.96,-2.58,0.71,-387.96,6075,0,64,-13.2521,-3.67038,-352.009,3415.79,-45520.2,-3107.44,-129.315,-9.70366,0
30404,788.86,771.17,754.09,761.28,768.85,-44.92,-900.88,507.32,0.53,2.28,1.5,-390.21,6082,0,64,-13.2698,-3.26028,-346.721,3188.83,-44821.5,-2984.71,-129.273,-9.19712,0
30439,789.51,771.22,754.13,761.26,769.03,-38.09,-901.86,491.21,0.5,0.21,1.97,-391.63,6089,0,64,-14.7011,-4.11212,-339.027,3628.25,-43970.1,-2832.15,-129.695,-10.7021,0
30474,789.55,771.21,754.12,761.14,769.01,-32.71,-888.18,510.74,0.15,1.23,1.5,-390.08,6096,0,64,-13.8926,-4.84378,-334.985,4202.35,-43506.4,-2918.68,-129.876,-12.545,0
30511,789.83,771.02,754.02,761.09,768.99,-34.67,-899.9,504.39,0.15,0.85,0.32,-391.23,6103,0,64,-16.797,-5.42925,-341.974,5098.27,-44737.3,-3029.22,-130.821,-14.9084,0
30546,789.95,770.84,754.01,760.84,768.91,-35.64,-899.9,507.81,-3.02,2.18,-0.56,-386.7,6110,0,64,-16.4132,-5.63227,-344.462,5732.56,-44944.2,-3257.23,-130.476,-16.642,0
30581,790.23,770.46,753.87,760.49,768.76,-31.74,-896.97,505.37,-1.62,0.15,1.02,-383.04,6117,0,64,-17.1999,-8.35053,-356.347,6726.36,-46590.1,-3068.36,-130.744,-18.8758,0
30616,791.82,770.01,753.83,760.16,768.96,-33.69,-890.62,492.19,-0.05,-0.63,0,-381.01,6124,0,64,-16.3076,-8.36298,-357.925,7131.42,-46674.2,-3049.87,-130.402,-19.9244,0
30651,792.99,769.85,753.8,760.09,769.18,-46.88,-882.32,505.37,0.94,-0.11,0.63,-383.44,6131,0,64,-16.2659,-8.98221,-361.11,7701.44,-47028.9,-2837.78,-130.234,-21.3271,0
30686,793.62,769.65,753.66,759.89,769.2,-29.3,-878.91,499.02,-0.43,1.85,1.77,-384.62,6138,0,64,-16.1527,-8.392,-360.71,7879.99,-46848.8,-2904.27,-129.879,-21.8458,0
30724,794.32,769.33,753.7,759.74,769.27,-41.5,-884.77,485.84,-0.84,0.73,-0.5,-381.01,6146,0,64,-13.6731,-9.18386,-353.278,8036.54,-45793,-2538.28,-129.623,-22.7485,0
30759,794.54,769.4,753.72,759.7,769.34,-37.6,-903.81,502.44,-0.76,-2.18,-1.65,-381.25,6153,0,64,-14.3126,-9.47373,-360.997,7774.22,-46753.5,-2597.87,-129.512,-21.5356,0
30794,795.18,769.39,753.74,759.68,769.5,-37.11,-882.81,497.56,0.45,2.37,1.31,-382.82,6160,0,64,-12.1948,-8.55872,-362.305,6849.95,-46401.9,-2731.3,-128.074,-18.9066,0
30829,796.5,769.48,753.7,759.62,769.83,-45.9,-899.41,490.72,1.61,-0.78,0.66,-388.04,6167,0,64,-10.5058,-8.78497,-358.504,6545.67,-45702.6,-2609.73,-127.481,-18.2583,0
30865,797.07,769.59,753.79,759.72,770.04,-32.71,-892.09,483.89,-1.85,-0.97,-1.43,-390.06,6174,0,64,-7.70523,-7.94471,-367.597,6462.9,-46862.1,-2771.84,-127.482,-17.5818,0
30900,797.26,769.84,753.79,759.77,770.16,-33.69,-890.14,501.95,0.26,1.52,-1.47,-393.5,6181,0,64,-6.2397,-3.72868,-370.849,4426.67,-47064,-3535.17,-126.909,-11.9366,0
30937,797.18,770.05,753.84,759.81,770.22,-36.13,-902.34,487.79,1.28,1,-0.93,-394.42,6188,0,64,-2.60835,-4.25044,-372.658,3929.98,-47113.6,-3590.98,-126.426,-10.5459,0
30973,797.02,770.18,753.79,759.99,770.25,-30.76,-894.04,503.42,0.63,0.63,-1.02,-398.59,6196,0,64,0.284977,-3.38769,-385.019,2542,-48497.8,-3852.97,-125.962,-6.60207,0
31008,797.09,770.39,753.95,760.21,770.41,-39.55,-890.62,495.12,1.32,1.84,-1.15,-399.75,6203,0,64,2.52222,-2.33728,-367.051,492.227,-46193.3,-4062.99,-125.85,-1.34033,0
31043,797.54,770.72,753.97,760.35,770.64,-32.71,-898.44,492.19,0.61,3.71,-1.77,-405.79,6210,0,64,6.16017,-2.01125,-356.061,-307.984,-44561,-4200.39,-125.15,0.865038,0
31078,797.95,770.79,753.96,760.41,770.78,-41.5,-893.55,501.95,0.4,2.02,-1.14,-408.71,6217,0,64,10.7369,1.44063,-354.631,-495.124,-44357.6,-4714.37,-125.081,1.39638,0
31113,797.04,770.71,753.98,760.31,770.51,-33.2,-890.14,494.63,-1.08,1.03,-0.98,-402.92,6224,0,64,13.2449,0.518008,-336.704,-389.18,-42060.7,-4477.6,-124.919,1.1559,0
31156,797.12,770.72,753.95,760.16,770.49,-20.51,-893.55,505.86,-1.44,-2.48,-0.65,-401.97,6232,0,64,16.2736,-0.279755,-310.706,-640.635,-38632.4,-4169.5,-124.337,2.06275,0
31191,796.95,770.67,753.94,759.95,770.38,-39.06,-896.97,504.39,-1.04,1.17,-0.57,-398.06,6239,0,64,19.995,2.45304,-293.788,-1989.63,-35904.8,-4313.03,-122.213,6.77289,0
31226,796.31,770.59,753.95,759.89,770.19,-34.18,-889.65,489.26,-0.21,0.91,-1.54,-394.22,6246,0,64,23.2947,5.67288,-277.824,-3138.33,-33623.8,-4647.39,-121.025,11.2966,0
31261,795.68,770.51,754,760.01,770.05,-36.13,-900.88,488.28,-0.85,1.8,-3.39,-391.85,6253,0,64,24.9473,4.2452,-257.56,-3120.94,-31016.9,-4133.61,-120.426,12.1175,0
31296,795.35,770.49,753.97,760.11,769.98,-40.53,-890.14,500,-0.04,-0.05,1.98,-392.78,6260,0,64,25.3405,2.65737,-238.251,-3371.32,-28350.5,-3576.05,-118.995,14.1508,0
31335,795.6,770.53,754.06,760.14,770.08,-31.74,-893.07,494.14,-1.08,1.46,-1.43,-392.14,6268,0,64,26.5593,0.80602,-219.413,-4081.69,-25729.4,-3230.54,-117.264,18.6029,0
31370,796.17,770.5,754.03,760.18,770.22,-39.55,-893.07,477.54,1.88,-1.21,-1.55,-395.24,6275,0,64,27.8321,-4.25117,-219.294,-3768.54,-25544.5,-2483.28,-116.485,17.1853,0
31405,796.89,770.5,754.07,760.15,770.4,-41.99,-885.74,494.14,1.43,-1.32,0.15,-396.23,6282,0,64,29.7833,-6.21359,-231.388,-3814.28,-26855.2,-2355.05,-116.06,16.485,0
31440,797.27,770.4,754.05,760.19,770.48,-34.67,-890.62,500,0,-1.4,0.82,-397.62,6289,0,64,23.2198,-2.78093,-260.514,-3443.53,-31275.3,-2654.24,-120.05,13.2206,0
31474,797.09,770.42,754.08,760.2,770.45,-42.48,-884.77,496.58,-0.82,-0.89,-0.16,-396.72,6296,0,64,20.0557,-2.4626,-292.682,-2360,-35934.2,-2798.16,-122.775,8.06608,0
31509,796.94,770.29,754.09,760.16,770.37,-24.9,-893.55,501.95,0.54,-0.49,-2.19,-394.43,6303,0,64,23.1575,-8.47227,-331.167,-915.169,-40580.3,-2030.41,-122.538,2.76393,0
31547,796.86,770.26,754.04,760.16,770.33,-26.86,-895.02,497.07,-0.95,-0.15,-0.61,-395.14,6310,0,64,30.7779,-24.874,-359.084,-227.397,-43310.5,602.975,-120.614,0.632612,0
31582,796.69,770.25,754.02,760.19,770.29,-40.53,-893.07,496.09,-0.99,-0.64,-0.57,-395.3,6317,0,64,35.7416,-12.4155,-363.788,-3442.17,-43525,-820.905,-119.644,9.46327,0
31616,796.63,770.2,754.03,760.27,770.28,-43.46,-894.04,512.7,0.18,1.67,-2.47,-395.51,6324,0,64,28.9516,6.03932,-342.868,-7714.81,-41227.8,-3954.99,-120.244,22.5026,0
31651,796.66,770.26,754.08,760.37,770.34,-31.74,-881.35,490.72,-0.12,1.33,0.3,-396.46,6331,0,64,27.2774,10.7742,-332.437,-9502.28,-39748.1,-4929.19,-119.566,28.5837,0
31686,796.72,770.2,753.94,760.33,770.3,-32.23,-890.14,497.07,-1.11,0.58,-0.75,-399.03,6338,0,64,30.3701,9.05251,-339.887,-9944.7,-40328.2,-4635.66,-118.652,29.2587,0
31721,796.87,770.16,753.95,760.32,770.33,-34.18,-891.6,496.58,-1.86,-1.13,-1.26,-399.04,6345,0,64,32.6544,5.69049,-350.275,-10159.7,-41518.7,-4106.06,-118.532,29.005,0
31758,797.2,770.04,753.95,760.19,770.34,-36.13,-893.07,505.37,-2.56,-0.73,-0.18,-397.14,6353,0,64,30.9031,3.8459,-356.211,-10361.5,-42482.9,-3826.71,-119.263,29.0881,0
31793,797.41,769.86,753.93,760.08,770.32,-21.97,-898.93,492.68,-0.95,0.77,0.76,-395.2,6360,0,64,29.491,4.74485,-358.207,-10842.2,-42946.3,-3918.13,-119.892,30.2679,0
31828,797.76,769.78,753.92,760.01,770.37,-29.79,-888.18,497.07,0.13,0.99,-0.73,-395.16,6367,0,64,30.1859,6.36779,-358.963,-11461.8,-42998,-4279.67,-119.784,31.9302,0
31863,797.89,769.7,753.83,759.92,770.34,-44.92,-905.27,497.56,-0.23,0.04,1.46,-395.72,6374,0,64,31.6956,7.65815,-361.878,-12206.7,-43242.9,-4451.03,-119.496,33.7315,0
31899,798.18,769.55,753.91,759.89,770.38,-38.57,-894.04,499.02,-1.91,0.37,0.85,-393.23,6381,0,64,31.7327,7.23101,-368.678,-12554.2,-44157.2,-4312.13,-119.772,34.0519,0
31934,798.38,769.56,753.85,759.88,770.42,-27.83,-900.88,498.05,-1.02,2.66,-0.11,-395.36,6388,0,64,30.9721,3.22695,-373.47,-12321.7,-44851.5,-3979.35,-120.094,32.9924,0
31971,798.75,769.45,753.81,759.73,770.44,-38.57,-882.32,495.61,-0.92,0.02,0.15,-394.37,6395,0,64,31.3267,-0.34825,-378.745,-11963.2,-45588.8,-3480.35,-120.368,31.5865,0
32006,798.99,769.34,753.82,759.73,770.47,-32.23,-890.14,505.86,-0.11,0.3,-1.07,-394.06,6402,0,64,31.3501,-2.53973,-386.066,-11830.3,-46530.6,-3215.66,-120.525,30.6431,0
32041,799.13,769.32,753.8,759.66,770.47,-39.06,-909.18,493.65,-2.15,-0.12,-0.32,-393.84,6409,0,64,31.345,-4.21995,-392.751,-12205.5,-47428.1,-3036.17,-120.759,31.077,0
32076,799.08,769.26,753.83,759.59,770.44,-33.2,-903.32,500,-0.79,-1.13,-2.05,-391.51,6416,0,64,32.0069,-4.71997,-390.794,-12876.9,-47171.2,-3081.61,-120.706,32.9509,0
32111,799.16,769.15,753.77,759.57,770.41,-33.2,-897.46,501.46,1.15,-0.11,-1.12,-392.23,6423,0,64,31.3794,-4.2131,-380.183,-13886.1,-45599,-3174.55,-119.94,36.525,0
32146,799.01,769.17,753.82,759.65,770.41,-37.11,-896,507.81,0.79,2.74,-2.6,-391.69,6430,0,64,30.8266,-3.30561,-370.17,-15038.6,-44157.4,-3336.88,-119.289,40.6264,0
32184,798.91,769.13,753.87,759.55,770.36,-38.57,-896,487.3,0.31,0.44,-0.05,-388.15,6438,0,64,30.4628,-0.869884,-360.788,-16938.8,-42654.4,-3760.19,-118.225,46.9498,0
32219,798.48,769.09,753.94,759.57,770.27,-38.09,-892.09,497.07,-0.79,1.79,-0.24,-384.98,6445,0,64,30.841,0.964066,-353.703,-18455.1,-41438,-4043.96,-117.155,52.1773,0
32254,797.97,768.96,753.81,759.59,770.08,-38.09,-905.27,501.46,0.01,-2.05,-1.24,-385.73,6452,0,64,30.9786,1.938,-348.184,-19347.8,-40604.6,-4352.76,-116.618,55.5679,0
32289,797.71,768.89,753.88,759.56,770.01,-27.83,-897.46,495.12,-0.34,-0.24,0.96,-382.01,6459,0,64,30.5588,2.85037,-343.844,-20004.2,-39999.1,-4394.68,-116.329,58.1785,0
32324,797.75,768.87,753.85,759.46,769.98,-34.67,-891.6,510.74,-1.73,-1.18,-0.06,-381.36,6466,0,64,29.8702,3.18518,-339.374,-20331.3,-39431.5,-4414.22,-116.189,59.9082,0
32361,798.15,768.7,753.88,759.39,770.03,-43.95,-897.46,498.05,0.1,-1.09,0.62,-379.61,6473,0,64,29.7824,2.79818,-339.859,-20133.8,-39568.8,-4404.98,-116.427,59.2416,0
32396,798.5,768.67,753.91,759.28,770.09,-26.37,-890.62,501.95,-0.21,0.16,-1.31,-378.34,6480,0,64,30.02,1.90567,-343.994,-19849.5,-40141.9,-4190.17,-116.694,57.7031,0
32431,799.42,768.62,753.82,758.99,770.21,-32.23,-892.09,507.32,-0.82,0.23,0.88,-378.97,6487,0,64,30.001,0.0050387,-348.484,-19382.8,-40773,-4097.31,-117.001,55.6204,0
32466,800.61,768.38,753.77,758.61,770.34,-30.76,-892.09,505.86,-3.26,-0.44,1.51,-376.78,6494,0,64,29.8622,-1.16945,-351.61,-18786.8,-41340.5,-3872.16,-117.575,53.4309,0
32501,801.92,768.44,753.7,758.39,770.61,-38.57,-906.74,506.84,-3.21,1.31,2.44,-380.18,6501,0,64,29.6613,-1.07441,-355.203,-18280.6,-41860.3,-3877.16,-117.849,51.4651,0
32536,803.67,768.49,753.74,758.31,771.05,-34.67,-902.83,486.33,-0.76,2.12,-1.7,-384.45,6508,0,64,29.5845,-1.17272,-360.122,-17711.8,-42649.2,-3824.16,-118.43,49.1828,0
32574,805.1,768.39,753.67,758.14,771.32,-20.51,-904.3,483.89,-1.46,0.76,-0.52,-387.92,6516,0,64,29.2211,-1.58954,-368.948,-16792.9,-44003.5,-3802.06,-119.267,45.5157,0
32609,805.53,768.47,753.68,758.03,771.43,-35.16,-875,490.72,-1.47,0.18,-3.76,-388.04,6523,0,64,29.4365,-1.54856,-371.904,-16343.8,-44376.9,-3867.44,-119.324,43.9462,0
32644,805.81,768.47,753.72,757.95,771.49,-40.04,-898.93,488.28,-2.74,1.42,-0.39,-386.96,6530,0,64,29.2302,-1.0636,-367.298,-16174,-43903.6,-3930.2,-119.531,44.0352,0
32679,806.07,768.61,753.7,757.94,771.58,-32.23,-899.9,492.68,-2.33,-0.12,-1.02,-389.2,6537,0,64,29.0028,-0.270802,-359.38,-16129.3,-42868.5,-4082.97,-119.285,44.8811,0
32714,805.83,768.77,753.78,758.03,771.6,-40.04,-896.48,476.07,-2.56,-0.99,-0.29,-388.97,6544,0,64,28.8203,1.11827,-351.037,-16214.2,-41875.6,-4159.4,-119.291,46.1893,0
32749,804.4,768.88,753.77,758.27,771.33,-36.13,-891.6,475.1,-2.62,-0.74,-0.5,-388.79,6551,0,64,28.5222,2.83604,-344.445,-16260.8,-40918.8,-4415.1,-118.796,47.2086,0
32786,802.82,769.14,753.89,758.57,771.1,-25.88,-899.9,498.54,-2.36,0.58,-0.82,-386.75,6558,0,64,28.8471,3.71625,-337.736,-16353.2,-40023.1,-4556.13,-118.504,48.4199,0
32822,800.45,769.75,753.98,758.9,770.77,-35.16,-895.02,482.91,-3.24,1.75,-3.44,-386.16,6565,0,64,28.4576,4.96999,-332.476,-16360.4,-39327.1,-4542.53,-118.285,49.2076,0
32857,796.78,770.12,753.93,759.12,769.99,-36.62,-905.76,482.91,0.64,-0.05,-0.85,-381.03,6572,0,64,28.3047,4.70015,-329.566,-16092.4,-39026.1,-4535.69,-118.417,48.829,0
32892,794.92,770.16,753.94,758.8,769.46,-16.6,-894.53,500.98,-5.26,3.34,-1.6,-370,6579,0,64,28.2523,4.31053,-325.629,-15714.5,-38552.3,-4383.53,-118.393,48.259,0
32927,793.49,769.85,753.89,758.6,768.96,-38.09,-920.41,473.63,-6.63,1.59,-1.53,-361.1,6586,0,64,28.3526,3.85186,-322.828,-15394.3,-38168.6,-4313.79,-118.232,47.6856,0
32962,793.1,769.62,753.86,758.5,768.77,-10.74,-878.42,496.58,0.47,-3.06,-0.66,-357.03,6593,0,64,28.1998,3.4555,-322.165,-15203.9,-38047.5,-4109.87,-118.1,47.1928,0
33000,794.64,768.72,753.67,757.48,768.63,-47.36,-912.11,476.56,-12.95,0.46,3.5,-344.72,6601,0,64,28.4303,2.92828,-324.826,-14945.6,-38335.5,-4208,-118.019,46.0111,0
33035,794.92,768.69,753.58,757.38,768.64,-61.04,-953.12,404.79,-12.63,2.74,0.1,-346.45,6608,0,64,28.3415,2.50887,-327.055,-14813.1,-38731.7,-4325.12,-118.425,45.2924,0
33070,797.86,769.04,753.62,756.97,769.37,-10.25,-907.23,489.75,-6.18,6.66,0.6,-352.09,6615,0,64,28.5027,2.71116,-330.025,-14887.8,-39068.1,-4350.13,-118.379,45.1113,0
33105,800.09,768.82,753.46,756.38,769.69,-42.97,-937.5,440.92,-9.89,2.15,3.66,-353.45,6622,0,64,28.619,2.57905,-331.609,-14930.7,-39233,-4269.55,-118.311,45.0249,0
33139,806.45,768.84,753.48,756.28,771.26,-70.8,-895.02,462.4,0.26,3.04,0.47,-373.35,6629,0,64,28.8517,2.09867,-333.412,-15006.9,-39427.6,-4312.84,-118.255,45.0101,0
33177,811.31,768.87,753.55,756.34,772.52,-33.2,-929.2,452.15,-0.71,-1.21,-0.81,-389.42,6636,0,64,28.5986,1.42529,-337.221,-14829.1,-39924.4,-4127.65,-118.392,43.9745,0
33212,809.72,768.63,753.43,756.22,772,-27.34,-910.64,462.89,-3.73,-1.74,-1.12,-383.31,6643,0,64,28.9658,0.703919,-342.384,-14877.5,-40659.4,-4008.39,-118.754,43.4528,0
33247,810.85,768.52,753.4,756.19,772.24,-27.83,-932.62,439.45,1.55,2.45,-0.58,-386.66,6650,0,64,28.9753,0.330516,-348.398,-15048.1,-41404.4,-4042.13,-118.842,43.1923,0
33282,811.54,768.64,753.34,755.97,772.37,-42.48,-925.29,485.35,-5.94,-0.91,-1.86,-388.2,6657,0,64,29.6144,-0.196019,-353.927,-15223.9,-42160.5,-4057.17,-119.122,43.0143,0
33316,809.22,769.01,753.39,756.1,771.93,-44.43,-939.45,416.02,-4.29,-0.37,-0.37,-383.73,6664,0,64,29.689,-0.267162,-359.636,-15568.7,-42749.1,-3939.2,-118.867,43.2902,0
33351,811.2,769.7,753.34,756.1,772.59,-44.43,-905.27,473.63,-2.05,5.73,-4.2,-397.43,6671,0,64,30.1517,0.122886,-359.811,-16016,-42854.6,-4185.44,-119.103,44.5122,0
33389,812.1,770.7,753.27,756.17,773.06,-51.27,-912.6,468.75,-6.02,0.5,-2.75,-411.21,6679,0,64,30.209,0.659378,-358.303,-16533.1,-42603,-4214.8,-118.902,46.1428,0
33424,812.48,771.22,753.23,756,773.23,-40.53,-942.38,398.93,-3.34,1.48,-0.22,-415.14,6686,0,64,29.8195,1.09386,-355.475,-16938.2,-42020.5,-4365.37,-118.21,47.6497,0
33459,814.1,771.71,753.21,756.1,773.78,-41.5,-915.04,448.24,-3.79,3.25,-0.74,-426.67,6693,0,64,29.8986,1.25568,-352.078,-17306.4,-41616.3,-4383.68,-118.202,49.155,0
33494,812.4,772.95,753.23,756.35,773.73,-26.86,-921.87,427.25,-3.55,-4.32,-1.44,-434.06,6700,0,64,29.7467,2.30511,-348.954,-17713.4,-41076.8,-4580.2,-117.714,50.7614,0
33529,810.46,773.94,753.33,756.87,773.65,-35.64,-933.11,410.16,-0.75,-1.08,0.17,-440.4,6707,0,64,29.8544,3.35796,-343.321,-18268.1,-40225.4,-4735.53,-117.166,53.21,0
33564,810.28,775.04,753.31,756.97,773.9,-29.3,-925.78,450.68,-0.93,0.43,-1.68,-450.91,6714,0,64,30.519,5.24269,-338.051,-18772.3,-39377.5,-5018.45,-116.484,55.5312,0
33601,810.14,775.67,753.24,756.96,774,-41.02,-932.13,422.85,-3.52,-0.37,-0.09,-456.97,6721,0,64,30.47,6.02774,-332.449,-18961.9,-38803.3,-5052.45,-116.72,57.0371,0
33637,808.83,776.05,753.28,757.13,773.82,-30.27,-936.52,423.34,-3.95,-0.62,-1.7,-456.9,6728,0,64,29.2225,5.3581,-330.734,-18430.9,-38698.3,-4882.42,-117.007,55.7273,0
33672,807.15,775.83,753.32,757.39,773.42,-42.48,-941.41,419.43,0.44,-2.25,-2.33,-452.33,6735,0,64,28.642,3.20453,-335.94,-17567.5,-39546.8,-4500.3,-117.72,52.2941,0
33707,806.43,775.54,753.41,757.66,773.26,-35.16,-938.96,435.55,3.31,-1.35,-0.47,-449.22,6742,0,64,28.9034,1.30445,-344.543,-16330.5,-40840.6,-3971.86,-118.536,47.3979,0
33742,804.46,775.15,753.52,757.69,772.7,-35.64,-928.22,439.45,1.54,-5.61,1.02,-437.05,6749,0,64,28.9693,-0.0561401,-354.909,-14949.4,-42330.4,-3670.17,-119.271,42.1221,0
33777,802.99,774.98,753.49,757.75,772.3,-40.53,-924.32,423.34,-2.19,-0.03,-0.27,-432.23,6756,0,64,29.1126,-1.18348,-362.049,-13748.4,-43387.8,-3437.49,-119.84,37.974,0
33815,801.98,774.9,753.48,757.53,771.97,-21.48,-931.15,427.25,0.63,0.76,0.73,-425.21,6764,0,64,29.455,-2.30546,-369.812,-12239.6,-44601.3,-2860.34,-120.606,33.0972,0
33850,802.4,774.35,753.39,757.17,771.83,-28.32,-935.06,420.41,0.6,1.44,0.42,-418.99,6771,0,64,30.571,-3.22572,-377.303,-11216,-45597.5,-2672.32,-120.851,29.7268,0
33885,803.09,773.57,753.43,757.09,771.79,-41.5,-939.94,428.71,4.17,-0.44,-2.99,-412.9,6778,0,64,31.447,-3.41725,-387.338,-10356.6,-46833.2,-2480.8,-120.91,26.7383,0
33920,803,772.98,753.37,756.9,771.56,-27.83,-918.46,461.43,-1.31,1.25,-0.2,-406.65,6785,0,64,32.0604,-3.55763,-399.987,-9476.09,-48500.8,-2255.92,-121.256,23.6911,0
33955,803.15,772.59,753.34,756.92,771.5,-39.06,-919.92,415.53,-0.56,-2.82,1.49,-405.23,6792,0,64,32.1476,-3.10505,-403.216,-8825.14,-49073,-2162.4,-121.704,21.8869,0
33993,803.99,772.3,753.44,756.71,771.61,-43.95,-933.59,432.62,-1.15,-3.24,-0.68,-400.01,6800,0,64,31.8707,-1.51871,-397.78,-8441.49,-48396.3,-2221.33,-121.666,21.2215,0
34028,804.05,771.99,753.4,756.47,771.48,-28.32,-922.36,444.82,-0.48,0.52,-4.4,-395.33,6807,0,64,30.9301,-0.673587,-382.595,-8269.01,-46405.5,-2239.7,-121.291,21.6131,0
34063,805.28,771.79,753.4,756.43,771.73,-41.02,-927.73,431.15,1.85,-1.67,-0.06,-397.22,6814,0,64,29.0671,-0.703451,-356.447,-7436.61,-43204.3,-1964.56,-121.208,20.8625,0
34098,806.15,772.14,753.57,756.26,772.03,-42.97,-937.99,425.78,-2.33,-0.52,-1.08,-396.36,6821,0,64,26.209,-2.90363,-332.363,-4811.14,-40616.8,-1159.81,-122.207,14.474,0
34133,806.9,772.5,753.47,756.26,772.29,-34.18,-925.78,428.22,-2.09,-1.58,1.69,-404.23,6828,0,64,24.034,-3.17366,-312.845,-1837.58,-38636.1,-624.912,-123.5,5.87214,0
34168,807.87,772.69,753.51,756.1,772.54,-46.88,-935.55,445.31,-0.19,1.12,-0.89,-405.95,6835,0,64,20.717,-6.69618,-281.779,1345.13,-35182,200.978,-124.857,-4.77631,0
34206,808.36,773.05,753.46,756.03,772.72,-41.02,-924.32,437.5,0.28,0.73,-0.44,-410.43,6842,0,64,17.784,-3.18789,-265.197,3963.63,-33602.9,245.01,-126.709,-14.9451,0
34241,808.18,773.12,753.47,755.93,772.67,-46.88,-928.71,422.36,0.63,-0.1,-0.02,-408.84,6849,0,64,17.8919,-9.64921,-278.911,7696.16,-35790.6,1192.29,-128.322,-27.5925,0
34276,807.47,772.83,753.55,756,772.46,-58.59,-937.5,413.57,-2.53,-0.44,-1.61,-403.2,6856,0,64,18.741,-11.4905,-288.124,10175.8,-37289,1692.19,-129.42,-35.317,0
34311,805.37,772.74,753.58,756.21,771.98,-29.79,-918.46,441.41,2.15,1.24,-0.12,-397.43,6863,0,64,21.6305,-12.2879,-294.102,11697.4,-38076.9,1923.24,-129.468,-39.7733,0
34346,803.48,772.54,753.78,756.42,771.56,-40.53,-950.68,415.53,7.08,3.44,-1.28,-387.44,6870,0,64,22.9426,-11.8815,-306.003,12132.7,-39574.4,1938.42,-129.326,-39.6499,0
34381,802.8,772.25,753.95,756.3,771.32,-21.97,-909.67,444.34,3.56,1.23,-0.82,-376.8,6877,0,64,21.6607,-10.4631,-320.503,11682.2,-41567,1552.06,-129.693,-36.4494,0
34419,802.79,772.23,753.96,756.38,771.34,-43.95,-922.36,430.18,6.6,-1.3,-3.26,-377.77,6885,0,64,19.3156,-12.3387,-305.658,9868.33,-39498.6,1500.62,-129.225,-32.2865,0
34454,803.58,772.48,753.98,756.76,771.7,-34.67,-932.13,437.99,8.56,2.17,-2.59,-387.46,6892,0,64,19.1499,-7.91966,-333.766,8579.49,-42849,635.439,-128.38,-25.7063,0
34489,803.74,772.57,754.16,756.77,771.81,-48.83,-912.11,445.8,3.32,0.32,-1.15,-384.26,6899,0,64,19.4931,-6.11137,-348.664,7697.68,-44666.7,58.4433,-128.108,-22.0775,0
34524,803.25,772.31,754.02,756.77,771.59,-63.48,-929.69,459.96,1.34,0.64,-1.79,-384.17,6906,0,64,17.9928,-8.98167,-341.716,6821.42,-43375.6,76.9534,-126.935,-19.9625,0
34559,803.13,771.69,753.99,756.67,771.37,-41.02,-919.43,456.05,0.41,-1.98,-0.02,-377.93,6913,0,64,18.3796,-7.22162,-354.956,5864.43,-44904.7,-779.48,-126.508,-16.5215,0
34594,802.58,770.97,753.89,756.61,771.01,-35.64,-918.46,452.15,0.73,-1.16,0.29,-372.01,6920,0,64,19.7142,-8.13261,-358.236,5161.47,-44876.6,-1139.12,-125.271,-14.4078,0
34632,801.46,770.4,753.86,756.82,770.63,-39.55,-925.29,437.5,3.73,-3.8,2.18,-367.33,6927,0,64,20.9997,-7.4643,-352.956,4405.71,-43750.6,-1552.76,-123.955,-12.4823,0
34667,799.96,769.98,753.84,757.14,770.23,-23.93,-916.99,471.19,8.36,-2.4,-1.55,-363.86,6934,0,64,20.2229,-8.25926,-362.992,4522.42,-45065.4,-1534.5,-124.15,-12.4588,0
34702,797.4,769.5,753.76,757.24,769.48,-23.93,-909.67,475.1,6.69,-2.56,-0.74,-354.77,6941,0,64,17.88,-6.38798,-358.055,3966.93,-44545.9,-1922.66,-124.411,-11.0791,0
34737,793.1,769.15,753.72,757.62,768.4,-46.39,-906.74,494.14,2.33,-5.59,0.62,-343.72,6948,0,64,13.1628,-4.63244,-356.678,4156.68,-44808.4,-2217.89,-125.627,-11.6535,0
34772,787.9,768.82,753.76,757.78,767.06,-61.52,-890.62,430.18,1.06,-2.5,0.33,-324.6,6955,0,64,5.58178,-8.73485,-359.663,5825.39,-46085.3,-1724.28,-128.135,-16.1969,0
34810,784.79,768.55,753.69,757.83,766.22,-28.32,-906.25,458.01,4.58,-2.6,0.98,-314.4,6963,0,64,0.321353,-8.36164,-355.157,6419.83,-46002.9,-2111.54,-129.529,-18.076,0
34845,783.64,768.74,753.66,758.14,766.04,-36.13,-939.94,440.92,4.62,1.99,1.18,-317.22,6970,0,64,-2.21911,-11.1386,-361.364,6779.58,-46984.3,-1817.55,-130.019,-18.7611,0
34880,784.62,768.66,753.87,758.84,766.5,-35.64,-933.59,450.68,16.53,-5.61,0.52,-325.21,6977,0,64,-7.97537,-16.6336,-360.716,6454.4,-47191.5,-1051.45,-130.827,-17.8933,0
34915,788.58,769.21,754.11,759.77,767.92,-40.04,-890.62,489.75,19.03,-1.89,0.43,-350.6,6984,0,64,-7.37538,-9.15056,-363.053,4472.11,-47213.7,-2208.79,-130.046,-12.3183,0
34949,791.74,769.97,754.18,759.99,768.97,-35.64,-875.49,531.74,5.88,-4.84,-0.45,-369.15,6991,0,64,-4.78235,-4.42678,-361.079,2155.52,-46164.2,-2644,-127.851,-5.96963,0
34984,791.89,770.39,754.01,759.73,769,-31.25,-892.58,511.72,-1.96,1.31,-2.83,-373.33,6998,0,64,-6.36644,-3.16407,-367.452,651.861,-46538.6,-2552.94,-126.652,-1.77395,0
35021,792.23,770.64,753.97,759.87,769.18,-37.6,-885.25,495.12,0.18,1.1,1.63,-379.68,7005,0,64,-7.00241,-2.06707,-364.285,100.776,-45986.8,-2685.51,-126.239,-0.276645,0
35056,791.34,771.52,754.34,761.24,769.61,-59.08,-916.99,438.48,7.4,-3.14,-2.83,-394.71,7012,0,64,-7.8699,-1.51957,-365.339,-161.853,-46080.8,-2738.01,-126.131,0.44302,0
35091,787.57,772.34,754.8,762.73,769.36,-28.32,-884.77,518.55,11.28,-1.63,-2.66,-398.74,7019,0,64,-8.62049,-3.79268,-362.14,-68.3112,-45692.5,-2631.51,-126.174,0.188617,0
35126,783.98,772.82,755.07,763.47,768.83,-23.93,-876.46,521,2.44,0.3,-3.12,-394.43,7026,0,64,-7.65028,-6.06247,-359.92,-143.893,-45099.5,-2220.93,-125.304,0.399808,0
35161,782.31,773.54,755.06,763.82,768.69,-18.07,-884.77,504.88,0.42,0.37,0.63,-399.86,7033,0,64,-7.67352,-3.93258,-359.056,-996.471,-44714.9,-2580.3,-124.535,2.77517,0
35196,782.7,773.94,755.11,764.13,768.97,-34.67,-905.76,486.33,3.6,-0.69,-1.28,-407.91,7040,0,64,-5.86493,-3.10369,-355.682,-1553.3,-43911.8,-3048.16,-123.458,4.36707,0
35233,783.37,773.51,755.04,764.04,768.99,-20.02,-889.65,495.12,3.02,-0.67,-1.16,-406.94,7048,0,64,-4.28938,-4.62806,-349.722,-1070.51,-43050.1,-2814.06,-123.098,3.06108,0
35268,784.19,773.13,754.84,763.91,769.02,-22.46,-881.84,511.23,0.09,-2.63,-0.65,-409.93,7055,0,64,-5.94233,-3.82169,-347.999,-1188.23,-42917.7,-3064.15,-123.327,3.4145,0
35303,784.93,772.87,754.89,763.71,769.1,-38.09,-885.25,494.14,-0.08,-0.09,0.62,-406.04,7062,0,64,-5.61321,-2.31631,-351.867,-1043.97,-43413.7,-3365.92,-123.381,2.96703,0
35338,785.62,772.87,754.77,763.77,769.26,-36.13,-894.53,506.35,1.05,0.05,0.3,-412.28,7069,0,64,-7.64866,-3.11376,-353.229,-216.038,-43863.3,-3240.59,-124.178,0.61167,0
35373,786.14,772.88,754.82,763.79,769.41,-25.88,-896.48,501.46,2.24,-0.44,-1.4,-413.35,7076,0,64,-9.04519,-3.04717,-348.483,431.05,-43344.9,-3008.19,-124.382,-1.23678,0
35408,786.99,772.86,754.76,763.67,769.57,-25.39,-882.81,513.67,0.58,-0.5,-0.63,-415.89,7083,0,64,-9.45278,-4.78747,-354.636,1563.09,-44290.6,-2898.16,-124.89,-4.40745,0
35446,788.13,772.81,754.68,763.38,769.75,-33.69,-878.42,514.65,-0.46,1.07,0.65,-417,7090,0,64,-11.195,-5.07456,-360.925,2471.5,-45445.2,-3095.56,-125.913,-6.84773,0
35480,788.88,772.72,754.61,763.11,769.83,-26.37,-889.65,502.93,-0.18,-0.63,-2.46,-416.56,7097,0,64,-10.292,-5.54263,-365.136,3587.79,-46005.7,-3138.22,-125.996,-9.82582,0
35515,789.44,772.67,754.54,763.09,769.93,-51.27,-892.58,498.05,0.42,1.18,-3.42,-419.51,7104,0,64,-11.4256,-9.09338,-371.662,4770.89,-46988.8,-2544.75,-126.429,-12.8365,0
35550,789.94,772.66,754.61,762.96,770.04,-42.97,-890.62,506.84,1.47,0.78,-0.7,-417.51,7111,0,64,-10.5822,-7.95089,-368.339,4958.88,-46490.5,-2732.46,-126.217,-13.4629,0
35585,790.38,772.46,754.55,763.02,770.1,-24.9,-893.55,496.09,0.5,2.32,-0.96,-419.93,7118,0,64,-9.48657,-9.22104,-368.234,5732.38,-46594.7,-2350.28,-126.536,-15.5672,0
35620,790.95,772.29,754.53,763.01,770.19,-26.86,-891.11,485.35,1.44,-0.44,-1.08,-420.63,7125,0,64,-9.63397,-8.93828,-364.773,5781.06,-46259.5,-2503.24,-126.817,-15.8482,0
35658,791.47,772.01,754.52,763.01,770.25,-51.27,-891.6,511.72,-0.45,-1.2,0.98,-420.54,7133,0,64,-5.2702,-8.45542,-349.198,5024.27,-44037.6,-2656.02,-126.111,-14.388,0
35693,792.08,771.77,754.48,763.03,770.34,-24.9,-885.25,507.32,0.69,0.02,1.72,-422.1,7140,0,64,-3.70536,-5.18947,-354.895,4071.15,-44491.4,-3469.02,-125.365,-11.4714,0
35728,792.93,771.49,754.52,763.06,770.5,-24.9,-899.9,503.42,-0.09,-1.92,0.18,-422.18,7147,0,64,-0.201774,-4.67618,-352.24,3586.92,-44028.8,-3978.93,-124.997,-10.1832,0
35763,793.26,771.3,754.47,762.98,770.5,-42.48,-888.67,516.11,1.69,-0.14,1.26,-421.88,7154,0,64,1.36181,-6.18493,-353.225,3830.5,-44273.6,-3878.85,-125.341,-10.8443,0
35798,793.24,771.09,754.43,762.81,770.39,-40.04,-881.84,507.32,-2.43,-0.81,-0.13,-418.61,7161,0,64,3.24431,-1.68588,-350.737,2168.7,-43988.7,-4525.43,-125.418,-6.18284,0
35835,793.45,770.75,754.48,762.65,770.33,-41.02,-882.32,507.32,-1.51,-0.76,1.92,-413.02,7168,0,64,5.05447,-0.278055,-339.982,695.568,-42483.4,-4812.09,-124.958,-2.0459,0
35870,794.11,770.51,754.39,762.3,770.33,-38.57,-887.7,513.18,0.83,-0.12,-0.05,-410.44,7175,0,64,7.74071,-2.67704,-339.044,1483.81,-42441.2,-4394.75,-125.179,-4.37646,0
35905,794.82,770.31,754.3,762.23,770.42,-29.3,-894.53,501.95,-2.11,0.78,0.01,-412.51,7182,0,64,10.3618,-2.7562,-331.641,1092.71,-41406.9,-4332.79,-124.854,-3.295,0
35940,795.52,770.29,754.23,762.09,770.53,-28.32,-893.07,506.35,-1.27,0.83,-1.69,-414.2,7189,0,64,14.4318,0.250369,-330.972,-180.197,-41024,-4626.64,-123.95,0.544499,0
35975,796.31,770.16,754.2,761.88,770.64,-32.71,-877.44,499.51,1.62,1.38,-0.62,-413.65,7196,0,64,18.5356,1.5384,-327.849,-849.946,-40406.1,-4740.9,-123.246,2.59249,0
36010,797.47,769.92,754.17,761.76,770.83,-31.25,-896.48,515.14,-0.5,-1,-0.18,-414.6,7203,0,64,21.4568,1.37608,-318.811,-1403.18,-39125.1,-4255.54,-122.722,4.40146,0
36047,798.92,769.76,754.14,761.55,771.09,-35.16,-884.28,502.44,-1.15,0.56,1.34,-416.07,7210,0,64,24.6626,3.11648,-312.562,-2051.16,-38046,-4237.36,-121.723,6.5624,0
36082,799.78,769.76,754.06,761.44,771.26,-36.13,-892.09,498.54,-1.79,0.82,-0.18,-419.43,7217,0,64,26.7869,4.19302,-304.511,-2765.28,-36922,-4329.13,-121.25,9.08172,0
36117,800.37,769.76,754.06,761.32,771.38,-36.13,-902.34,499.51,-0.43,1.98,-1.21,-419.65,7224,0,64,28.614,5.73009,-283.977,-3793.62,-33980.2,-4494.82,-119.658,13.3593,0
36152,800.94,769.72,753.96,761.08,771.43,-30.76,-889.16,502.93,-0.63,1.96,-1.27,-420.31,7231,0,64,29.0848,3.62329,-270.216,-3944.61,-31999.1,-4118.37,-118.42,14.598,0
36187,801.37,769.69,753.97,760.95,771.5,-37.11,-895.02,498.54,-0.53,-0.25,0.74,-419.15,7238,0,64,30.0232,3.27478,-267.742,-4738.29,-31543.2,-3990.46,-117.812,17.6972,0
36222,801.44,769.72,753.92,760.88,771.49,-49.8,-894.53,501.46,-3.93,-1.2,-1.15,-420.03,7245,0,64,31.6432,2.21114,-271.611,-5160.52,-31748.7,-3878.81,-116.89,18.9997,0
36259,801.34,769.75,753.96,760.78,771.46,-29.3,-879.39,491.7,-0.73,1.79,-0.08,-417.56,7253,0,64,32.7417,-0.752477,-281.739,-4850.92,-33012.5,-3274.69,-117.174,17.218,0
36294,801.29,769.79,753.96,760.71,771.44,-29.79,-894.53,503.42,-1.24,1.2,-2.85,-416.58,7260,0,64,30.7222,-0.368024,-298.551,-4525.27,-35389.8,-3151.24,-118.538,15.1578,0
36328,801.26,769.76,753.94,760.61,771.39,-52.25,-892.09,491.21,-0.37,1.24,-2.08,-415.22,7267,0,64,26.3255,3.12278,-318.047,-3761.1,-38714.2,-3543.53,-121.725,11.8259,0
36363,801.1,769.75,753.97,760.61,771.36,-27.83,-887.21,500.49,-0.14,-0.66,-0.41,-413.9,7274,0,64,25.5638,4.73455,-328.373,-2612.33,-40152.5,-3690.03,-122.277,7.95537,0
36397,801.1,769.71,753.91,760.53,771.31,-45.9,-890.62,491.21,-1.21,-1.05,-0.22,-413.84,7280,0,64,27.508,-0.35124,-332.051,-1358.7,-40234,-3125.32,-121.168,4.09226,0
36432,801.4,769.63,753.86,760.53,771.35,-39.06,-891.11,495.61,-1.1,0.27,0.23,-415.6,7287,0,64,28.2351,-20.4325,-343.607,117.515,-41199.2,-428.318,-119.902,-0.341901,0
36470,801.58,769.61,753.86,760.6,771.41,-37.11,-901.86,500.98,-0.01,0.11,-2.4,-416.89,7295,0,64,31.1825,-16.8444,-361.966,-1386.31,-43280.9,-654.549,-119.572,3.82953,0
36505,801.68,769.55,753.91,760.56,771.43,-43.95,-907.23,503.42,-0.06,-0.69,1.11,-414.98,7302,0,64,30.2341,3.31318,-363.56,-5504.28,-43700,-3464.43,-120.2,15.1405,0
36539,801.94,769.46,753.83,760.61,771.46,-40.04,-893.55,499.51,1.08,0.82,1.11,-417.99,7309,0,64,28.1931,9.09937,-353.594,-7993.17,-42482.3,-4489.84,-120.144,22.6056,0
36575,802.14,769.53,753.92,760.56,771.54,-44.43,-896.97,498.05,0.64,-0.11,0.56,-416.25,7316,0,64,28.8187,9.16262,-358.932,-9448.48,-42928.2,-4816.36,-119.6,26.3238,0
36609,802.39,769.52,753.89,760.57,771.59,-47.85,-887.7,497.07,-0.55,-0.84,2.44,-417.87,7323,0,64,29.8867,5.30722,-370.242,-10200.1,-44261.3,-4544.28,-119.547,27.5499,0
36647,802.65,769.46,753.89,760.6,771.65,-41.5,-897.46,486.82,0.4,2.68,-2.38,-418.73,7330,0,64,30.7987,2.04571,-377.21,-10766.8,-45090.7,-3912.34,-119.537,28.5432,0
36681,803.04,769.5,753.93,760.59,771.76,-29.79,-897.46,491.21,0.02,-2.46,0.91,-419.11,7337,0,64,31.2779,2.1265,-380.836,-11880.7,-45538.3,-4008.5,-119.575,31.1963,0
36716,803.38,769.47,753.88,760.71,771.86,-47.36,-896,504.88,1.48,-1.31,0.21,-423.21,7344,0,64,31.2939,2.47755,-385.703,-12945.9,-45978,-4049.42,-119.206,33.5644,0
36751,803.59,769.61,753.97,760.8,771.99,-33.2,-896.48,501.46,0.31,0.29,-1.84,-424.22,7351,0,64,31.422,2.10002,-393.101,-13952.5,-46924.1,-4249.03,-119.369,35.4932,0
36786,803.54,769.56,753.92,760.76,771.94,-35.64,-896,500,-0.46,1.91,-0.72,-424.28,7358,0,64,31.3884,1.88786,-395.939,-15383.3,-47109.9,-4306.44,-118.983,38.8527,0
36821,803.3,769.53,753.94,760.73,771.87,-49.8,-896.97,494.63,-1.74,-0.45,-0.68,-422.21,7365,0,64,31.341,1.04837,-393.009,-16493.6,-46670.9,-4098.23,-118.753,41.9676,0
36858,803.29,769.6,753.95,760.86,771.92,-34.18,-887.7,511.23,-1.89,-0.72,-2.11,-424.46,7373,0,64,31.0482,1.0947,-384.848,-17699.2,-45576.4,-4097.9,-118.427,45.9903,0
36893,803.14,769.63,754,760.83,771.9,-41.99,-887.7,500.49,1.02,-0.84,-1.47,-422.51,7380,0,64,29.9738,2.0115,-374.823,-19029.3,-44284.7,-4144.62,-118.148,50.7691,0
36928,803.09,769.54,753.96,760.9,771.88,-37.6,-890.14,501.46,1.21,-1.62,-1.66,-423.52,7387,0,64,29.9128,3.40375,-364.901,-19926.8,-42943.4,-4394.74,-117.685,54.6087,0
36963,802.74,769.39,753.94,760.8,771.72,-29.79,-894.04,496.58,0.42,-1.04,0.29,-420.12,7394,0,64,29.8786,4.47793,-357.36,-20548.2,-41921.2,-4396.52,-117.308,57.5001,0
36998,802.63,769.46,753.97,760.88,771.74,-27.34,-881.84,500.98,-1.08,1.57,-0.32,-420.67,7401,0,64,29.5897,5.11388,-351.392,-20819.5,-41217.8,-4332.54,-117.299,59.2487,0
37033,802.5,769.43,753.92,760.78,771.66,-39.06,-900.88,503.42,-1.03,-0.24,-1.34,-419.66,7408,0,64,28.7166,4.72157,-346.289,-20684.7,-40672.1,-4289.38,-117.451,59.7324,0
37070,802.21,769.41,753.91,760.85,771.59,-34.18,-888.18,505.86,0.08,3.19,-1.76,-420.06,7415,0,64,27.6331,4.43153,-344.635,-20056.6,-40572,-4079.53,-117.725,58.1967,0
37105,801.97,769.47,753.98,760.73,771.54,-23.44,-881.84,492.68,0.03,-0.6,-1.57,-416.05,7422,0,64,28.1367,3.249,-348.206,-19097.4,-41228.5,-3922.22,-118.403,54.8452,0
37140,802.24,769.59,753.92,760.8,771.64,-35.16,-882.81,502.44,-0.05,0.6,-1.44,-420.49,7429,0,64,28.7187,2.13348,-351.41,-18160.8,-41762.8,-3879.13,-118.844,51.6799,0
37175,802.23,769.77,753.98,760.88,771.72,-35.16,-893.55,502.44,0.23,3.49,-1.96,-421.63,7436,0,64,28.5352,0.287341,-353.306,-16995.2,-42146.7,-3461.3,-119.292,48.1034,0
37209,802.28,769.86,753.98,760.88,771.75,-43.95,-889.65,511.23,0.5,-0.34,-2.1,-422.46,7443,0,64,27.7179,-1.23773,-356.159,-16074.9,-42639.6,-3362.22,-119.721,45.134,0
