currTime,s1,s2,s3,s4,s,AccX,AccY,AccZ,GyroX,GyroY,GyroZ,GRF
26,784.47,769.67,753.85,770.36,769.59,-26.86,-879.88,530.76,-0.54,-1.00,-0.44,-502.62
60,784.39,769.61,753.90,770.43,769.58,-34.18,-866.21,521.00,-0.08,2.08,-1.29,-501.57
94,784.24,769.61,753.88,770.41,769.54,-37.60,-871.58,532.23,3.48,-3.04,-0.32,-501.37
127,784.09,769.59,753.93,770.44,769.51,-32.71,-875.98,516.11,-0.34,1.11,2.37,-499.84
161,783.94,769.65,753.90,770.53,769.51,-37.60,-866.21,526.86,-1.47,0.40,-1.33,-501.80
195,783.78,769.65,753.97,770.63,769.51,-30.27,-874.02,531.25,0.64,0.64,-1.65,-501.05
233,783.55,769.66,753.97,770.72,769.48,-34.18,-883.30,526.86,-0.18,-0.15,0.82,-501.66
268,783.46,769.69,753.98,770.65,769.45,-32.71,-863.28,532.23,-0.50,1.11,-2.31,-500.35
303,783.30,769.65,753.99,770.71,769.41,-40.04,-864.26,529.30,0.24,1.72,-1.76,-500.16
337,783.14,769.63,754.00,770.63,769.35,-36.62,-874.51,541.02,-0.08,-0.94,-0.27,-498.08
372,783.02,769.62,753.96,770.70,769.32,-36.62,-880.86,530.27,0.29,0.06,1.08,-499.57
407,783.01,769.60,753.97,770.70,769.32,-45.41,-866.70,531.25,0.34,1.25,-1.29,-498.93
444,782.83,769.58,753.99,770.69,769.27,-27.83,-878.91,529.30,-0.10,-0.67,0.07,-497.81
479,782.63,769.50,754.00,770.65,769.19,-41.02,-880.37,544.92,-0.15,0.18,-0.17,-495.47
514,782.49,769.59,753.99,770.65,769.18,-41.02,-870.12,532.71,-0.09,0.76,-1.53,-496.02
549,782.38,769.57,753.95,770.69,769.15,-36.13,-874.51,540.53,-0.34,0.96,0.30,-497.06
584,782.31,769.54,753.93,770.78,769.14,-37.60,-873.05,533.69,0.99,1.15,-0.97,-498.31
618,782.11,769.66,754.02,770.77,769.14,-37.11,-872.56,529.79,0.41,-0.58,-2.15,-496.34
656,782.01,769.60,753.99,770.82,769.10,-33.69,-864.75,531.25,-3.11,-1.50,-0.69,-496.81
691,781.89,769.62,753.92,770.80,769.06,-35.64,-871.58,543.46,-1.12,-0.53,-1.76,-498.26
725,781.78,769.64,754.00,770.78,769.05,-30.76,-873.05,529.30,0.53,2.43,-0.57,-495.61
761,781.69,769.58,753.96,770.79,769.01,-23.93,-874.02,537.60,0.30,-0.15,-1.21,-495.87
795,781.68,769.61,753.97,770.78,769.01,-41.99,-879.88,528.32,0.27,-2.04,1.40,-495.91
833,781.48,769.60,754.03,770.72,768.96,-34.18,-876.46,519.53,-1.76,-0.49,-1.18,-492.68
868,781.38,769.61,753.94,770.58,768.88,-28.32,-859.37,526.37,0.48,0.44,-0.76,-492.53
903,781.40,769.50,753.99,770.57,768.87,-43.46,-875.00,547.36,1.40,-0.93,-0.48,-490.23
938,781.58,769.58,753.96,770.52,768.91,-31.25,-877.44,539.06,-0.33,-0.05,-3.95,-491.64
973,781.70,769.57,753.98,770.56,768.95,-44.43,-872.07,528.81,-0.05,-1.22,0.57,-491.89
1008,781.83,769.60,753.93,770.46,768.96,-42.97,-874.02,538.57,0.07,-1.81,0.04,-492.42
1045,781.85,769.56,753.97,770.35,768.93,-38.57,-877.93,526.86,1.27,1.23,3.22,-489.64
1080,781.98,769.56,753.91,770.33,768.94,-28.81,-889.16,532.23,0.08,0.97,-1.21,-491.25
1115,782.12,769.57,753.99,770.22,768.98,-36.13,-870.61,525.39,-0.91,1.88,-0.40,-488.23
1150,782.28,769.58,753.96,770.22,769.01,-30.27,-878.91,540.04,0.69,-0.05,-2.11,-489.49
1185,782.42,769.59,753.95,770.13,769.02,-41.99,-876.46,538.57,0.32,-0.82,-3.40,-489.13
1220,782.60,769.63,753.99,770.11,769.08,-31.25,-875.49,528.81,-0.03,3.31,0.30,-488.66
1258,782.76,769.50,753.95,770.05,769.07,-27.83,-868.16,524.41,-1.59,-0.82,1.29,-488.26
1293,782.93,769.49,753.94,769.94,769.08,-40.04,-883.30,521.00,-0.64,1.75,-0.68,-487.55
1328,782.96,769.52,753.96,769.90,769.08,-34.18,-873.54,517.09,-0.71,-0.63,-1.00,-486.62
1363,783.18,769.59,753.93,769.81,769.13,-35.16,-868.16,528.81,-0.06,0.04,-0.58,-487.48
1398,783.18,769.56,753.90,769.75,769.10,-32.71,-885.74,525.88,-0.57,1.72,-3.53,-487.13
1433,783.28,769.53,753.88,769.72,769.10,-27.83,-875.49,534.67,0.22,0.63,1.34,-487.39
1471,783.34,769.48,753.89,769.54,769.06,-31.74,-861.82,531.74,-2.58,-0.76,-0.63,-484.18
1506,783.46,769.43,753.90,769.44,769.06,-37.11,-877.93,529.30,-1.47,1.32,-1.44,-482.45
1541,783.57,769.51,753.84,769.43,769.09,-39.55,-887.70,523.93,-0.75,-1.18,1.98,-484.95
1576,783.73,769.48,753.83,769.33,769.09,-37.11,-877.93,533.69,0.32,-1.19,-0.40,-484.01
1611,783.79,769.40,753.81,769.28,769.07,-40.53,-874.51,531.25,-1.32,1.47,-1.15,-483.32
1646,783.92,769.36,753.78,769.38,769.11,-39.06,-873.54,538.57,-0.27,-1.57,-0.37,-485.42
1683,784.10,769.33,753.76,769.32,769.13,-41.50,-879.88,527.34,-1.02,1.29,-0.60,-485.59
1719,784.27,769.32,753.84,769.29,769.18,-37.11,-875.49,521.48,0.58,-1.58,1.36,-483.71
1754,784.45,769.43,753.83,769.31,769.26,-39.06,-879.39,535.64,-0.31,1.24,-2.08,-485.69
1788,784.44,769.39,753.87,769.31,769.25,-37.60,-866.70,544.43,0.21,1.03,-1.07,-484.27
1823,784.54,769.27,753.86,769.40,769.27,-27.83,-876.46,523.44,-0.18,0.50,0.31,-485.34
1858,784.53,769.42,753.85,769.40,769.30,-30.76,-864.26,534.18,-1.05,-1.92,-0.43,-486.63
1896,784.54,769.36,753.81,769.35,769.26,-43.46,-880.37,522.46,0.53,-1.53,0.38,-486.53
1931,784.57,769.34,753.87,769.43,769.30,-37.60,-876.95,529.79,1.55,0.40,1.44,-486.00
1966,784.37,769.46,753.82,769.47,769.28,-44.43,-873.05,527.83,-1.45,2.07,1.01,-488.24
2000,784.35,769.43,753.83,769.51,769.28,-28.32,-871.58,528.81,0.35,-1.63,1.88,-488.40
2035,784.40,769.42,753.87,769.56,769.31,-36.13,-878.42,529.30,-0.18,1.67,-0.90,-488.26
2070,784.46,769.50,753.85,769.55,769.34,-37.11,-888.18,527.34,2.12,0.51,-1.08,-489.34
2108,784.55,769.50,753.91,769.62,769.39,-36.62,-865.72,529.79,0.27,2.76,-0.40,-489.17
2143,784.53,769.60,753.92,769.72,769.44,-29.79,-869.63,521.48,-1.46,-1.69,1.21,-491.01
2177,784.48,769.70,753.93,769.74,769.46,-33.20,-888.67,524.41,-0.59,4.85,0.36,-491.68
2212,784.33,769.71,753.95,769.86,769.46,-20.51,-872.07,519.04,-0.33,0.89,-0.88,-492.74
2247,784.22,769.83,753.85,770.03,769.48,-43.46,-875.98,526.37,1.24,-1.07,-2.34,-498.12
2284,784.19,769.90,753.89,770.10,769.52,-26.37,-869.63,535.64,-0.78,-0.92,-0.24,-498.67
2319,784.11,769.90,753.96,770.16,769.53,-35.16,-878.91,536.13,0.04,0.56,-0.22,-497.45
2355,784.19,769.83,754.00,770.23,769.56,-30.27,-872.07,537.11,-0.76,-2.19,-2.85,-497.40
2390,784.22,769.91,753.90,770.21,769.56,-37.11,-893.07,537.60,-2.02,-0.37,-1.61,-500.23
2425,784.19,769.90,753.94,770.29,769.58,-26.86,-875.98,527.34,-0.15,0.06,0.18,-500.13
2460,784.11,769.93,753.97,770.22,769.56,-39.06,-877.93,529.79,-0.08,-0.85,2.21,-498.37
2497,784.12,769.96,753.97,770.31,769.59,-26.86,-874.02,535.16,1.37,0.53,-1.50,-500.15
2532,784.00,769.95,753.92,770.24,769.53,-33.69,-877.93,528.32,-1.28,3.98,-0.15,-499.85
2567,783.90,769.94,753.97,770.27,769.52,-22.95,-866.21,526.86,0.98,0.66,-2.37,-498.37
2602,783.93,769.95,753.89,770.31,769.52,-32.23,-873.54,538.09,-0.56,0.44,-0.64,-501.37
2637,783.85,769.86,753.90,770.31,769.48,-21.48,-877.93,534.67,-2.50,2.40,-0.65,-500.01
2672,783.84,769.90,754.03,770.37,769.54,-29.30,-868.16,528.32,1.38,0.67,-1.98,-498.02
2710,783.73,769.94,754.06,770.41,769.53,-25.39,-875.00,527.34,-2.24,0.08,0.69,-497.87
2745,783.63,769.94,754.01,770.48,769.51,-37.60,-873.54,528.81,-0.99,-1.16,0.11,-499.73
2780,783.30,769.90,753.94,770.54,769.42,-39.55,-871.09,521.97,1.15,2.27,0.34,-500.87
2815,783.08,769.92,753.98,770.59,769.39,-24.90,-874.02,535.16,0.56,-0.03,-1.31,-500.07
2850,782.74,769.92,754.07,770.67,769.35,-33.69,-880.86,531.25,-0.27,-0.59,-1.98,-497.97
2885,782.51,769.94,754.02,770.81,769.32,-39.06,-870.12,526.37,-0.84,2.79,-1.12,-500.28
2923,782.19,769.93,754.04,770.93,769.27,-30.27,-872.56,532.23,0.80,-1.89,-0.12,-500.55
2958,781.90,770.01,754.06,770.95,769.23,-43.46,-874.02,527.34,-0.15,1.06,0.14,-499.93
2993,781.64,770.00,754.07,771.01,769.18,-32.71,-868.65,534.67,-0.36,1.92,-0.85,-499.75
3028,781.40,769.99,754.01,771.03,769.11,-46.39,-871.58,535.64,0.89,-1.81,-0.72,-500.43
3063,781.09,769.97,754.11,771.14,769.08,-31.74,-874.02,534.18,0.25,2.86,-1.63,-498.64
3098,780.70,769.95,754.02,771.16,768.96,-46.39,-875.49,545.41,-0.50,-0.22,-0.40,-499.38
3135,780.34,769.93,754.15,771.16,768.90,-30.27,-870.61,535.16,-1.11,-2.15,1.55,-494.96
3170,780.03,769.95,754.10,771.28,768.84,-33.69,-877.44,532.71,-0.39,2.34,-0.67,-496.90
3205,779.73,769.98,754.08,771.33,768.78,-39.06,-869.14,533.20,0.63,2.73,-1.24,-497.40
3240,779.43,769.89,754.09,771.46,768.72,-34.67,-875.00,540.04,-0.95,0.09,-0.26,-497.31
3275,779.01,769.94,754.13,771.41,768.62,-33.69,-878.91,531.25,0.07,1.01,-1.75,-494.60
3311,778.63,769.98,754.09,771.45,768.54,-32.23,-871.09,534.18,-1.37,0.44,-2.60,-495.00
3349,778.28,770.00,754.14,771.54,768.49,-35.16,-882.32,532.71,-2.31,3.50,-0.18,-494.01
3384,778.12,769.93,754.19,771.54,768.44,-41.99,-877.93,532.23,-0.60,0.49,-1.27,-491.86
3419,777.90,769.92,754.17,771.54,768.39,-39.55,-876.46,539.06,-0.01,2.57,1.44,-491.52
3454,777.71,769.85,754.15,771.48,768.30,-44.43,-866.70,535.64,0.13,1.52,0.64,-489.85
3489,777.44,769.82,754.11,771.38,768.19,-31.25,-862.79,528.32,-0.72,-1.62,-0.66,-488.41
3526,777.16,769.76,754.12,771.23,768.07,-28.32,-869.14,555.66,0.43,0.75,-1.49,-484.38
3561,777.08,769.73,754.19,771.10,768.02,-57.62,-873.05,521.00,1.14,0.52,-1.69,-480.06
3596,777.00,769.73,754.09,770.95,767.94,-42.97,-898.44,516.11,2.67,0.66,-2.58,-480.18
3630,777.11,769.65,754.10,770.76,767.91,-27.83,-883.79,540.04,-0.39,1.63,-0.89,-476.99
3665,777.21,769.61,754.07,770.68,767.89,-34.67,-875.49,526.86,-2.23,1.22,-2.60,-476.53
3700,777.28,769.68,754.11,770.53,767.90,-30.27,-877.93,527.83,1.60,-0.29,-0.60,-474.10
3738,777.63,769.64,754.02,770.31,767.90,-38.57,-879.39,517.09,-2.37,-0.85,-1.55,-473.97
3772,777.60,769.69,754.03,770.22,767.89,-34.67,-882.32,520.02,-0.22,-0.02,-1.35,-472.58
3807,777.76,769.62,753.99,770.06,767.86,-21.97,-866.21,540.53,1.44,1.24,-1.34,-471.13
3842,777.66,769.56,754.00,769.88,767.78,-30.27,-888.18,520.51,-0.86,0.35,-1.08,-467.50
3877,777.59,769.58,753.95,769.83,767.74,-40.53,-886.72,539.55,0.76,1.10,0.72,-468.10
3912,777.69,769.55,753.95,769.77,767.74,-38.57,-873.05,531.25,-0.63,0.02,-0.34,-467.30
3949,777.80,769.58,753.95,769.52,767.72,-37.60,-886.23,546.39,-0.40,-2.08,1.50,-464.21
3984,777.93,769.56,753.95,769.49,767.73,-37.11,-877.44,530.27,-0.61,1.07,-1.86,-463.95
4019,778.14,769.51,753.96,769.33,767.73,-31.25,-867.19,541.02,0.98,1.43,-2.76,-461.69
4054,778.48,769.44,753.89,769.06,767.72,-41.02,-879.39,533.69,-0.09,-1.88,0.66,-459.91
4089,778.58,769.26,753.87,768.97,767.67,-26.86,-872.56,536.13,-2.39,-1.46,-0.66,-458.34
4124,778.60,769.28,753.87,768.74,767.63,-44.92,-882.81,532.23,-0.76,1.48,-1.69,-455.06
4162,778.78,769.20,753.89,768.65,767.63,-36.62,-872.07,553.22,1.05,0.96,-1.18,-453.22
4197,779.13,769.16,753.80,768.50,767.65,-36.13,-868.65,528.81,1.75,-0.40,-1.84,-454.00
4233,779.60,769.20,753.80,768.32,767.73,-42.97,-870.61,524.41,0.87,-0.08,-2.86,-453.40
4268,780.17,769.10,753.81,768.11,767.80,-35.64,-881.35,524.90,2.86,1.72,-0.79,-451.33
4303,781.25,769.05,753.83,767.92,768.01,-26.86,-880.37,511.72,-0.35,2.04,0.80,-451.07
4338,781.99,768.88,753.72,767.75,768.09,-36.13,-875.00,539.55,-0.24,1.61,-1.02,-452.52
4376,782.57,768.67,753.64,767.48,768.09,24.90,-906.25,522.95,-1.44,-1.17,-1.25,-450.94
4410,782.71,768.60,753.73,767.16,768.05,-36.13,-879.88,522.95,-2.05,1.34,0.44,-443.86
4445,782.84,768.48,753.66,766.99,767.99,-43.46,-873.05,539.06,1.19,0.64,0.37,-442.55
4480,782.91,768.44,753.67,766.84,767.97,-43.46,-891.11,523.93,0.05,0.82,-0.59,-440.05
4515,783.13,768.23,753.72,766.59,767.92,-25.88,-862.30,548.83,-0.89,0.56,-2.60,-434.31
4550,782.99,768.11,753.53,766.40,767.75,-39.55,-872.07,527.34,-1.47,-0.22,-1.68,-434.77
4588,783.16,768.00,753.60,766.18,767.73,-29.30,-860.35,517.58,-1.73,0.03,1.25,-429.50
4623,783.37,767.98,753.59,766.11,767.76,-35.64,-865.72,537.11,-0.15,-1.44,1.40,-429.29
4658,783.62,767.91,753.58,765.93,767.76,-30.27,-876.95,529.30,-1.87,0.66,-1.21,-427.22
4692,783.77,767.99,753.59,765.88,767.81,-41.50,-889.65,541.50,-1.29,-0.47,0.61,-427.38
4728,783.90,767.98,753.56,765.84,767.82,-39.06,-867.68,533.69,0.91,0.35,-0.45,-427.95
4765,784.11,768.07,753.54,765.75,767.87,-30.76,-860.84,525.39,-1.14,0.85,0.62,-428.58
4800,784.49,768.15,753.61,765.79,768.01,-38.09,-869.63,522.46,-0.82,4.95,-0.36,-429.26
4835,784.82,768.32,753.61,765.98,768.19,-34.18,-874.02,526.86,3.09,-2.24,-0.39,-434.45
4870,785.58,768.33,753.64,766.02,768.39,-32.71,-871.09,527.83,2.12,-1.05,-1.56,-436.94
4905,786.66,768.52,753.54,766.05,768.69,-31.25,-877.93,531.25,-1.64,3.02,-0.29,-445.04
4940,787.72,768.49,753.60,765.98,768.95,-40.04,-866.70,535.16,-0.68,0.38,-2.44,-446.11
4983,788.14,768.49,753.56,765.89,769.02,-34.18,-876.46,525.88,0.20,-1.02,-1.77,-447.18
5018,788.10,768.41,753.59,765.84,768.99,-38.09,-869.14,528.81,-0.95,-2.55,-1.82,-444.92
5053,787.72,768.34,753.54,765.75,768.84,-32.23,-877.93,528.32,-1.30,1.91,0.79,-442.99
5088,787.61,768.31,753.56,765.86,768.83,-50.29,-882.81,527.34,0.24,0.74,2.43,-443.47
5123,787.29,768.30,753.53,765.88,768.75,-42.97,-877.93,524.41,-1.49,1.92,-0.50,-443.33
5158,786.76,768.35,753.62,766.01,768.69,-30.27,-881.84,530.76,-2.40,0.21,-1.00,-441.56
5197,786.48,768.38,753.59,766.13,768.65,-26.37,-870.61,524.90,0.59,0.31,-0.30,-443.54
5232,786.27,768.44,753.58,766.31,768.65,-37.11,-889.16,523.44,-1.18,0.66,2.76,-446.16
5267,785.82,768.47,753.63,766.43,768.59,-36.62,-875.00,522.95,-1.53,-0.79,-0.04,-445.34
5302,785.42,768.64,753.69,766.77,768.63,-39.06,-879.39,528.81,-1.39,-1.19,-0.44,-448.82
5337,784.76,768.70,753.69,767.05,768.55,-30.76,-872.56,534.18,0.11,-1.63,-0.35,-451.04
5372,784.30,768.71,753.75,767.15,768.48,-41.50,-884.77,520.51,0.85,-1.20,0.69,-449.77
5410,783.61,768.93,753.74,767.38,768.41,-42.97,-880.86,513.67,-1.69,-2.90,-0.60,-452.67
5444,782.74,769.02,753.77,767.62,768.29,-32.71,-869.63,523.93,-1.23,-1.95,0.60,-453.20
5479,781.96,769.12,753.79,767.77,768.16,-25.88,-879.39,523.93,-2.75,0.45,-2.47,-453.01
5514,780.78,769.25,753.76,767.96,767.94,-31.25,-880.37,524.90,-3.06,-0.77,0.37,-453.49
5549,780.01,769.28,753.89,768.02,767.80,-30.27,-880.86,517.09,-0.43,2.10,0.80,-448.93
5583,779.58,769.39,753.86,768.19,767.75,-42.48,-891.11,532.23,-0.56,1.05,0.17,-451.39
5621,779.06,769.58,753.82,768.41,767.71,-25.88,-869.63,528.81,-0.57,-1.39,-1.15,-455.42
5656,778.65,769.76,753.89,768.73,767.76,-28.81,-885.25,518.55,-2.73,2.46,1.83,-458.35
5691,778.43,769.86,753.89,768.93,767.78,-28.32,-873.54,527.34,-0.21,0.96,-0.32,-461.46
5726,778.15,770.08,753.98,769.14,767.84,-46.39,-881.35,523.44,0.07,2.72,0.76,-462.88
5761,778.27,770.19,753.91,769.37,767.93,-37.60,-895.02,486.82,0.63,0.40,-2.39,-469.53
5796,778.41,770.32,753.97,769.40,768.03,-25.39,-870.12,538.09,0.11,0.24,-0.16,-469.84
5833,778.73,770.29,753.99,769.38,768.10,-32.23,-892.58,530.27,1.18,-1.15,-2.92,-470.00
5868,779.41,770.04,753.93,769.25,768.16,-28.81,-865.72,551.27,1.33,1.32,-0.69,-469.95
5903,780.62,769.76,753.86,768.66,768.23,-28.81,-870.61,542.48,0.52,1.92,-2.39,-465.00
5938,781.89,769.50,753.87,768.52,768.44,-27.83,-883.30,514.16,-0.56,0.57,-0.21,-464.94
5973,782.59,769.31,753.83,768.07,768.45,-39.55,-866.70,534.67,1.07,2.07,-0.55,-459.99
6011,783.19,769.00,753.70,767.87,768.44,-27.83,-879.88,516.60,-0.24,1.12,-0.73,-460.03
6046,783.27,769.00,753.76,767.89,768.48,-25.39,-876.95,512.21,1.66,2.20,1.53,-458.92
6081,783.12,769.02,753.74,767.89,768.44,-33.20,-877.44,535.16,-1.64,-1.18,-0.78,-459.13
6116,783.16,769.05,753.79,767.96,768.49,-41.50,-871.58,525.88,1.94,-1.20,0.05,-459.28
6151,783.42,769.13,753.79,768.13,768.62,-40.53,-869.63,518.07,-2.06,0.21,-0.29,-463.44
6186,783.36,769.36,753.78,768.27,768.69,-31.74,-881.84,526.86,-1.10,-2.06,0.99,-467.37
6224,782.98,769.51,753.81,768.56,768.71,-41.02,-881.84,533.20,-0.05,0.88,-0.24,-470.89
6259,782.73,769.75,753.94,769.00,768.85,-34.67,-866.21,523.44,-0.50,1.43,-2.66,-475.23
6294,782.17,770.11,753.94,769.46,768.92,-27.34,-880.86,530.76,2.20,-1.10,-2.60,-482.78
6329,781.52,770.43,753.96,770.04,768.99,-42.48,-877.93,517.58,0.01,1.73,1.65,-491.18
6364,780.82,770.75,754.04,770.61,769.06,-34.18,-879.39,539.55,0.59,-2.20,-2.17,-497.60
6399,780.09,771.05,754.12,771.05,769.08,-35.16,-882.32,519.53,2.48,-1.29,-3.45,-502.10
6437,779.08,771.40,754.23,771.81,769.13,-30.76,-884.28,523.93,-1.36,1.15,-2.25,-509.92
6472,777.89,771.83,754.34,772.51,769.14,-31.25,-875.49,526.86,-0.76,1.78,-4.32,-516.94
6507,776.69,772.35,754.46,773.43,769.23,-22.95,-876.46,526.86,0.93,2.73,-1.27,-527.52
6542,775.56,772.87,754.57,774.34,769.33,-38.09,-861.82,535.64,1.05,-2.61,-1.30,-538.33
6577,774.45,773.26,754.63,775.08,769.35,-35.64,-875.49,534.18,0.31,-0.22,-1.00,-547.09
6612,773.49,773.65,754.71,775.82,769.42,-27.34,-878.91,538.09,1.31,-0.15,-0.65,-555.98
6649,772.81,774.17,754.86,776.49,769.58,-21.97,-869.14,538.57,1.47,0.25,1.65,-563.66
6684,771.60,774.42,754.91,776.99,769.48,-44.92,-876.95,532.71,-2.15,0.67,1.78,-567.72
6719,770.31,774.69,755.00,777.48,769.37,-30.76,-880.37,516.60,-2.72,-0.53,-3.56,-570.40
6755,769.24,774.70,755.08,777.79,769.20,-23.44,-876.95,528.81,-3.21,1.97,-0.14,-569.49
6790,768.25,774.54,755.11,777.97,768.97,-38.57,-871.58,537.60,-3.31,1.50,-1.91,-566.61
6825,767.77,774.55,755.10,778.15,768.89,-34.18,-864.26,530.27,-0.84,1.08,-1.65,-567.98
6862,768.36,774.69,755.13,778.28,769.11,-27.34,-870.61,521.48,3.16,-0.34,0.33,-572.36
6897,768.99,774.70,755.10,778.24,769.26,-39.06,-883.30,532.23,1.32,-1.81,0.92,-574.63
6932,769.30,774.53,755.03,778.25,769.28,-42.48,-874.02,528.81,0.43,-0.86,-0.12,-576.29
6967,769.68,774.23,754.92,778.21,769.26,-30.76,-880.37,526.86,2.23,0.45,-0.63,-577.34
7002,770.10,773.95,755.03,778.28,769.34,-16.60,-874.02,564.94,3.82,0.32,-0.44,-574.81
7037,769.93,773.58,754.97,778.26,769.18,-33.20,-860.84,541.50,-1.23,1.09,-1.47,-572.49
7075,769.39,773.19,754.98,778.21,768.95,-33.69,-878.42,528.81,1.02,-0.66,0.77,-566.48
7110,769.12,772.90,754.96,778.18,768.79,-27.83,-868.65,538.09,-0.50,-0.85,0.73,-563.17
7144,769.97,772.74,754.92,778.25,768.97,-25.88,-873.54,533.69,4.73,-3.95,0.26,-566.96
7179,771.95,772.74,754.87,778.34,769.48,-24.41,-874.51,519.04,5.47,-2.58,1.72,-576.24
7214,773.13,772.62,754.87,778.07,769.67,-18.07,-860.84,534.18,1.14,0.73,0.42,-575.41
7249,773.57,772.45,754.95,777.76,769.68,-33.20,-860.35,534.18,0.92,-2.73,1.02,-569.13
7286,773.48,772.21,754.83,777.42,769.49,-39.06,-873.05,544.43,-0.79,0.63,0.95,-564.91
7321,773.53,772.01,754.78,777.20,769.38,-14.65,-877.44,554.20,-0.24,1.85,2.50,-561.33
7356,773.72,771.91,754.72,776.89,769.31,-28.32,-874.51,526.86,-2.40,2.38,-2.50,-558.27
7391,774.12,771.75,754.71,776.55,769.28,-25.39,-864.75,533.69,0.47,0.85,-1.56,-553.52
7426,774.85,771.59,754.63,775.97,769.26,-34.67,-868.65,532.71,1.03,0.76,-2.31,-548.27
7464,775.75,771.38,754.56,775.30,769.25,-33.69,-875.49,535.64,-0.28,0.69,-2.47,-541.47
7499,776.51,771.32,754.51,774.70,769.26,-38.09,-858.40,541.99,1.62,1.20,-1.63,-536.20
7534,777.16,771.20,754.39,774.26,769.25,-33.69,-880.37,532.23,-0.25,2.84,-1.48,-533.76
7569,777.44,771.12,754.42,773.89,769.22,-44.92,-877.44,532.71,0.23,3.87,-0.38,-527.76
7604,777.47,771.13,754.37,773.69,769.17,-39.06,-874.51,551.27,0.65,0.06,2.89,-526.34
7639,777.85,771.07,754.31,773.49,769.18,-32.71,-874.51,535.64,-1.72,1.99,-0.59,-525.93
7677,778.30,771.09,754.39,773.47,769.31,-38.09,-872.56,540.53,-0.82,0.23,-0.90,-525.06
7712,778.51,771.12,754.37,773.41,769.35,-27.34,-873.54,529.79,-0.50,3.15,0.43,-525.71
7747,778.58,771.08,754.31,773.17,769.28,-27.34,-878.91,518.07,-1.50,0.61,-1.79,-523.61
7782,778.37,770.98,754.39,773.11,769.22,-19.53,-879.39,537.11,-0.32,1.50,-1.08,-519.27
7817,778.44,771.08,754.32,773.08,769.23,-32.23,-869.14,540.53,0.44,-0.04,-2.00,-521.53
7852,778.78,771.22,754.28,773.06,769.34,-31.25,-875.49,521.97,-0.44,2.40,-0.76,-524.56
7890,779.08,771.22,754.34,773.02,769.42,-36.62,-863.28,528.32,-1.33,-0.26,-0.69,-523.56
7925,779.48,771.18,754.36,772.91,769.48,-36.62,-865.72,538.09,-0.66,-0.05,-1.52,-522.51
7960,779.84,771.07,754.25,772.72,769.47,-26.37,-890.14,517.09,-1.64,0.98,-0.55,-522.68
7995,779.80,771.01,754.27,772.54,769.40,-41.50,-875.98,535.16,-0.89,0.05,0.69,-519.10
8030,779.69,770.93,754.25,772.31,769.29,-33.20,-857.91,538.09,-1.96,0.19,-0.40,-515.12
8066,779.27,770.83,754.23,772.16,769.12,-18.55,-868.65,547.36,-1.82,3.11,-0.48,-511.20
8103,778.82,770.74,754.25,772.09,768.98,-39.06,-873.54,533.69,-1.95,-0.27,1.41,-507.25
8138,778.43,770.77,754.27,772.01,768.87,-31.74,-871.58,528.32,0.05,0.36,0.66,-504.57
8173,778.20,770.74,754.22,771.96,768.78,-26.37,-875.98,533.20,-2.69,-1.95,1.03,-504.08
8208,777.99,770.70,754.22,771.87,768.70,-34.67,-870.12,524.41,-0.19,0.59,-1.23,-501.57
8243,777.72,770.79,754.25,771.85,768.65,-33.69,-871.58,526.86,-1.48,1.27,-0.87,-500.62
8278,777.88,770.72,754.24,771.68,768.63,-35.64,-877.93,527.34,-0.03,-0.93,0.03,-498.04
8315,778.28,770.63,754.13,771.66,768.68,-43.46,-875.98,522.46,-0.24,0.44,-0.02,-501.21
8350,778.63,770.56,754.13,771.50,768.70,-24.90,-880.86,545.90,0.53,0.71,-1.98,-499.50
8385,779.05,770.43,754.14,771.44,768.77,-26.37,-877.93,529.79,0.00,3.72,-0.58,-498.68
8420,779.14,770.33,754.17,771.30,768.74,-28.81,-875.49,527.34,-0.24,3.38,-2.45,-495.64
8455,778.81,770.18,754.15,771.25,768.60,-28.32,-878.42,534.67,-1.69,0.26,-0.90,-492.93
8490,778.73,770.06,754.19,771.16,768.53,-23.93,-875.49,536.13,-0.07,3.08,0.27,-489.44
8527,779.21,770.04,754.10,771.19,768.63,-20.51,-885.25,537.11,-0.02,-1.03,0.78,-493.51
8562,779.47,770.06,754.18,771.14,768.71,-28.81,-882.32,544.92,-0.47,-1.39,-1.10,-491.79
8597,779.46,769.98,754.10,771.23,768.69,-31.25,-874.51,545.90,0.24,0.72,0.18,-494.63
8631,779.18,769.83,754.09,771.29,768.60,-37.60,-871.58,537.11,-2.14,-0.59,0.00,-493.44
8666,778.84,769.75,754.11,771.28,768.50,-42.48,-880.37,535.16,1.34,-2.03,-1.75,-491.03
8704,778.77,769.81,754.09,771.38,768.51,-28.32,-871.09,526.86,0.91,-1.58,-0.31,-493.27
8739,778.78,769.81,754.12,771.38,768.52,-29.79,-882.81,525.88,0.76,-0.49,-0.63,-492.57
8773,778.74,769.75,754.15,771.38,768.50,-41.02,-879.88,525.39,-1.47,-1.16,1.05,-491.21
8808,778.74,769.78,754.12,771.35,768.50,-39.55,-872.56,528.32,0.01,2.85,-0.85,-491.64
8843,778.80,769.87,754.13,771.29,768.52,-28.32,-875.98,534.18,-0.35,2.73,-3.77,-491.50
8878,779.03,769.96,754.11,771.06,768.54,-25.39,-876.95,533.20,0.77,2.00,-1.52,-490.22
8915,779.52,770.29,754.16,770.99,768.74,-39.06,-870.61,542.97,-1.15,-0.07,0.08,-491.98
8950,779.98,770.41,754.12,770.89,768.85,-36.62,-886.72,528.81,-0.50,1.74,0.84,-494.31
8985,780.84,770.54,754.08,770.69,769.04,-27.83,-874.02,541.99,2.30,-0.09,-1.04,-496.19
9020,781.47,770.55,754.09,770.57,769.17,-41.02,-877.93,541.50,0.26,-0.36,-0.48,-496.55
9055,781.71,770.61,754.07,770.47,769.21,-27.34,-873.05,533.20,-0.15,0.81,0.11,-496.94
9089,781.93,770.52,754.12,770.36,769.23,-31.74,-866.70,531.25,-1.79,0.73,0.68,-493.95
9127,781.57,770.41,754.07,770.35,769.10,-34.67,-872.07,531.74,-0.85,-0.98,2.73,-493.16
9162,780.87,770.37,754.08,770.37,768.92,-34.18,-875.98,547.36,-0.22,-0.92,-0.05,-490.44
9197,780.35,770.16,754.07,770.45,768.76,-40.53,-869.14,527.34,-1.65,0.54,-0.90,-488.36
9232,779.67,770.08,754.12,770.42,768.57,-53.22,-873.05,526.37,-0.56,-2.91,1.15,-483.59
9266,779.12,769.84,754.03,770.64,768.41,-32.71,-887.21,533.20,-0.31,-4.07,0.42,-485.25
9301,778.73,769.60,754.10,770.75,768.29,-31.74,-887.70,517.09,0.88,-0.94,-0.05,-481.89
9339,778.50,769.34,754.08,770.92,768.21,-36.62,-883.79,531.25,1.97,-4.56,0.40,-482.02
9374,778.50,769.10,754.08,771.04,768.18,-25.88,-872.56,536.13,1.18,-2.53,-0.06,-481.82
9408,778.62,768.84,754.13,771.18,768.19,-30.27,-867.19,532.71,0.85,-0.62,-1.33,-481.18
9443,778.84,768.70,754.02,771.20,768.19,-29.30,-887.21,521.97,0.67,0.95,-0.19,-483.58
9478,778.86,768.60,754.03,771.24,768.18,-38.09,-876.46,535.64,-1.76,-0.53,-1.03,-483.36
9513,778.80,768.55,754.12,771.42,768.22,-38.57,-868.16,535.64,1.43,1.02,1.59,-483.17
9550,778.57,768.50,754.03,771.37,768.12,-26.37,-886.72,521.97,-0.44,-1.10,-0.66,-483.52
9585,778.40,768.47,754.14,771.47,768.12,-41.02,-881.35,537.60,1.55,-2.21,-2.18,-481.43
9620,778.37,768.47,754.09,771.65,768.14,-39.55,-867.19,525.39,-0.33,1.42,-1.47,-484.97
9655,778.26,768.40,754.12,771.71,768.12,-25.88,-865.72,522.46,0.21,5.02,-0.66,-484.20
9690,778.23,768.39,754.11,771.78,768.13,-30.27,-875.00,528.81,1.16,0.62,0.65,-485.40
9725,778.39,768.35,754.15,771.78,768.17,-26.86,-864.75,548.83,0.56,-0.01,-1.56,-484.66
9762,778.36,768.39,754.14,771.86,768.19,-33.69,-880.37,539.06,0.82,1.04,-1.05,-486.28
9798,778.36,768.36,754.14,771.87,768.18,-30.27,-869.63,537.60,-3.48,2.14,0.78,-486.15
9833,778.35,768.27,754.15,771.77,768.13,-30.27,-883.30,533.69,-0.55,0.32,0.91,-483.80
9868,778.36,768.15,754.12,771.74,768.09,-29.79,-881.35,532.23,-1.28,-0.16,-1.56,-483.12
9902,778.52,768.23,754.09,771.69,768.13,-37.11,-874.51,538.09,-1.60,-2.37,-0.36,-484.23
9940,778.77,768.19,754.10,771.46,768.13,-35.64,-875.98,535.16,-1.97,-0.34,-0.62,-481.31
9975,779.06,767.98,754.08,771.28,768.10,-27.34,-870.61,536.13,0.09,-1.04,0.53,-478.34
10010,779.39,767.94,754.02,771.08,768.11,-12.21,-875.00,529.79,-0.27,-0.76,0.21,-477.61
10045,779.68,768.00,754.03,770.85,768.14,-44.92,-871.09,532.23,-0.66,-1.36,1.80,-475.48
10080,780.04,767.91,754.04,770.64,768.16,-30.27,-871.58,530.27,-0.80,2.45,0.85,-472.84
10115,780.42,767.88,754.01,770.54,768.21,-23.93,-877.44,532.23,1.59,0.01,-2.31,-473.05
10152,780.85,767.77,753.96,770.31,768.22,-29.79,-878.42,522.95,0.20,4.40,-1.42,-471.43
10187,781.13,767.91,753.98,770.15,768.30,-30.76,-867.68,529.30,0.98,-0.73,0.30,-470.80
10221,781.50,767.96,753.97,770.03,768.36,-34.18,-885.25,541.50,2.22,3.79,1.31,-470.86
10256,781.82,768.06,753.89,769.78,768.39,-23.44,-879.88,534.18,-0.51,3.56,0.02,-471.06
10290,782.12,768.31,753.95,769.69,768.52,-18.07,-879.39,533.20,-1.46,0.95,-2.04,-471.42
10325,782.12,768.50,753.96,769.67,768.56,-26.37,-883.79,549.80,0.92,-0.23,-1.42,-472.31
10363,782.02,768.62,753.93,769.86,768.60,-30.76,-884.77,516.11,-0.63,-0.40,-1.65,-476.52
10398,781.80,768.75,753.96,769.85,768.59,-28.32,-878.42,519.53,-0.23,0.02,0.39,-475.83
10432,781.43,768.68,753.95,770.00,768.51,-37.60,-876.46,524.41,-1.40,0.52,-0.80,-476.47
10467,781.04,768.74,753.99,770.10,768.47,-34.67,-880.37,537.60,0.46,0.15,-1.83,-476.01
10501,780.52,768.72,753.99,770.21,768.36,-30.76,-875.00,520.51,-0.94,-1.39,2.55,-475.94
10536,779.91,768.56,754.01,770.38,768.21,-30.76,-885.74,535.64,-1.58,1.92,-0.46,-474.45
10574,779.31,768.59,754.05,770.69,768.16,-31.74,-870.12,548.83,0.84,-2.73,-0.23,-476.18
10609,778.67,768.59,754.10,770.93,768.07,-35.16,-861.33,538.09,-1.47,0.45,1.42,-476.36
10644,778.23,768.59,754.07,771.05,767.99,-28.81,-857.42,544.43,-1.05,3.06,1.89,-477.39
10679,777.96,768.58,754.11,771.05,767.93,-41.02,-877.44,529.79,-1.34,-0.53,-0.13,-475.25
10714,777.85,768.56,754.14,771.05,767.90,-46.88,-885.74,547.36,-0.35,0.61,0.51,-473.93
10749,777.77,768.54,754.33,770.92,767.89,-31.74,-885.25,524.90,-0.67,-0.45,-3.12,-466.99
10787,777.64,768.39,754.42,770.79,767.81,-24.41,-875.98,521.97,-0.45,0.16,-1.63,-461.13
10822,777.61,768.42,754.48,770.81,767.83,-28.32,-880.86,531.25,1.42,-0.55,0.20,-460.09
10857,777.40,768.41,754.65,770.70,767.79,-11.23,-875.49,541.02,-0.60,-0.63,1.38,-453.30
10892,777.50,768.25,754.65,770.49,767.72,-20.02,-879.39,523.44,2.59,0.58,-1.02,-449.38
10927,777.80,768.07,754.57,770.47,767.73,-32.23,-878.42,522.46,-1.37,-2.72,2.11,-450.80
10964,778.17,767.99,754.58,770.33,767.77,-28.32,-872.07,527.83,-0.89,-0.73,0.24,-448.88
10999,778.52,767.92,754.52,770.23,767.80,-24.41,-894.53,534.67,-0.57,1.75,-0.05,-449.65
11034,779.02,767.94,754.38,770.31,767.91,-48.34,-857.91,534.18,1.48,-1.22,-0.90,-456.17
11069,779.51,767.98,754.39,770.33,768.05,-21.00,-853.52,543.95,1.40,-1.95,-1.15,-458.21
11104,780.09,767.96,754.19,770.23,768.12,-37.60,-874.51,547.85,-0.59,-0.19,-0.22,-463.34
11139,780.88,767.80,754.13,769.90,768.18,-34.67,-881.35,537.60,0.69,1.31,-0.40,-461.55
11176,781.89,767.68,754.04,769.67,768.32,-30.27,-886.72,535.64,0.62,0.98,-0.27,-462.87
11211,782.93,767.54,753.98,769.32,768.44,-37.11,-867.19,520.02,0.12,1.36,-1.21,-461.68
11246,783.73,767.37,753.94,769.18,768.55,-43.95,-875.49,523.93,-1.31,0.14,-0.01,-462.09
11281,784.34,767.29,753.91,769.02,768.64,-38.09,-871.09,533.69,-1.07,2.20,0.64,-461.80
11316,785.17,767.20,753.92,768.68,768.74,-38.57,-878.42,527.83,-2.88,0.32,-0.80,-458.73
11351,786.08,767.03,753.81,768.51,768.86,-63.96,-866.70,515.62,-1.81,2.42,1.18,-460.75
11389,786.83,766.93,753.86,768.30,768.98,-47.85,-860.35,535.64,-1.07,-1.71,2.05,-458.16
11424,787.40,766.89,753.82,768.18,769.07,-34.67,-872.07,534.67,0.74,4.22,-0.86,-459.06
11458,787.57,766.78,753.85,768.13,769.08,-15.63,-892.58,525.88,-0.27,-0.35,-1.27,-457.21
11494,787.69,766.84,753.85,768.12,769.13,-34.67,-873.05,532.23,0.21,1.24,-0.83,-458.11
11529,787.83,766.84,753.76,768.08,769.13,-43.95,-892.09,522.46,1.28,0.96,-2.24,-460.13
11564,787.78,766.83,753.75,768.11,769.12,-39.55,-862.79,538.09,0.43,-2.46,-0.87,-460.69
11602,787.52,766.95,753.79,768.18,769.11,-28.81,-871.09,527.34,-1.21,-0.02,0.51,-460.79
11637,787.40,766.89,753.79,768.21,769.08,-50.29,-873.54,526.37,0.17,0.64,0.33,-460.18
11672,787.29,766.93,753.78,768.35,769.09,-41.02,-878.42,537.11,0.10,-1.35,-0.07,-462.62
11707,787.08,766.99,753.84,768.47,769.09,-44.43,-870.12,524.41,1.16,-0.66,-0.88,-462.56
11742,786.86,766.95,753.84,768.41,769.01,-43.95,-884.28,537.60,0.41,2.30,-3.20,-460.61
11778,786.79,767.02,753.84,768.31,768.99,-36.62,-872.56,530.76,-0.99,1.48,-3.07,-459.40
11815,786.75,766.91,753.77,768.38,768.96,-35.64,-876.46,528.32,-0.50,1.31,-1.08,-461.15
11850,786.76,766.97,753.81,768.49,769.01,-41.02,-876.95,532.71,1.34,-0.59,0.92,-462.23
11885,786.79,766.89,753.78,768.45,768.98,-35.64,-874.51,521.48,0.09,-0.66,-0.08,-461.99
11920,786.93,766.91,753.81,768.38,769.01,-45.41,-883.79,521.00,-1.93,-1.33,0.82,-460.69
11955,786.77,766.81,753.83,768.51,768.98,-56.64,-871.09,522.95,-1.68,-2.98,0.24,-460.72
11993,786.59,766.71,753.77,768.41,768.87,-49.32,-877.93,530.76,-0.90,-0.38,0.60,-459.56
12027,786.59,766.55,753.77,768.33,768.81,-143.07,-853.03,568.85,6.44,3.50,0.40,-456.95
12062,786.51,766.58,753.81,768.30,768.80,-59.57,-864.26,537.60,-0.46,4.34,-0.02,-455.52
12097,786.36,766.56,753.81,768.39,768.78,-38.57,-864.26,526.86,-0.09,1.92,0.93,-456.12
12132,785.98,766.50,753.84,768.52,768.71,-36.13,-859.86,535.64,-1.28,1.34,0.44,-455.44
12166,785.93,766.45,753.78,768.54,768.67,-43.95,-874.51,525.39,-1.13,-1.89,-0.95,-456.77
12204,785.88,766.52,753.77,768.46,768.66,-41.02,-863.77,535.16,-1.37,-2.50,-0.51,-456.27
12239,785.73,766.53,753.86,768.50,768.66,-29.79,-872.56,523.93,-0.11,-0.34,-1.17,-454.20
12274,785.71,766.44,753.88,768.57,768.65,-37.60,-874.51,544.92,-1.07,1.32,-0.15,-453.73
12309,785.28,766.50,753.82,768.50,768.53,-35.16,-864.75,531.25,-0.99,-1.39,-2.06,-453.26
12344,785.01,766.57,753.85,768.68,768.53,-39.55,-871.09,527.34,-0.04,-1.37,1.15,-454.95
12379,784.95,766.66,753.79,768.80,768.55,-35.16,-867.68,521.97,-0.61,2.20,-0.29,-458.78
12417,784.87,766.69,753.85,768.85,768.56,-8.79,-880.86,539.55,-0.85,0.36,-0.26,-457.88
12452,784.83,766.74,753.80,768.87,768.56,-23.93,-901.86,524.41,1.41,-1.03,-1.56,-459.63
12487,784.73,766.74,753.80,768.89,768.54,-28.81,-876.95,528.32,-0.27,-0.66,-3.21,-459.73
12522,784.67,766.71,753.91,768.90,768.55,-26.37,-880.86,527.34,-0.62,2.19,0.21,-456.64
12557,784.71,766.69,753.85,768.88,768.53,-29.30,-890.14,538.09,2.79,-3.10,-0.11,-457.73
12592,784.70,766.79,753.86,768.83,768.54,-35.64,-870.61,541.99,-0.77,-0.96,-0.80,-457.58
12631,784.78,766.72,753.97,768.90,768.59,-33.20,-868.65,524.90,-2.77,0.05,0.08,-455.68
12666,784.80,766.76,753.86,768.89,768.58,-43.46,-882.32,518.55,-1.43,-0.25,-0.29,-458.62
12701,784.81,766.73,753.85,768.89,768.57,-45.90,-881.84,530.76,-1.07,0.37,0.15,-458.70
12736,784.90,766.71,753.87,768.88,768.59,-41.02,-873.54,536.13,2.60,-0.20,2.49,-458.02
12771,785.00,766.73,753.78,768.87,768.60,-37.60,-876.95,540.53,-1.88,0.25,0.24,-460.78
12809,785.11,766.77,753.88,768.90,768.66,-47.85,-869.63,538.57,-0.69,-0.76,-2.73,-459.36
12844,784.99,766.79,753.85,768.98,768.65,-34.67,-864.75,527.34,-0.86,1.33,-0.06,-461.00
12878,784.86,766.79,753.84,769.05,768.64,-31.25,-875.49,534.18,0.54,-2.29,-0.38,-461.81
12913,784.85,766.89,753.87,769.24,768.71,-28.81,-878.91,524.41,1.15,2.95,-0.21,-464.60
12949,784.90,766.93,753.87,769.23,768.73,-27.34,-866.21,530.27,-0.96,-1.07,0.18,-464.97
12984,784.73,767.07,753.89,769.30,768.75,-22.46,-870.61,536.62,0.50,-0.34,0.15,-466.17
13021,784.72,767.11,753.88,769.41,768.78,-28.81,-881.84,531.25,-1.54,3.93,1.41,-468.23
13056,784.59,767.11,753.94,769.50,768.78,-31.25,-868.16,521.00,0.03,-1.53,0.99,-467.76
13091,784.55,767.13,753.95,769.48,768.78,-41.02,-877.93,547.36,-0.79,-0.21,-1.05,-467.01
13126,784.61,767.21,753.90,769.52,768.81,-31.25,-876.46,530.76,-1.56,0.07,0.76,-469.71
13161,784.63,767.26,753.95,769.61,768.86,-45.41,-876.46,539.55,-0.79,-1.41,-1.25,-470.32
13196,784.58,767.28,753.96,769.60,768.86,-39.55,-867.19,537.60,0.54,1.67,-2.30,-470.01
13234,784.69,767.31,753.95,769.63,768.89,-25.39,-864.75,540.53,-2.53,-3.82,0.69,-471.24
13269,784.63,767.35,753.97,769.69,768.91,-44.43,-878.42,524.41,0.33,0.82,-3.23,-471.69
13304,784.75,767.39,753.96,769.69,768.95,-30.27,-880.37,535.16,0.05,-2.50,-0.87,-472.55
13339,784.71,767.42,753.92,769.69,768.94,-40.53,-876.46,532.23,0.76,1.11,2.05,-473.99
13374,784.69,767.45,753.94,769.78,768.96,-35.16,-887.70,531.25,0.02,0.86,-3.44,-474.94
13409,784.57,767.50,753.99,769.76,768.96,-26.37,-884.77,532.71,-1.50,0.77,-2.35,-473.20
13447,784.52,767.67,754.03,769.85,769.02,-26.37,-882.32,541.50,1.59,-0.15,0.61,-474.78
13482,784.49,767.69,753.91,769.96,769.02,-35.16,-875.98,530.76,1.21,-0.81,1.31,-479.45
13516,784.35,767.65,753.99,770.04,769.01,-35.64,-867.19,526.86,-2.32,-0.50,0.39,-477.97
13552,784.07,767.67,754.00,770.19,768.98,-36.62,-870.12,536.13,-2.19,-0.85,-2.05,-479.04
13587,783.78,767.73,754.05,770.28,768.96,-20.02,-878.42,523.44,0.40,-1.89,0.28,-478.41
13625,783.53,767.75,753.95,770.34,768.89,-43.95,-869.14,535.16,0.36,0.58,-0.85,-481.15
13660,783.43,767.76,754.03,770.36,768.89,-34.18,-873.05,526.86,1.19,0.01,-0.42,-479.20
13694,783.37,767.71,754.01,770.39,768.87,-37.11,-873.05,534.67,2.19,1.78,-0.50,-479.60
13729,783.23,767.77,754.03,770.53,768.89,-32.71,-862.30,525.88,-0.43,-0.78,1.97,-481.07
13764,782.89,767.75,754.03,770.58,768.81,-37.60,-879.88,527.83,0.27,-2.34,-2.56,-480.53
13799,782.64,767.75,754.05,770.75,768.80,-38.57,-884.28,533.69,0.74,-0.26,-0.31,-481.77
13836,782.51,767.79,754.11,770.84,768.81,-37.60,-868.16,535.16,0.12,0.03,1.50,-481.44
13871,782.19,767.82,754.02,770.89,768.73,-40.04,-873.05,532.71,-0.03,0.27,0.85,-483.34
13906,781.95,767.86,754.04,771.03,768.72,-26.37,-882.32,532.71,-0.35,0.22,0.47,-484.60
13941,781.72,767.91,754.16,771.18,768.74,-45.90,-866.21,537.11,-0.26,-0.20,-1.73,-483.50
13976,781.56,767.93,754.13,771.35,768.74,-44.92,-869.63,521.97,1.10,-0.88,-0.98,-486.43
14011,781.42,768.00,754.17,771.41,768.75,-36.62,-874.51,519.04,0.80,-0.37,-1.63,-486.39
14049,781.21,767.99,754.11,771.51,768.70,-31.25,-866.70,535.16,0.13,-0.15,-0.74,-488.38
14084,781.21,767.93,754.14,771.50,768.70,-31.25,-866.21,520.02,0.60,2.20,-0.29,-486.99
14119,781.03,767.97,754.11,771.62,768.68,-30.27,-872.56,538.09,-2.50,0.40,0.08,-489.14
14154,781.01,767.96,754.09,771.70,768.69,-42.48,-878.91,533.20,-0.97,-0.19,-2.14,-490.94
14189,780.85,768.01,754.17,771.75,768.70,-36.62,-876.46,541.50,-0.17,0.63,-1.34,-489.30
14224,780.81,768.07,754.21,771.84,768.73,-34.18,-882.32,522.95,-0.50,-0.69,-1.18,-489.93
14262,780.65,768.12,754.12,771.93,768.70,-38.09,-883.79,534.18,1.60,-0.24,-0.34,-493.56
14297,780.30,768.17,754.19,772.11,768.70,-34.18,-863.28,536.62,-0.81,0.45,2.98,-493.56
14332,780.13,768.20,754.14,772.16,768.66,-35.64,-877.44,540.04,-1.15,0.84,-0.94,-495.15
14367,779.92,768.22,754.16,772.33,768.66,-41.02,-875.00,530.27,-0.53,0.84,0.94,-496.51
14402,779.81,768.26,754.13,772.44,768.66,-51.27,-856.45,534.18,-0.10,-2.38,-0.10,-499.01
14437,779.73,768.33,754.28,772.46,768.70,-32.23,-884.77,538.09,0.00,0.56,-1.11,-495.68
14476,779.77,768.34,754.21,772.40,768.68,-35.64,-867.68,530.76,-0.34,0.33,0.10,-496.85
14511,780.07,768.30,754.18,772.47,768.76,-32.71,-867.19,523.44,-0.13,1.20,-0.86,-499.43
14546,780.11,768.38,754.18,772.42,768.77,-19.53,-873.05,541.02,-0.24,-1.29,0.70,-499.47
14581,780.19,768.30,754.24,772.32,768.76,-32.71,-876.46,539.55,0.80,-0.46,1.68,-496.05
14616,780.31,768.26,754.18,772.32,768.77,-31.25,-873.05,538.57,-0.03,-0.61,0.64,-497.69
14654,780.49,768.29,754.10,772.25,768.78,-34.18,-865.23,539.06,1.07,-0.65,-2.11,-499.53
14689,780.54,768.25,754.16,772.20,768.79,-39.06,-877.93,536.62,0.28,0.93,-1.40,-497.04
14724,780.70,768.23,754.16,772.17,768.82,-32.23,-875.00,547.85,-0.30,-0.92,1.02,-497.02
14759,780.64,768.31,754.18,772.17,768.82,-42.97,-870.12,531.74,1.21,0.26,0.77,-497.07
14794,780.69,768.28,754.19,772.24,768.85,-29.30,-874.51,519.53,0.54,-0.36,0.76,-497.69
14829,780.64,768.39,754.16,772.27,768.87,-24.41,-863.77,545.41,1.19,0.48,-0.15,-499.59
14867,780.55,768.38,754.19,772.34,768.87,-45.90,-866.70,532.71,-2.15,-1.61,-0.66,-499.44
14903,780.40,768.40,754.19,772.40,768.85,-31.25,-877.93,544.43,0.03,-2.60,-0.63,-500.16
14938,780.28,768.52,754.19,772.39,768.85,-46.39,-875.49,543.46,0.12,0.54,-3.62,-500.38
14973,780.28,768.64,754.20,772.58,768.93,-41.99,-878.91,535.64,-0.08,2.82,-1.93,-504.01
15008,780.33,768.71,754.29,772.78,769.03,-29.79,-875.00,538.57,-1.66,-2.85,-2.32,-505.32
15043,780.39,768.81,754.36,772.98,769.13,-34.67,-875.00,530.27,-1.88,-0.89,-1.84,-507.55
15081,780.62,768.85,754.28,773.02,769.19,-23.44,-866.70,537.60,2.79,-0.50,-0.26,-511.28
15116,780.81,768.87,754.29,773.12,769.27,-28.81,-883.79,532.71,0.50,0.17,-0.13,-513.18
15151,781.24,768.91,754.35,773.23,769.43,-44.92,-869.63,531.74,-0.61,-2.77,1.98,-515.40
15186,781.76,768.99,754.26,773.22,769.56,-31.74,-872.56,534.18,1.74,0.77,0.95,-519.89
15221,782.22,768.88,754.32,773.10,769.63,-34.18,-869.63,535.64,1.35,0.73,-0.42,-517.38
15256,782.39,768.76,754.30,772.94,769.60,-30.76,-882.81,534.67,0.15,-0.16,0.03,-515.02
15294,782.50,768.78,754.23,772.71,769.56,-34.18,-876.95,536.62,-1.95,0.34,0.32,-513.85
15329,782.57,768.76,754.19,772.61,769.53,-43.95,-877.44,526.37,-1.15,0.53,-1.16,-513.48
15364,782.61,768.68,754.31,772.47,769.52,-35.16,-862.79,532.23,-0.29,2.83,0.15,-508.00
15399,782.22,768.59,754.20,772.21,769.31,-25.88,-862.30,544.92,-0.38,2.24,-0.04,-504.85
15434,782.03,768.43,754.28,772.00,769.19,-28.81,-870.12,534.18,1.49,0.11,-3.04,-497.64
15472,781.77,768.43,754.17,771.76,769.03,-31.74,-879.88,531.74,-0.04,-2.12,-1.69,-496.07
15507,781.52,768.34,754.16,771.44,768.87,-23.93,-875.00,540.53,1.11,0.69,-0.56,-490.08
15542,781.48,768.32,754.13,771.01,768.74,-39.06,-866.70,531.25,-2.90,-0.21,-1.37,-484.19
15577,781.22,768.32,754.09,770.62,768.56,-36.62,-881.35,533.20,-3.69,3.72,-1.35,-478.51
15612,781.10,768.15,754.05,770.00,768.32,-39.06,-868.16,538.57,-1.76,2.82,-0.40,-468.49
15647,781.17,768.00,753.94,769.33,768.11,-39.06,-862.30,530.27,-3.18,2.75,0.47,-460.54
15685,781.36,767.77,753.85,768.56,767.89,-27.34,-882.81,524.41,-1.24,2.59,-1.92,-450.25
15721,781.56,767.64,753.81,767.98,767.75,-25.88,-871.09,529.30,-2.62,3.09,0.57,-442.40
15756,780.82,767.70,753.84,767.96,767.58,-30.76,-868.16,528.32,-1.89,0.55,-0.88,-439.28
15791,778.40,767.78,753.88,768.02,767.02,-34.67,-874.02,522.95,-4.92,0.71,0.78,-431.44
15826,771.97,768.02,753.94,768.27,765.55,-44.43,-891.11,526.86,-18.85,1.14,-2.73,-413.50
15861,760.92,767.29,753.86,767.13,762.30,-81.54,-957.03,488.28,-43.06,8.78,-7.62,-355.02
15899,751.35,764.50,753.54,763.14,758.13,-40.04,-1090.33,352.05,-64.31,-6.27,-35.05,-248.97
15934,749.50,760.22,753.08,758.08,755.22,-113.77,-1285.64,312.50,-76.98,1.31,-92.20,-145.30
15969,748.61,756.91,752.46,754.98,753.24,-102.05,-1569.82,252.93,-67.44,42.65,-131.16,-85.42
16005,748.42,755.54,752.05,753.68,752.42,123.05,-1024.41,166.99,-44.40,85.50,-145.61,-65.00
16040,748.43,755.08,751.99,753.44,752.24,278.81,-1517.09,222.66,-80.68,153.84,-100.54,-59.29
16078,748.18,754.71,752.00,753.27,752.04,-66.89,-1063.96,305.18,-16.61,154.84,-45.98,-52.70
16113,748.18,754.43,751.93,753.14,751.92,-186.52,-873.54,298.83,-7.02,115.08,-41.03,-50.22
16148,748.21,754.20,751.87,753.02,751.83,-287.11,-780.27,304.69,-15.11,62.34,-17.07,-48.31
16183,748.09,754.06,751.93,752.99,751.77,-280.27,-761.23,298.34,-31.24,18.12,7.44,-44.75
16218,748.10,753.98,751.92,752.89,751.72,-239.26,-759.77,292.48,-37.58,9.25,32.26,-43.03
16253,748.07,753.98,751.94,752.86,751.71,-199.22,-765.14,300.29,-42.08,14.43,46.11,-41.99
16291,748.00,753.81,751.91,752.87,751.65,-170.90,-807.13,302.25,-38.08,31.64,51.11,-41.33
16326,747.92,753.80,751.89,752.92,751.63,-172.36,-854.98,316.89,-29.56,41.89,60.54,-41.97
16362,747.89,753.72,751.93,752.86,751.60,-162.60,-874.51,291.50,-19.97,41.69,69.32,-39.34
16397,747.89,753.67,751.96,752.83,751.59,-126.95,-921.87,327.15,-20.17,35.60,70.86,-37.83
16432,747.82,753.63,751.92,752.88,751.56,-93.26,-972.17,344.24,-13.75,22.02,76.41,-39.22
16468,747.80,753.62,751.92,752.91,751.56,-48.83,-966.80,353.03,-3.11,16.84,71.16,-39.31
16506,747.79,753.69,751.85,752.92,751.56,48.83,-981.93,366.21,-11.93,23.24,62.72,-41.77
16541,747.71,753.67,751.87,752.87,751.53,21.48,-923.34,338.87,-16.99,33.66,53.62,-40.10
16576,747.64,753.73,751.93,752.87,751.54,34.18,-1055.18,371.09,-19.19,38.08,48.84,-38.89
16611,747.65,753.75,751.93,752.93,751.57,17.58,-975.59,345.21,12.46,47.68,55.07,-39.93
16646,747.66,753.86,751.96,752.88,751.59,5.37,-874.02,258.30,7.51,44.24,49.37,-39.44
16684,747.54,753.83,751.88,752.93,751.54,106.93,-986.33,305.66,6.11,38.78,34.79,-41.30
16719,747.64,754.05,751.87,752.95,751.63,255.86,-938.96,271.48,35.47,33.75,17.89,-44.10
16754,751.90,754.25,751.86,752.53,752.64,989.75,-1896.00,-1201.66,-38.46,138.89,-124.41,-54.44
16789,754.02,754.44,751.81,752.35,753.16,-62.01,-439.94,456.54,146.90,33.32,-126.47,-61.66
16824,762.98,755.08,752.01,752.55,755.66,-313.48,-1083.98,-67.87,29.36,-51.67,-108.37,-95.50
16859,774.53,756.64,751.98,752.92,759.01,239.75,-1115.23,695.80,88.60,11.66,-82.01,-154.00
16897,791.52,759.16,752.22,754.22,764.28,-136.72,-1067.87,363.77,104.02,-28.53,-22.11,-245.50
16932,811.21,761.30,752.43,755.72,770.17,37.11,-849.61,526.86,63.17,-20.92,-9.78,-347.08
16967,834.10,763.72,752.69,758.02,777.13,-34.67,-889.16,522.95,50.47,-16.51,-7.05,-472.49
17002,852.72,765.77,752.85,759.25,782.65,-18.55,-870.12,560.55,18.94,-7.01,-1.15,-566.80
17036,864.63,767.39,752.89,760.02,786.23,-52.25,-927.73,443.85,-1.29,-4.37,1.24,-631.19
17071,869.04,768.19,752.96,760.82,787.75,-49.32,-927.25,444.34,2.73,-4.60,-2.99,-662.76
17109,869.56,768.35,753.03,761.68,788.16,-31.74,-905.27,474.12,4.09,1.45,-0.18,-676.79
17144,867.91,768.71,753.07,762.28,787.99,-38.09,-884.28,498.05,5.43,0.60,-2.70,-681.64
17179,863.67,769.58,753.17,763.01,787.36,-24.41,-913.09,485.84,-1.39,2.10,-3.94,-682.34
17214,857.56,771.53,753.39,764.60,786.77,-44.43,-913.57,463.38,0.72,3.81,-5.53,-695.04
17250,849.51,774.96,753.59,766.67,786.18,-40.53,-909.18,486.33,5.53,5.11,-8.32,-720.45
17288,841.93,780.38,753.93,767.02,785.81,-32.71,-892.09,494.63,-6.37,7.37,-5.98,-734.70
17323,834.45,785.91,754.20,768.78,785.84,-38.57,-923.34,461.91,-6.15,4.18,-8.69,-772.39
17359,823.97,791.30,754.61,771.62,785.37,-30.76,-899.41,484.37,0.56,4.79,-8.80,-811.27
17394,812.37,796.25,754.97,774.76,784.59,-20.02,-901.86,480.47,1.73,4.54,-8.38,-848.54
17429,800.80,800.73,755.49,778.66,783.92,-23.93,-894.53,480.47,5.11,2.80,-7.02,-889.25
17464,791.00,804.62,755.87,782.90,783.60,-26.37,-915.53,483.89,6.66,3.47,-5.08,-939.67
17502,783.32,807.56,756.43,787.61,783.73,-16.11,-896.97,477.54,7.53,-2.82,-2.08,-992.23
17537,777.66,809.73,757.03,791.82,784.06,-16.11,-905.76,487.79,7.37,-2.77,-3.60,-1037.25
17572,771.83,811.60,757.61,795.57,784.15,-4.39,-914.06,486.82,1.81,-2.68,-2.56,-1072.89
17607,765.97,812.91,758.23,799.51,784.16,-8.30,-911.13,468.75,-5.95,-0.69,-10.82,-1105.89
17643,760.26,814.30,759.13,803.57,784.32,43.46,-895.02,494.63,-7.08,-1.69,-7.15,-1134.93
17678,755.07,816.25,760.18,807.69,784.80,-26.37,-928.22,509.28,-19.69,-2.76,-4.53,-1167.10
17715,752.25,818.11,761.82,810.98,785.79,-45.90,-941.89,512.70,-34.95,-20.55,-22.45,-1180.11
17751,750.97,819.11,763.65,812.27,786.50,-32.71,-965.33,491.21,-51.34,-24.64,-24.58,-1156.94
17786,750.12,818.23,765.62,811.82,786.45,-22.46,-1008.30,491.21,-63.58,-29.10,-40.76,-1091.37
17820,749.44,814.46,767.49,810.38,785.44,1.46,-1033.69,384.77,-55.89,-41.02,-62.89,-990.78
17856,748.96,808.53,768.88,807.55,783.48,43.46,-1038.57,388.67,-60.35,-34.26,-87.87,-865.33
17893,748.65,801.00,769.74,802.56,780.49,95.70,-1048.83,366.21,-55.27,-34.93,-121.89,-709.19
17928,748.21,793.48,769.47,793.97,776.28,135.74,-1095.70,303.71,-58.44,-50.33,-159.15,-527.53
17963,747.68,784.45,766.92,782.69,770.43,177.73,-1469.73,237.79,-77.27,-67.51,-219.10,-350.93
17998,747.12,773.90,762.67,771.77,763.86,303.71,-1989.26,295.90,-75.47,-33.80,-250.14,-209.47
18033,746.74,761.58,756.71,759.48,756.13,1015.62,-1777.83,233.89,-88.73,-16.89,-250.14,-76.78
18068,746.56,756.62,752.07,754.01,752.31,-224.12,-1451.66,230.47,2.27,21.69,-250.14,-71.48
18106,746.58,755.50,751.93,753.32,751.83,-7.32,-1532.71,269.53,-84.23,101.96,-183.73,-55.95
18141,746.51,754.94,751.81,752.98,751.56,-340.82,-780.27,210.94,1.90,162.25,32.64,-49.26
18176,746.45,754.65,751.80,752.88,751.45,-420.41,-299.32,138.67,17.41,136.34,141.65,-45.42
18211,746.47,754.53,751.76,752.81,751.39,-296.87,-307.13,236.33,-30.92,106.11,203.10,-44.68
18247,746.43,754.40,751.75,752.82,751.35,-116.70,-595.70,479.49,-67.34,99.59,250.13,-43.83
18284,746.29,754.41,751.75,752.76,751.30,75.20,-865.72,731.93,-65.36,119.75,250.13,-42.40
18319,746.20,754.52,751.75,752.71,751.30,230.47,-977.05,928.71,-54.21,165.93,242.15,-42.28
18354,746.19,754.86,751.81,752.80,751.41,221.19,-1073.73,1076.66,-50.66,203.13,198.89,-44.84
18389,746.12,755.24,751.84,752.80,751.50,182.13,-1299.32,1137.70,-51.85,180.52,147.92,-47.12
18424,746.09,755.41,751.77,752.74,751.50,487.79,-1425.29,1083.98,-40.93,130.03,133.06,-49.08
18459,745.97,755.35,751.75,752.67,751.43,1069.82,-1217.29,919.92,-115.31,103.40,109.65,-47.72
18496,746.02,755.46,751.68,752.67,751.46,1352.05,-1463.38,1063.96,-105.49,56.88,91.69,-50.35
18531,745.99,755.37,751.75,752.51,751.40,1560.55,-963.87,701.66,66.56,-16.54,30.60,-45.34
18566,748.98,755.39,751.83,752.26,752.11,171.39,1215.33,651.37,165.08,-28.59,-250.14,-50.36
18601,764.48,757.52,751.74,752.19,756.48,-119.63,-533.69,976.07,92.59,69.88,-180.87,-121.74
18635,816.36,763.71,752.15,754.19,771.60,549.80,-286.62,-117.68,250.13,-13.13,-76.69,-368.55
18673,836.73,768.45,752.56,757.27,778.75,372.07,-965.33,559.57,49.87,-45.73,-70.37,-511.55
18708,837.85,771.29,752.67,758.27,780.02,1.95,-924.32,451.66,-8.86,-7.30,-2.24,-550.30
18743,837.63,775.19,752.87,760.76,781.61,-75.20,-904.30,515.14,2.37,-13.15,-3.87,-612.57
18778,839.64,779.32,753.13,763.81,783.98,-51.27,-882.32,496.09,12.72,-2.65,-3.96,-690.91
18813,841.23,783.27,753.48,766.29,786.07,-43.46,-893.55,502.93,4.56,-1.53,-5.58,-755.82
18848,839.43,787.37,753.66,768.70,787.29,-48.34,-903.32,482.42,-0.63,-0.94,-6.74,-813.44
18886,833.54,791.45,753.94,770.49,787.35,-40.53,-906.25,485.35,-3.39,2.78,-4.47,-845.47
18921,825.11,794.08,754.10,771.41,786.18,-26.37,-906.25,469.73,-3.94,5.63,-7.27,-847.02
18956,816.83,796.04,754.19,772.20,784.81,-29.30,-900.39,483.40,-4.22,7.31,-5.78,-843.76
18991,810.73,798.29,754.26,773.39,784.17,-31.25,-896.00,482.91,1.23,5.27,-2.34,-856.78
19026,806.69,800.49,754.51,774.97,784.16,-21.00,-886.72,473.63,8.27,5.63,-3.76,-877.55
19061,804.44,802.38,754.67,776.54,784.51,-31.25,-899.41,498.54,8.94,0.72,-2.92,-903.97
19099,802.32,804.63,755.05,778.67,785.17,-21.48,-915.04,495.61,8.83,4.58,-6.79,-936.76
19134,799.39,806.83,755.20,780.67,785.52,-21.00,-902.83,490.72,8.76,2.56,-4.79,-969.91
19169,794.62,809.14,755.65,783.42,785.71,-35.64,-902.83,488.28,9.13,0.31,-6.56,-1001.50
19204,786.08,812.21,756.27,787.13,785.42,-40.53,-889.65,489.75,4.82,2.43,-9.75,-1035.95
19239,775.40,815.71,757.11,791.51,784.93,-15.14,-882.32,505.37,1.21,-1.57,-13.48,-1071.05
19274,764.59,818.83,758.14,795.61,784.29,-30.76,-902.34,514.65,-7.26,1.13,-9.45,-1093.49
19312,755.26,821.13,759.19,798.27,783.46,14.65,-881.84,505.37,-25.27,-0.35,-12.90,-1093.00
19347,750.60,821.05,759.95,798.13,782.43,-68.85,-968.26,574.71,-48.57,-12.84,-16.19,-1055.49
19382,748.87,816.67,760.77,795.63,780.48,-1.46,-1053.71,565.43,-63.18,-28.62,-28.37,-957.12
19417,747.85,804.11,761.74,791.10,776.20,-94.24,-1159.18,408.69,-30.19,-65.89,-59.22,-761.95
19452,747.44,787.08,761.51,781.68,769.43,-91.31,-1221.68,575.68,-35.63,-64.24,-117.34,-491.09
19490,746.96,770.32,758.88,768.66,761.20,-105.96,-1895.02,336.43,-29.42,-92.40,-199.83,-228.87
19525,746.49,761.31,755.46,760.68,755.99,141.60,-1705.08,715.33,51.18,-72.43,-247.95,-122.63
19560,746.41,757.58,752.95,754.85,752.95,92.77,-1462.40,236.33,101.06,-84.79,-241.15,-69.11
19595,746.60,756.38,752.04,753.27,752.07,-346.19,-572.27,156.25,132.81,-49.37,-186.38,-59.83
19630,746.59,755.80,752.04,753.01,751.86,-278.81,-492.19,21.00,29.10,34.63,-7.93,-51.24
19665,746.50,755.13,751.86,752.85,751.58,-231.93,-273.93,30.27,20.15,64.31,73.61,-47.64
19703,746.50,754.84,751.82,752.72,751.47,-204.59,-300.29,125.98,-13.55,89.52,114.39,-44.50
19738,746.48,754.67,751.89,752.69,751.43,-131.84,-461.91,235.84,-27.28,85.68,135.79,-40.64
19773,746.35,754.55,751.76,752.63,751.32,-68.85,-673.83,400.88,-50.64,69.72,151.20,-41.62
19808,746.33,754.60,751.76,752.63,751.33,159.18,-1011.23,577.64,-66.03,59.50,176.25,-42.05
19843,746.23,754.53,751.70,752.69,751.28,312.99,-1183.59,647.95,-63.33,54.96,188.73,-43.52
19881,746.14,754.58,751.74,752.71,751.29,374.02,-1292.97,677.73,-47.88,33.22,161.27,-42.90
19915,746.13,754.63,751.76,752.67,751.30,347.17,-1282.71,626.46,-38.82,14.80,134.34,-42.13
19950,746.14,754.61,751.82,752.66,751.31,374.51,-1270.51,548.83,-35.94,3.95,111.46,-40.38
19985,746.16,754.54,751.76,752.57,751.26,366.21,-1132.81,466.31,-42.10,-0.35,91.20,-40.10
20020,746.14,754.41,751.76,752.54,751.21,338.87,-1004.39,451.17,-39.42,-16.40,71.04,-38.51
20055,746.12,754.47,751.75,752.58,751.23,295.41,-933.59,432.13,-47.14,-20.53,48.31,-39.76
20093,746.09,754.40,751.77,752.48,751.19,287.60,-948.73,338.38,-39.75,-21.08,21.98,-37.22
20128,746.12,754.44,751.79,752.47,751.20,164.06,-996.09,281.25,-6.17,-13.21,23.70,-36.94
20163,746.15,754.55,751.71,752.51,751.23,-37.60,-793.46,250.49,-8.44,-4.04,13.41,-40.47
20198,746.18,754.61,751.70,752.46,751.24,-33.20,-886.72,257.81,-16.33,-4.26,19.63,-40.51
20233,746.83,754.52,751.75,752.26,751.34,-1507.81,348.63,388.18,250.13,-87.72,-85.18,-37.87
20270,751.95,755.10,751.75,752.20,752.75,-31.74,-1176.27,624.51,60.60,-87.60,-115.83,-59.18
20305,761.30,756.50,751.78,753.46,755.76,295.90,-1771.48,781.74,124.39,1.09,-153.08,-120.30
20341,779.03,760.78,752.36,755.12,761.82,400.39,-723.63,1003.42,89.92,1.55,-29.01,-225.47
20376,782.77,761.80,752.60,756.87,763.51,-14.16,-801.27,638.67,9.67,3.45,-3.82,-266.45
20411,779.80,763.28,753.14,759.69,763.98,-57.13,-890.62,454.59,14.26,-3.91,-5.15,-296.12
20446,779.02,765.36,753.96,763.64,765.50,-37.11,-887.70,496.58,22.57,-8.22,-3.88,-347.86
20484,784.64,768.59,755.07,768.27,769.14,-33.20,-846.68,549.32,33.31,-7.32,-6.01,-433.35
20519,796.08,772.41,755.64,771.68,773.95,-21.48,-846.19,559.57,24.81,-0.63,-2.27,-539.45
20554,809.04,776.56,755.99,774.60,779.05,-37.60,-864.26,522.95,19.37,-3.49,-4.47,-651.32
20589,819.20,780.02,756.25,776.01,782.87,-34.67,-856.45,562.50,9.76,-0.89,-6.95,-728.17
20624,824.66,781.95,756.01,775.75,784.60,-37.60,-860.84,537.11,-1.53,0.05,-0.83,-764.53
20660,826.26,782.13,755.78,774.63,784.70,-24.41,-876.95,536.62,-5.75,-0.43,-1.15,-760.79
20698,826.81,780.96,755.53,773.03,784.08,-28.81,-866.21,537.11,-3.90,-0.74,2.31,-735.90
20733,827.53,779.69,755.13,771.47,783.45,-29.30,-880.86,539.06,-4.65,0.68,-1.79,-715.30
20768,831.01,778.22,754.78,769.52,783.38,-33.69,-875.98,536.62,-1.71,2.47,1.43,-695.50
20803,837.56,776.82,754.35,767.47,784.05,-37.11,-874.51,543.95,-0.88,1.68,0.60,-687.23
20838,846.32,775.75,754.17,766.22,785.62,-25.88,-878.42,548.83,0.89,-0.39,-0.64,-694.72
20873,853.47,775.30,754.08,765.73,787.15,-37.11,-886.23,537.60,-0.31,-0.02,-1.62,-710.67
20911,858.06,774.93,753.82,765.20,788.00,-46.39,-871.09,533.20,-0.21,4.79,-2.89,-722.10
20946,859.58,774.69,753.95,764.91,788.28,-35.16,-864.75,548.34,-2.44,2.94,-0.86,-718.01
20982,859.05,774.42,753.87,764.71,788.01,-38.57,-871.09,539.55,-4.24,1.43,-2.58,-713.04
21017,857.42,774.32,753.86,764.75,787.59,-28.81,-877.93,527.34,-1.43,0.78,-0.21,-707.51
21052,856.01,773.95,753.84,764.41,787.05,-22.46,-877.44,543.46,-1.63,2.04,-0.63,-694.99
21090,854.72,773.29,753.80,763.57,786.34,-26.86,-885.25,521.00,-6.67,2.99,-0.88,-673.99
21125,851.80,772.03,753.57,762.44,784.96,-52.25,-880.37,546.39,-7.60,2.06,-1.70,-643.03
21161,846.21,770.44,753.40,761.03,782.77,-37.11,-864.26,543.95,-7.99,1.30,-1.06,-594.37
21196,837.35,768.47,753.16,759.73,779.68,-37.60,-879.88,528.32,-11.32,1.31,2.51,-535.14
21231,825.84,766.32,753.00,758.44,775.90,-32.23,-885.25,520.51,-17.15,-1.26,4.34,-463.44
21266,808.62,763.16,752.69,756.80,770.32,-62.01,-893.07,514.16,-33.94,3.38,4.93,-362.59
21304,779.52,759.73,752.26,755.08,761.65,-86.91,-930.18,435.55,-62.12,2.05,7.00,-220.61
21339,756.97,757.29,752.10,753.97,755.08,-174.32,-1099.61,349.61,-85.86,-7.97,-3.27,-111.44
21374,750.51,755.78,751.93,753.31,752.89,96.19,-1233.89,566.89,-56.76,20.26,-42.35,-71.56
21409,749.78,755.18,751.85,752.70,752.38,-106.45,-1007.32,274.90,7.24,2.92,-63.60,-57.42
21445,749.48,754.98,751.83,752.55,752.21,-155.27,-778.32,224.61,-59.45,-33.82,-21.53,-53.05
21480,749.34,755.08,751.82,752.49,752.18,-151.86,-801.76,325.68,-43.22,-44.98,27.57,-52.56
21518,749.26,755.11,751.85,752.42,752.16,-58.59,-902.83,334.96,-12.61,-22.99,78.60,-50.90
21553,748.92,755.24,751.85,752.42,752.11,21.48,-809.08,279.30,10.36,-12.11,96.43,-50.68
21587,751.03,756.29,751.82,753.28,753.10,429.69,-211.91,1337.40,217.35,-35.23,-92.52,-79.91
21622,760.57,758.31,752.13,755.26,756.57,-229.00,-1000.49,871.58,80.56,51.25,2.18,-150.01
21657,765.01,760.69,752.33,756.53,758.64,-32.71,-905.76,537.60,12.53,1.47,-10.69,-198.21
21695,762.78,762.77,752.44,757.40,758.84,-44.43,-886.23,508.30,-3.13,-0.55,-11.31,-217.31
21730,761.68,765.28,752.56,758.38,759.47,-45.90,-927.25,445.80,5.00,2.16,-8.71,-245.01
21764,763.48,767.39,752.83,759.84,760.88,-61.52,-930.18,452.64,18.89,-2.52,-4.27,-283.01
21799,767.78,768.90,753.01,761.41,762.78,-33.69,-892.09,504.39,21.31,-1.50,-1.31,-328.50
21834,771.37,770.04,753.12,762.55,764.27,-59.57,-894.53,512.21,10.98,-2.37,-0.10,-363.91
21869,772.19,771.54,753.33,763.66,765.18,-45.41,-891.11,504.88,5.87,0.24,-0.76,-389.94
21906,772.71,773.42,753.49,765.32,766.23,-42.97,-895.02,495.12,7.46,-2.11,-2.55,-427.09
21941,774.61,775.12,753.69,766.96,767.59,-35.64,-893.55,498.54,12.40,-2.34,-0.81,-466.59
21977,777.06,776.36,753.95,768.22,768.90,-24.90,-888.18,532.71,9.22,-1.82,-1.34,-496.81
22012,778.73,776.81,753.95,768.76,769.56,-25.88,-872.07,526.86,3.79,-2.10,-0.44,-514.23
22047,780.33,776.80,753.94,769.08,770.04,-37.11,-885.25,519.04,5.37,-0.43,-2.15,-524.57
22082,781.20,776.61,754.04,768.98,770.21,-36.62,-884.77,537.11,2.06,-1.17,1.05,-522.15
22119,780.96,775.97,753.89,768.36,769.80,-27.34,-880.86,521.48,-1.59,4.08,0.81,-510.89
22155,780.61,775.33,753.78,767.74,769.37,-29.79,-885.25,530.76,-3.99,1.33,-1.48,-498.04
22190,780.25,774.74,753.71,767.27,768.99,-29.30,-867.68,531.25,-3.73,0.69,1.10,-486.96
22224,780.40,774.12,753.68,766.74,768.73,-24.90,-891.11,528.32,-2.76,-1.05,1.33,-475.23
22260,780.66,773.51,753.59,766.21,768.49,-20.51,-886.72,526.86,-1.77,-1.49,2.51,-465.88
22295,781.10,772.99,753.63,765.78,768.38,-32.23,-862.79,522.46,-2.02,2.31,-1.24,-455.79
22332,781.31,772.36,753.50,765.29,768.12,-36.62,-878.91,517.09,-0.68,-0.75,2.36,-447.56
22367,782.02,771.85,753.50,764.89,768.06,-47.85,-890.14,515.14,-0.37,1.28,-2.15,-440.06
22402,782.58,771.67,753.42,764.86,768.13,-27.34,-886.72,527.34,-0.60,1.68,-0.94,-441.94
22437,782.47,771.65,753.42,764.84,768.09,-22.46,-875.98,524.90,-0.60,-1.24,-1.67,-440.99
22472,782.46,771.61,753.44,764.95,768.11,-38.09,-892.58,517.58,0.78,-1.22,1.67,-441.76
22510,781.94,772.00,753.43,765.31,768.17,-41.02,-873.05,512.70,1.36,2.53,-1.79,-448.76
22545,781.65,772.38,753.42,765.72,768.29,-33.20,-884.77,516.60,-0.23,2.36,-2.05,-456.97
22580,781.19,772.93,753.60,766.38,768.52,-33.69,-879.88,522.95,1.51,1.22,-3.02,-465.04
22615,780.44,773.49,753.65,767.07,768.66,-43.46,-880.86,528.81,2.34,-1.76,-0.94,-476.00
22650,779.01,773.85,753.70,767.53,768.52,-49.80,-883.30,528.32,-0.55,1.20,0.52,-479.61
22685,777.10,774.08,753.84,768.08,768.28,-37.11,-873.54,527.34,-1.27,-0.83,1.67,-479.37
22722,775.29,774.26,753.82,768.50,767.96,-30.76,-872.56,523.93,-0.76,0.34,-3.33,-481.32
22758,774.02,774.50,753.93,768.84,767.82,-40.04,-879.88,502.44,-0.69,0.85,0.02,-481.18
22793,773.02,774.66,753.91,769.07,767.66,-27.34,-866.70,528.81,-0.27,1.41,-0.21,-482.83
22827,771.96,774.75,754.00,769.30,767.50,-30.76,-879.88,517.58,-1.34,0.82,-1.52,-481.28
22863,770.90,774.89,754.00,769.53,767.33,-22.95,-881.84,532.23,-0.77,1.89,-1.66,-481.97
22898,769.95,774.90,754.04,769.56,767.11,-31.25,-878.42,517.58,-1.74,2.31,-0.55,-478.27
22936,768.99,774.83,754.04,769.64,766.87,-31.74,-883.79,522.46,-2.35,-0.73,-2.16,-475.49
22971,768.76,774.73,754.07,769.63,766.80,-30.76,-873.05,525.88,-1.68,0.89,-0.05,-473.25
23006,769.07,774.68,753.99,769.52,766.81,-27.34,-863.77,508.30,0.39,-1.33,-1.79,-474.04
23041,770.14,774.69,753.97,769.37,767.05,-26.86,-872.07,528.81,3.48,-1.02,0.83,-476.26
23076,771.63,774.65,753.93,769.01,767.31,-33.20,-879.39,535.16,2.99,1.04,-0.23,-476.62
23111,772.47,774.51,753.90,768.67,767.39,-31.74,-894.53,514.16,-0.08,-1.28,0.92,-474.02
23149,772.66,774.52,753.83,768.42,767.36,-29.79,-886.23,520.51,-0.38,-0.88,-1.08,-472.99
23184,773.50,774.49,753.88,768.25,767.53,-35.64,-884.28,506.35,0.89,-0.12,1.36,-471.86
23218,774.25,774.51,753.85,768.10,767.68,-31.74,-869.14,519.53,0.45,-0.31,0.47,-473.00
23253,773.72,774.31,753.80,767.91,767.44,-51.76,-885.25,528.81,-0.34,-0.98,0.08,-468.09
23288,772.90,774.01,753.76,767.71,767.10,-30.76,-883.79,519.53,-1.53,-2.23,-0.75,-460.99
23326,772.45,773.63,753.75,767.57,766.85,-41.02,-879.39,520.51,-0.42,0.85,-1.03,-454.49
23361,772.17,773.53,753.80,767.50,766.75,-41.50,-886.23,521.00,-1.47,0.15,0.78,-450.65
23396,772.51,773.32,753.71,767.32,766.71,-34.67,-874.02,514.16,0.32,-0.91,-2.10,-449.65
23430,773.10,773.23,753.68,767.05,766.76,-26.37,-878.91,515.14,0.95,0.56,-2.67,-447.70
23465,773.56,773.10,753.71,766.58,766.74,-40.04,-889.65,528.32,-2.95,1.34,-1.83,-440.48
23500,773.74,772.97,753.71,766.17,766.65,-27.83,-879.88,528.32,-1.37,-0.48,-0.08,-434.06
23538,774.30,772.90,753.67,765.89,766.69,-41.99,-885.25,513.18,1.16,2.18,1.66,-432.30
23573,775.27,772.91,753.56,765.64,766.85,-35.16,-873.05,527.34,1.05,1.71,-0.17,-434.71
23608,776.67,772.99,753.55,765.34,767.14,-33.20,-882.32,533.20,-1.40,1.04,-2.05,-436.12
23643,777.95,773.03,753.54,764.98,767.38,-24.90,-887.70,507.32,1.11,0.44,-1.15,-435.66
23678,778.95,772.98,753.54,764.70,767.54,-42.48,-889.65,518.07,-0.29,2.39,-4.26,-434.66
23713,779.67,772.92,753.45,764.41,767.61,-30.27,-885.25,517.09,-2.02,0.98,-0.30,-434.58
23751,780.60,773.07,753.44,764.34,767.86,-34.67,-882.81,512.21,-1.18,2.95,0.23,-438.31
23786,781.45,773.08,753.47,764.33,768.08,-26.86,-888.18,514.16,1.40,-0.14,-2.24,-440.20
23821,782.49,773.25,753.48,764.44,768.42,-45.41,-885.25,515.62,1.36,1.64,-1.25,-446.59
23857,783.36,773.38,753.40,764.51,768.66,-36.62,-886.23,516.60,1.85,0.82,-1.66,-453.55
23892,784.06,773.40,753.46,764.67,768.90,-30.76,-876.46,503.42,-0.63,-0.26,-1.34,-457.01
23927,784.34,773.58,753.50,764.80,769.06,-26.37,-878.42,521.48,1.08,-0.59,0.07,-460.37
23965,784.88,773.65,753.57,764.90,769.25,-40.53,-887.70,523.93,1.38,-4.69,-1.10,-462.62
24001,785.50,773.67,753.55,765.16,769.47,-17.58,-875.49,529.30,0.80,1.13,-0.25,-469.29
24036,786.48,773.73,753.60,765.35,769.79,-30.27,-877.93,527.34,0.70,-0.76,-1.88,-474.59
24071,787.21,773.75,753.63,765.37,769.99,-17.09,-871.09,516.11,-1.22,-1.29,-2.40,-476.90
24106,787.66,773.64,753.59,765.22,770.03,-36.62,-882.32,521.00,0.79,-1.82,-0.18,-476.22
24141,787.75,773.45,753.54,764.88,769.91,-23.44,-881.35,517.09,0.39,2.46,-1.02,-471.25
24179,787.55,773.07,753.44,764.56,769.65,-37.60,-891.11,527.83,-3.04,1.39,-0.06,-465.29
24214,787.43,772.72,753.51,764.30,769.49,-39.06,-889.16,505.37,-1.86,1.34,0.50,-456.63
24249,787.07,772.27,753.45,763.96,769.19,-43.95,-879.39,513.67,-0.52,1.56,-0.86,-448.37
24284,786.49,771.50,753.45,763.28,768.68,-28.81,-881.35,517.09,-2.35,0.73,2.53,-429.96
24319,785.88,770.63,753.38,762.55,768.11,-40.53,-892.58,516.11,-3.40,0.69,0.59,-411.90
24357,785.16,769.36,753.19,761.39,767.28,-24.90,-888.67,531.74,-4.02,0.18,2.11,-386.93
24392,784.12,767.70,753.01,759.80,766.16,-42.48,-892.58,531.74,-10.15,0.47,4.47,-351.13
24427,781.29,765.27,752.76,757.54,764.22,-38.09,-892.09,499.02,-21.72,1.55,5.83,-294.92
24463,775.31,762.31,752.50,755.42,761.39,-44.92,-897.46,483.89,-31.78,1.54,4.23,-225.92
24498,769.42,759.93,752.22,753.78,758.84,-21.48,-901.86,475.10,-37.12,-0.56,10.24,-169.53
24533,765.77,758.28,752.15,752.93,757.28,-23.93,-915.04,478.52,-30.50,-1.46,8.28,-132.89
24571,763.72,757.47,752.05,752.72,756.49,32.23,-963.38,496.09,-35.15,24.82,24.82,-118.78
24606,762.68,757.09,751.97,752.66,756.10,-91.80,-965.82,468.26,-5.33,29.63,16.18,-113.31
24641,762.91,756.92,751.99,752.65,756.12,-156.74,-874.02,387.21,13.69,31.13,2.54,-112.07
24676,763.11,756.66,751.98,752.72,756.12,-113.77,-837.40,441.41,13.25,35.18,-24.97,-112.00
24711,763.27,756.60,752.03,753.09,756.25,-226.56,-812.50,374.51,19.98,32.57,-54.82,-116.40
24747,764.35,757.22,752.07,754.36,757.00,362.30,-1637.70,509.28,-1.13,17.31,-32.89,-142.65
24785,766.99,758.03,752.20,755.27,758.12,-187.50,-1028.32,329.10,13.08,7.34,-8.76,-168.38
24820,768.24,758.88,752.26,756.13,758.88,-86.43,-922.85,389.16,6.33,6.84,-3.93,-190.46
24855,769.17,759.85,752.40,756.95,759.59,-61.04,-926.27,436.52,4.95,1.63,-4.38,-210.18
24890,771.29,761.06,752.57,757.80,760.68,-45.41,-908.69,485.84,8.21,1.87,-3.65,-235.53
24925,774.50,762.43,752.62,758.61,762.04,-40.04,-894.04,472.17,9.78,1.08,-6.09,-268.18
24963,778.71,764.23,752.67,759.57,763.79,-40.53,-880.37,490.23,10.69,0.79,-3.77,-309.90
24998,783.16,765.91,752.86,760.44,765.59,-45.41,-891.60,496.58,11.55,0.50,-5.82,-346.74
25033,788.82,767.67,752.97,761.17,767.66,-26.37,-893.55,524.90,5.41,1.56,-3.18,-388.26
25068,794.94,769.32,753.04,761.82,769.78,-43.46,-900.39,503.91,4.97,0.01,-0.66,-430.40
25103,800.18,770.19,753.10,762.30,771.44,-41.50,-884.77,519.53,5.08,-2.60,-2.51,-460.66
25138,804.96,770.76,753.14,762.44,772.82,-42.97,-870.61,512.70,1.06,1.10,-0.37,-482.94
25175,809.96,771.24,753.14,762.63,774.24,-40.53,-887.70,519.53,0.60,1.76,-0.19,-506.60
25210,813.20,771.50,753.17,762.92,775.20,-52.25,-886.72,522.46,2.92,-2.41,-0.76,-523.37
25246,814.83,771.56,753.23,763.12,775.68,-36.13,-878.91,505.37,-0.19,-2.26,-0.31,-530.89
25281,815.95,771.65,753.20,763.49,776.07,-35.16,-879.88,529.30,2.68,0.07,0.93,-541.65
25316,816.44,771.79,753.26,763.61,776.27,-36.13,-883.30,522.95,1.34,0.00,-1.01,-544.74
25351,816.84,771.69,753.22,763.47,776.31,-35.16,-874.02,527.83,-2.69,0.30,0.16,-544.26
25418,818.07,771.39,753.25,763.21,776.48,-39.55,-874.51,519.53,-2.10,0.76,0.74,-541.52
25453,818.40,771.09,753.14,763.02,776.41,-42.97,-876.46,508.79,-1.56,0.63,2.02,-540.09
25488,818.45,770.69,753.20,762.71,776.26,-39.55,-881.35,510.25,0.36,-1.53,-1.82,-530.96
25523,818.59,770.16,753.08,762.27,776.02,-57.13,-875.00,529.30,-3.56,-0.45,0.44,-523.83
25558,819.13,769.54,753.06,761.59,775.83,-38.09,-881.35,520.02,-3.82,-0.51,0.24,-511.11
25593,820.20,768.86,753.00,760.81,775.72,-43.46,-885.25,524.41,-2.08,3.54,-0.35,-499.37
25630,821.44,768.24,752.94,760.12,775.68,-40.04,-887.70,509.28,-2.20,1.26,1.33,-490.07
25665,822.50,767.97,752.88,759.71,775.77,-50.78,-878.42,512.70,-1.38,1.88,-1.30,-486.98
25700,823.42,767.62,752.90,759.03,775.74,-52.73,-893.07,509.77,-3.93,0.50,0.63,-476.76
25735,824.44,767.16,752.78,758.20,775.65,-41.50,-893.07,512.70,-5.36,3.18,0.65,-467.39
25770,825.94,766.54,752.67,757.34,775.62,-56.15,-887.70,514.65,-5.54,0.73,-0.64,-457.73
25804,826.84,765.86,752.66,756.48,775.46,-35.64,-886.23,499.02,-4.44,2.99,4.04,-442.82
25842,827.28,765.15,752.52,755.67,775.16,-52.25,-885.74,498.54,-4.74,0.79,0.87,-430.29
25877,827.19,764.47,752.37,755.24,774.82,-48.34,-894.53,508.79,-4.48,-0.07,0.28,-421.91
25912,827.17,763.84,752.44,754.86,774.58,-36.62,-897.46,487.79,-4.21,-1.02,2.89,-409.33
25946,826.74,763.28,752.35,754.62,774.25,-56.15,-898.44,501.46,-2.60,-0.82,0.49,-402.07
25981,825.67,762.72,752.30,754.37,773.76,-44.92,-890.62,501.46,-3.17,-0.38,0.63,-391.46
26019,823.77,762.45,752.31,754.29,773.20,-52.73,-891.60,481.93,-1.99,-0.50,0.67,-381.49
26053,822.47,762.26,752.34,754.32,772.85,-53.22,-894.53,494.14,-0.36,1.18,-0.11,-375.09
26088,821.50,762.29,752.38,754.41,772.65,-46.88,-891.60,498.54,2.92,-4.08,1.51,-372.48
26123,820.81,762.22,752.29,754.53,772.46,-39.06,-882.32,497.56,0.57,-2.98,0.11,-373.49
26158,819.92,762.26,752.35,754.53,772.26,-47.36,-886.72,498.54,3.15,0.71,-2.77,-369.19
26193,819.35,762.28,752.36,754.67,772.17,-43.46,-905.76,480.96,-0.63,-2.27,-1.80,-369.15
26230,819.06,762.36,752.39,754.83,772.16,-44.43,-896.00,494.14,2.27,-0.24,-3.24,-370.40
26265,818.98,762.56,752.39,754.91,772.21,-47.36,-893.55,493.65,0.48,3.47,0.51,-372.99
26300,819.10,762.60,752.36,754.81,772.22,-53.22,-897.95,492.68,0.11,1.10,-0.52,-373.01
26336,820.31,762.58,752.31,754.55,772.44,-48.34,-887.70,502.93,-4.93,-0.64,-0.05,-374.41
26371,821.53,762.39,752.32,754.23,772.62,-42.97,-912.60,486.82,-3.12,0.56,0.63,-372.18
26406,821.77,762.34,752.29,754.08,772.62,-52.73,-889.16,507.32,-3.83,2.88,1.10,-371.15
26443,821.95,762.61,752.35,754.00,772.73,-54.69,-887.21,494.14,-3.50,2.04,-1.45,-371.28
26478,822.96,763.07,752.34,754.09,773.11,-61.52,-903.81,485.84,-2.35,1.48,-2.16,-379.92
26512,824.17,763.22,752.29,754.00,773.42,-38.57,-917.48,488.28,-1.59,2.01,-3.27,-385.12
26547,824.11,763.22,752.31,754.08,773.43,-51.27,-901.37,466.31,-1.77,0.67,0.21,-385.67
26582,823.66,763.29,752.23,753.90,773.27,-50.78,-896.97,478.52,-3.48,3.22,-2.85,-384.09
26617,822.17,763.27,752.20,753.74,772.84,-49.32,-896.00,477.05,-7.89,4.86,-2.01,-377.06
26654,820.68,763.32,752.24,753.70,772.48,-44.92,-909.67,471.68,-5.18,0.06,-2.60,-370.71
26689,820.06,763.32,752.31,753.49,772.29,-43.95,-921.87,458.98,-3.40,1.72,-1.80,-363.96
26723,820.29,763.06,752.26,753.38,772.25,-52.25,-918.46,467.29,-2.33,0.31,-1.44,-362.18
26758,820.87,763.01,752.29,753.36,772.38,-46.39,-900.39,464.36,0.98,2.02,-1.17,-362.71
26793,820.85,763.19,752.38,753.41,772.45,-49.80,-921.87,458.01,-0.46,-0.61,-1.05,-362.61
26830,821.22,763.50,752.33,753.66,772.68,-36.62,-907.71,464.84,1.04,2.42,-1.56,-371.48
26865,822.24,763.97,752.42,754.05,773.17,-46.88,-916.50,467.77,6.44,0.14,-0.22,-382.04
26900,823.47,764.38,752.39,754.28,773.63,-37.11,-907.71,476.07,5.10,-2.28,-0.08,-393.79
26934,823.95,764.49,752.51,754.49,773.86,-48.34,-892.09,494.14,3.80,1.80,-1.80,-396.33
26969,822.86,764.50,752.50,754.57,773.61,-48.83,-881.35,497.07,-1.03,1.94,1.04,-394.16
27004,821.50,764.42,752.49,754.60,773.26,-50.29,-900.39,481.93,-0.92,0.04,0.50,-389.62
27042,820.50,764.52,752.50,754.92,773.11,-42.97,-882.81,483.89,0.71,0.54,-2.46,-391.48
27077,819.24,764.86,752.53,755.39,773.01,-47.36,-909.67,475.10,4.60,0.50,-0.82,-395.81
27112,818.33,765.45,752.54,756.05,773.09,-42.97,-912.60,491.21,9.13,0.37,-1.35,-407.09
27147,818.00,766.23,752.69,756.62,773.38,-31.74,-896.00,491.70,4.60,-0.64,-2.39,-416.70
27181,816.82,766.73,752.72,756.80,773.27,-50.29,-884.28,510.25,1.99,1.85,-0.68,-418.49
27216,814.88,766.80,752.69,756.58,772.74,-33.69,-875.98,497.56,-5.95,3.74,-0.24,-409.95
27254,812.57,766.61,752.65,756.15,772.00,-40.53,-897.95,494.63,-7.48,4.11,-0.91,-395.21
27289,811.09,766.48,752.60,755.79,771.49,-49.32,-890.14,493.65,-8.11,4.76,0.98,-385.14
27324,811.78,766.79,752.65,755.69,771.73,-51.27,-906.25,477.05,-4.43,2.40,0.04,-387.28
27359,813.70,767.21,752.63,755.91,772.36,-57.62,-920.90,466.31,0.80,-3.56,-2.21,-400.94
27394,811.77,767.20,752.75,756.30,772.00,-38.57,-917.48,464.84,2.06,-2.24,-1.60,-396.92
27429,808.07,767.27,752.79,756.82,771.24,-50.29,-905.27,484.86,2.83,-1.40,0.05,-391.46
27467,804.30,767.60,752.94,757.52,770.59,-37.11,-906.25,493.16,8.06,-1.42,0.44,-387.89
27502,802.08,767.80,753.05,758.23,770.29,-53.71,-898.93,492.19,5.17,-3.14,-2.53,-389.31
27536,800.19,768.18,753.23,758.99,770.15,-41.99,-891.60,495.12,4.76,-2.78,-2.36,-392.76
27571,796.87,768.39,753.34,759.62,769.55,-38.57,-900.88,490.72,2.66,-1.35,-0.79,-389.55
27606,792.30,768.63,753.46,760.31,768.67,-35.64,-876.46,515.14,3.13,0.40,-2.79,-382.95
27641,788.35,768.89,753.60,760.95,767.95,-39.06,-907.71,489.75,1.45,-1.16,0.60,-377.56
27679,784.22,768.79,753.71,761.10,766.95,-34.18,-874.51,513.18,-1.80,-1.91,-1.83,-361.80
27714,781.80,768.28,753.61,760.39,766.02,-35.64,-904.79,497.07,-7.01,-0.76,1.33,-341.53
27749,781.86,767.53,753.49,759.96,765.71,-56.64,-891.11,479.49,-2.40,-1.82,1.00,-332.54
27783,784.59,766.63,753.39,759.19,765.95,-36.62,-894.04,503.91,-2.21,-2.83,2.65,-325.65
27818,787.18,766.16,753.26,758.63,766.31,-70.80,-906.25,491.21,-8.54,-1.66,0.22,-325.87
27856,790.88,766.37,753.25,758.39,767.22,-22.95,-922.85,472.17,-2.27,2.21,0.24,-337.08
27891,797.55,766.59,753.18,757.60,768.73,-41.99,-902.83,499.51,-2.79,4.60,-1.86,-351.72
27926,805.85,766.19,753.03,756.10,770.29,-49.32,-906.74,494.63,-17.40,5.09,0.19,-358.56
27961,810.16,765.10,752.93,755.47,770.92,-49.80,-940.92,448.73,-14.26,-0.60,1.25,-357.92
27996,814.59,764.58,752.87,754.92,771.74,-25.88,-903.32,458.98,-8.54,2.00,-0.07,-362.38
28031,818.70,764.41,752.75,754.37,772.56,-38.09,-896.97,477.05,-11.19,1.75,-0.80,-369.86
28068,819.83,764.17,752.68,754.01,772.67,-59.08,-906.74,436.52,-12.07,2.73,1.18,-368.46
28103,820.58,764.46,752.68,754.05,772.94,-40.53,-924.80,439.45,-2.99,4.42,-2.95,-373.79
28138,820.28,764.55,752.63,753.88,772.84,-49.32,-921.39,440.43,-7.98,0.08,-1.60,-372.29
28172,819.10,764.52,752.61,753.49,772.43,-38.57,-899.41,444.82,-12.72,1.92,-2.07,-362.76
28208,820.87,764.23,752.55,752.88,772.63,-39.55,-925.78,460.94,-15.17,4.02,-0.98,-358.92
28242,822.52,763.53,752.44,752.40,772.72,-69.34,-904.30,470.21,-20.27,1.97,0.27,-354.91
28280,824.53,763.08,752.36,752.11,773.02,-74.22,-954.59,363.77,-12.96,1.63,-0.68,-355.56
28315,826.14,763.12,752.40,752.06,773.43,-70.80,-912.11,391.60,-4.35,0.56,-1.94,-359.82
28350,824.13,763.24,752.42,752.14,772.98,-93.75,-944.82,384.28,-0.57,-1.11,-2.86,-354.53
28384,823.65,763.78,752.57,752.31,773.08,-51.27,-930.66,407.71,7.55,-1.59,-3.05,-356.24
28419,822.61,764.77,752.56,752.62,773.14,-52.25,-928.22,417.97,5.78,2.68,-5.89,-365.28
28454,821.08,765.21,752.71,752.80,772.95,-54.20,-926.76,396.48,2.99,1.70,-3.80,-362.29
28491,819.25,765.53,752.70,753.32,772.70,-61.04,-924.80,416.99,1.94,-0.07,-1.69,-366.58
28526,817.25,766.19,752.85,754.03,772.58,-34.18,-928.71,449.22,7.66,-0.34,-6.12,-371.94
28561,814.79,766.59,753.01,754.52,772.23,-59.57,-940.92,388.18,3.80,-0.95,-2.18,-369.82
28596,812.95,766.64,753.20,755.21,772.00,-48.34,-944.82,411.13,5.89,1.79,-1.66,-369.23
28631,810.86,766.58,753.34,755.56,771.59,-21.48,-910.16,471.68,5.74,-4.05,-2.65,-363.16
28668,808.87,766.13,753.41,755.76,771.04,-29.30,-933.59,407.71,0.59,0.07,-1.76,-354.02
28703,807.43,765.59,753.44,755.85,770.58,-49.32,-930.18,426.76,-0.13,-4.13,2.46,-345.33
28738,806.80,765.43,753.52,755.88,770.41,-47.85,-914.06,441.89,-0.65,-0.58,0.40,-340.37
28773,805.60,765.35,753.48,755.62,770.01,-17.58,-911.13,450.68,-0.29,-0.44,-0.36,-332.76
28808,805.13,765.28,753.40,755.44,769.81,-28.81,-929.20,427.73,-1.62,1.23,0.40,-329.91
28843,804.40,765.33,753.41,755.47,769.65,-47.36,-925.29,434.57,0.33,3.92,-2.53,-328.20
28881,803.93,766.61,753.41,755.84,769.95,-34.67,-918.46,445.80,0.02,2.33,-3.00,-342.17
28916,804.13,767.69,753.40,755.64,770.22,-36.13,-932.62,429.69,-2.79,2.01,-1.98,-348.85
28951,805.15,768.36,753.26,755.55,770.58,-39.06,-920.90,425.29,-1.82,3.98,-1.57,-359.85
28986,806.55,768.86,753.31,755.14,770.97,-23.93,-908.69,448.24,-4.16,3.41,1.82,-361.28
29021,807.65,769.68,753.33,755.09,771.44,-44.43,-937.99,405.76,-6.12,3.35,-1.44,-370.56
29056,809.48,770.36,753.34,754.81,772.00,-44.92,-938.96,427.25,-4.44,2.40,-4.11,-377.74
29093,811.25,770.80,753.29,754.60,772.48,-36.62,-940.43,409.18,-4.30,1.34,-2.50,-385.71
29129,812.50,771.12,753.34,754.51,772.87,-47.85,-934.57,434.57,-1.75,1.49,0.07,-389.77
29164,812.96,771.43,753.36,754.79,773.14,-57.62,-952.15,399.41,1.08,-0.28,-2.37,-397.56
29199,812.47,771.57,753.25,754.52,772.95,-19.04,-924.32,431.64,-1.69,-1.10,-0.93,-395.82
29234,812.38,771.41,753.39,754.71,772.97,-41.02,-930.66,421.39,-0.21,3.03,-0.16,-393.34
29269,810.64,771.52,753.43,755.34,772.73,-52.73,-939.45,398.93,11.46,-1.79,-2.97,-396.67
29307,809.72,771.32,753.56,755.27,772.47,-42.97,-906.25,425.29,4.81,3.63,1.45,-387.72
29342,808.37,771.40,753.73,755.78,772.32,-43.95,-931.64,416.99,12.49,-0.31,-4.40,-386.81
29377,808.03,771.56,753.90,756.11,772.40,-26.37,-871.58,446.78,18.19,-0.02,-3.44,-387.72
29412,808.76,771.45,753.97,755.97,772.54,-25.39,-911.62,456.05,5.93,0.56,-0.24,-385.56
29447,808.69,771.19,753.92,755.93,772.43,-29.79,-920.90,427.73,3.05,-0.99,0.73,-383.77
29484,809.17,771.06,753.85,756.17,772.56,-24.90,-897.46,438.48,7.21,2.24,-0.37,-389.76
29520,808.68,770.88,753.81,756.28,772.41,-66.41,-923.34,453.61,5.47,-1.42,-2.24,-389.21
29555,807.98,770.34,753.70,756.37,772.10,-35.64,-903.32,443.85,2.79,-1.61,2.12,-386.51
29589,806.74,769.53,753.59,756.43,771.57,-28.81,-916.02,458.50,3.97,-5.37,2.08,-379.46
29625,804.22,768.85,753.50,756.37,770.74,-48.83,-920.41,450.20,6.08,-5.58,-0.11,-366.83
29660,799.92,768.22,753.45,756.20,769.45,-7.81,-897.46,462.40,-6.27,-0.79,0.63,-345.44
29697,794.87,767.93,753.29,756.06,768.04,-45.41,-911.13,481.93,-3.44,1.11,-0.71,-327.81
29732,791.76,767.58,753.18,755.91,767.10,-0.49,-953.61,405.76,0.01,0.28,-1.85,-314.89
29767,791.83,767.50,753.18,755.98,767.12,-35.64,-921.39,479.00,9.76,-2.21,-1.58,-315.39
29802,792.83,767.67,753.24,756.60,767.58,-38.57,-928.22,426.27,12.31,-2.20,0.05,-327.84
29837,794.48,767.50,753.27,757.19,768.11,-35.16,-922.85,444.34,16.31,-8.18,0.55,-340.21
29872,795.69,767.38,753.41,757.26,768.44,-44.92,-880.86,507.32,5.42,0.09,0.49,-340.87
29909,793.92,767.09,753.34,757.09,767.86,-45.41,-901.37,482.42,-3.27,-2.18,-1.76,-331.67
29944,792.41,767.19,753.34,757.08,767.50,-20.51,-885.74,492.19,-0.21,1.69,-1.08,-327.16
29979,793.78,767.80,753.34,757.38,768.08,-40.04,-891.60,495.12,3.89,1.31,-1.21,-341.13
30014,795.30,768.88,753.51,758.38,769.02,-56.15,-932.62,450.20,9.11,-0.05,-1.40,-365.70
30048,794.06,769.83,753.86,759.74,769.37,-29.30,-902.83,470.70,10.92,-0.89,-2.69,-380.37
30084,789.59,770.16,753.99,760.29,768.51,-24.41,-877.44,520.02,1.77,1.98,-0.76,-372.58
30121,786.78,770.37,753.98,760.56,767.92,-30.76,-889.16,489.26,2.15,-0.52,-2.41,-368.53
30156,786.85,770.86,754.06,760.99,768.19,-23.93,-898.93,494.63,4.21,-0.95,-0.57,-377.30
30191,788.28,771.08,754.09,761.13,768.65,-39.06,-890.62,493.16,2.91,-0.54,-0.99,-385.08
30226,789.38,771.19,754.10,761.37,769.01,-48.83,-905.27,490.23,-0.34,-0.88,0.09,-393.11
30261,788.81,771.25,754.20,761.57,768.96,-34.18,-909.18,488.28,-0.92,-0.63,-0.89,-392.13
30296,787.87,771.14,754.09,761.41,768.63,-36.13,-903.32,502.93,-3.05,0.23,0.56,-388.38
30334,787.43,771.25,754.15,761.52,768.59,-41.99,-905.27,495.61,1.45,0.45,2.79,-387.71
30369,787.96,771.18,754.12,761.39,768.67,-24.41,-889.16,493.65,-0.96,-2.58,0.71,-387.96
30404,788.86,771.17,754.09,761.28,768.85,-44.92,-900.88,507.32,0.53,2.28,1.50,-390.21
30439,789.51,771.22,754.13,761.26,769.03,-38.09,-901.86,491.21,0.50,0.21,1.97,-391.63
30474,789.55,771.21,754.12,761.14,769.01,-32.71,-888.18,510.74,0.15,1.23,1.50,-390.08
30511,789.83,771.02,754.02,761.09,768.99,-34.67,-899.90,504.39,0.15,0.85,0.32,-391.23
30546,789.95,770.84,754.01,760.84,768.91,-35.64,-899.90,507.81,-3.02,2.18,-0.56,-386.70
30581,790.23,770.46,753.87,760.49,768.76,-31.74,-896.97,505.37,-1.62,0.15,1.02,-383.04
30616,791.82,770.01,753.83,760.16,768.96,-33.69,-890.62,492.19,-0.05,-0.63,0.00,-381.01
30651,792.99,769.85,753.80,760.09,769.18,-46.88,-882.32,505.37,0.94,-0.11,0.63,-383.44
30686,793.62,769.65,753.66,759.89,769.20,-29.30,-878.91,499.02,-0.43,1.85,1.77,-384.62
30724,794.32,769.33,753.70,759.74,769.27,-41.50,-884.77,485.84,-0.84,0.73,-0.50,-381.01
30759,794.54,769.40,753.72,759.70,769.34,-37.60,-903.81,502.44,-0.76,-2.18,-1.65,-381.25
30794,795.18,769.39,753.74,759.68,769.50,-37.11,-882.81,497.56,0.45,2.37,1.31,-382.82
30829,796.50,769.48,753.70,759.62,769.83,-45.90,-899.41,490.72,1.61,-0.78,0.66,-388.04
30865,797.07,769.59,753.79,759.72,770.04,-32.71,-892.09,483.89,-1.85,-0.97,-1.43,-390.06
30900,797.26,769.84,753.79,759.77,770.16,-33.69,-890.14,501.95,0.26,1.52,-1.47,-393.50
30937,797.18,770.05,753.84,759.81,770.22,-36.13,-902.34,487.79,1.28,1.00,-0.93,-394.42
30973,797.02,770.18,753.79,759.99,770.25,-30.76,-894.04,503.42,0.63,0.63,-1.02,-398.59
31008,797.09,770.39,753.95,760.21,770.41,-39.55,-890.62,495.12,1.32,1.84,-1.15,-399.75
31043,797.54,770.72,753.97,760.35,770.64,-32.71,-898.44,492.19,0.61,3.71,-1.77,-405.79
31078,797.95,770.79,753.96,760.41,770.78,-41.50,-893.55,501.95,0.40,2.02,-1.14,-408.71
31113,797.04,770.71,753.98,760.31,770.51,-33.20,-890.14,494.63,-1.08,1.03,-0.98,-402.92
31156,797.12,770.72,753.95,760.16,770.49,-20.51,-893.55,505.86,-1.44,-2.48,-0.65,-401.97
31191,796.95,770.67,753.94,759.95,770.38,-39.06,-896.97,504.39,-1.04,1.17,-0.57,-398.06
31226,796.31,770.59,753.95,759.89,770.19,-34.18,-889.65,489.26,-0.21,0.91,-1.54,-394.22
31261,795.68,770.51,754.00,760.01,770.05,-36.13,-900.88,488.28,-0.85,1.80,-3.39,-391.85
31296,795.35,770.49,753.97,760.11,769.98,-40.53,-890.14,500.00,-0.04,-0.05,1.98,-392.78
31335,795.60,770.53,754.06,760.14,770.08,-31.74,-893.07,494.14,-1.08,1.46,-1.43,-392.14
31370,796.17,770.50,754.03,760.18,770.22,-39.55,-893.07,477.54,1.88,-1.21,-1.55,-395.24
31405,796.89,770.50,754.07,760.15,770.40,-41.99,-885.74,494.14,1.43,-1.32,0.15,-396.23
31440,797.27,770.40,754.05,760.19,770.48,-34.67,-890.62,500.00,0.00,-1.40,0.82,-397.62
31474,797.09,770.42,754.08,760.20,770.45,-42.48,-884.77,496.58,-0.82,-0.89,-0.16,-396.72
31509,796.94,770.29,754.09,760.16,770.37,-24.90,-893.55,501.95,0.54,-0.49,-2.19,-394.43
31547,796.86,770.26,754.04,760.16,770.33,-26.86,-895.02,497.07,-0.95,-0.15,-0.61,-395.14
31582,796.69,770.25,754.02,760.19,770.29,-40.53,-893.07,496.09,-0.99,-0.64,-0.57,-395.30
31616,796.63,770.20,754.03,760.27,770.28,-43.46,-894.04,512.70,0.18,1.67,-2.47,-395.51
31651,796.66,770.26,754.08,760.37,770.34,-31.74,-881.35,490.72,-0.12,1.33,0.30,-396.46
31686,796.72,770.20,753.94,760.33,770.30,-32.23,-890.14,497.07,-1.11,0.58,-0.75,-399.03
31721,796.87,770.16,753.95,760.32,770.33,-34.18,-891.60,496.58,-1.86,-1.13,-1.26,-399.04
31758,797.20,770.04,753.95,760.19,770.34,-36.13,-893.07,505.37,-2.56,-0.73,-0.18,-397.14
31793,797.41,769.86,753.93,760.08,770.32,-21.97,-898.93,492.68,-0.95,0.77,0.76,-395.20
31828,797.76,769.78,753.92,760.01,770.37,-29.79,-888.18,497.07,0.13,0.99,-0.73,-395.16
31863,797.89,769.70,753.83,759.92,770.34,-44.92,-905.27,497.56,-0.23,0.04,1.46,-395.72
31899,798.18,769.55,753.91,759.89,770.38,-38.57,-894.04,499.02,-1.91,0.37,0.85,-393.23
31934,798.38,769.56,753.85,759.88,770.42,-27.83,-900.88,498.05,-1.02,2.66,-0.11,-395.36
31971,798.75,769.45,753.81,759.73,770.44,-38.57,-882.32,495.61,-0.92,0.02,0.15,-394.37
32006,798.99,769.34,753.82,759.73,770.47,-32.23,-890.14,505.86,-0.11,0.30,-1.07,-394.06
32041,799.13,769.32,753.80,759.66,770.47,-39.06,-909.18,493.65,-2.15,-0.12,-0.32,-393.84
32076,799.08,769.26,753.83,759.59,770.44,-33.20,-903.32,500.00,-0.79,-1.13,-2.05,-391.51
32111,799.16,769.15,753.77,759.57,770.41,-33.20,-897.46,501.46,1.15,-0.11,-1.12,-392.23
32146,799.01,769.17,753.82,759.65,770.41,-37.11,-896.00,507.81,0.79,2.74,-2.60,-391.69
32184,798.91,769.13,753.87,759.55,770.36,-38.57,-896.00,487.30,0.31,0.44,-0.05,-388.15
32219,798.48,769.09,753.94,759.57,770.27,-38.09,-892.09,497.07,-0.79,1.79,-0.24,-384.98
32254,797.97,768.96,753.81,759.59,770.08,-38.09,-905.27,501.46,0.01,-2.05,-1.24,-385.73
32289,797.71,768.89,753.88,759.56,770.01,-27.83,-897.46,495.12,-0.34,-0.24,0.96,-382.01
32324,797.75,768.87,753.85,759.46,769.98,-34.67,-891.60,510.74,-1.73,-1.18,-0.06,-381.36
32361,798.15,768.70,753.88,759.39,770.03,-43.95,-897.46,498.05,0.10,-1.09,0.62,-379.61
32396,798.50,768.67,753.91,759.28,770.09,-26.37,-890.62,501.95,-0.21,0.16,-1.31,-378.34
32431,799.42,768.62,753.82,758.99,770.21,-32.23,-892.09,507.32,-0.82,0.23,0.88,-378.97
32466,800.61,768.38,753.77,758.61,770.34,-30.76,-892.09,505.86,-3.26,-0.44,1.51,-376.78
32501,801.92,768.44,753.70,758.39,770.61,-38.57,-906.74,506.84,-3.21,1.31,2.44,-380.18
32536,803.67,768.49,753.74,758.31,771.05,-34.67,-902.83,486.33,-0.76,2.12,-1.70,-384.45
32574,805.10,768.39,753.67,758.14,771.32,-20.51,-904.30,483.89,-1.46,0.76,-0.52,-387.92
32609,805.53,768.47,753.68,758.03,771.43,-35.16,-875.00,490.72,-1.47,0.18,-3.76,-388.04
32644,805.81,768.47,753.72,757.95,771.49,-40.04,-898.93,488.28,-2.74,1.42,-0.39,-386.96
32679,806.07,768.61,753.70,757.94,771.58,-32.23,-899.90,492.68,-2.33,-0.12,-1.02,-389.20
32714,805.83,768.77,753.78,758.03,771.60,-40.04,-896.48,476.07,-2.56,-0.99,-0.29,-388.97
32749,804.40,768.88,753.77,758.27,771.33,-36.13,-891.60,475.10,-2.62,-0.74,-0.50,-388.79
32786,802.82,769.14,753.89,758.57,771.10,-25.88,-899.90,498.54,-2.36,0.58,-0.82,-386.75
32822,800.45,769.75,753.98,758.90,770.77,-35.16,-895.02,482.91,-3.24,1.75,-3.44,-386.16
32857,796.78,770.12,753.93,759.12,769.99,-36.62,-905.76,482.91,0.64,-0.05,-0.85,-381.03
32892,794.92,770.16,753.94,758.80,769.46,-16.60,-894.53,500.98,-5.26,3.34,-1.60,-370.00
32927,793.49,769.85,753.89,758.60,768.96,-38.09,-920.41,473.63,-6.63,1.59,-1.53,-361.10
32962,793.10,769.62,753.86,758.50,768.77,-10.74,-878.42,496.58,0.47,-3.06,-0.66,-357.03
33000,794.64,768.72,753.67,757.48,768.63,-47.36,-912.11,476.56,-12.95,0.46,3.50,-344.72
33035,794.92,768.69,753.58,757.38,768.64,-61.04,-953.12,404.79,-12.63,2.74,0.10,-346.45
33070,797.86,769.04,753.62,756.97,769.37,-10.25,-907.23,489.75,-6.18,6.66,0.60,-352.09
33105,800.09,768.82,753.46,756.38,769.69,-42.97,-937.50,440.92,-9.89,2.15,3.66,-353.45
33139,806.45,768.84,753.48,756.28,771.26,-70.80,-895.02,462.40,0.26,3.04,0.47,-373.35
33177,811.31,768.87,753.55,756.34,772.52,-33.20,-929.20,452.15,-0.71,-1.21,-0.81,-389.42
33212,809.72,768.63,753.43,756.22,772.00,-27.34,-910.64,462.89,-3.73,-1.74,-1.12,-383.31
33247,810.85,768.52,753.40,756.19,772.24,-27.83,-932.62,439.45,1.55,2.45,-0.58,-386.66
33282,811.54,768.64,753.34,755.97,772.37,-42.48,-925.29,485.35,-5.94,-0.91,-1.86,-388.20
33316,809.22,769.01,753.39,756.10,771.93,-44.43,-939.45,416.02,-4.29,-0.37,-0.37,-383.73
33351,811.20,769.70,753.34,756.10,772.59,-44.43,-905.27,473.63,-2.05,5.73,-4.20,-397.43
33389,812.10,770.70,753.27,756.17,773.06,-51.27,-912.60,468.75,-6.02,0.50,-2.75,-411.21
33424,812.48,771.22,753.23,756.00,773.23,-40.53,-942.38,398.93,-3.34,1.48,-0.22,-415.14
33459,814.10,771.71,753.21,756.10,773.78,-41.50,-915.04,448.24,-3.79,3.25,-0.74,-426.67
33494,812.40,772.95,753.23,756.35,773.73,-26.86,-921.87,427.25,-3.55,-4.32,-1.44,-434.06
33529,810.46,773.94,753.33,756.87,773.65,-35.64,-933.11,410.16,-0.75,-1.08,0.17,-440.40
33564,810.28,775.04,753.31,756.97,773.90,-29.30,-925.78,450.68,-0.93,0.43,-1.68,-450.91
33601,810.14,775.67,753.24,756.96,774.00,-41.02,-932.13,422.85,-3.52,-0.37,-0.09,-456.97
33637,808.83,776.05,753.28,757.13,773.82,-30.27,-936.52,423.34,-3.95,-0.62,-1.70,-456.90
33672,807.15,775.83,753.32,757.39,773.42,-42.48,-941.41,419.43,0.44,-2.25,-2.33,-452.33
33707,806.43,775.54,753.41,757.66,773.26,-35.16,-938.96,435.55,3.31,-1.35,-0.47,-449.22
33742,804.46,775.15,753.52,757.69,772.70,-35.64,-928.22,439.45,1.54,-5.61,1.02,-437.05
33777,802.99,774.98,753.49,757.75,772.30,-40.53,-924.32,423.34,-2.19,-0.03,-0.27,-432.23
33815,801.98,774.90,753.48,757.53,771.97,-21.48,-931.15,427.25,0.63,0.76,0.73,-425.21
33850,802.40,774.35,753.39,757.17,771.83,-28.32,-935.06,420.41,0.60,1.44,0.42,-418.99
33885,803.09,773.57,753.43,757.09,771.79,-41.50,-939.94,428.71,4.17,-0.44,-2.99,-412.90
33920,803.00,772.98,753.37,756.90,771.56,-27.83,-918.46,461.43,-1.31,1.25,-0.20,-406.65
33955,803.15,772.59,753.34,756.92,771.50,-39.06,-919.92,415.53,-0.56,-2.82,1.49,-405.23
33993,803.99,772.30,753.44,756.71,771.61,-43.95,-933.59,432.62,-1.15,-3.24,-0.68,-400.01
34028,804.05,771.99,753.40,756.47,771.48,-28.32,-922.36,444.82,-0.48,0.52,-4.40,-395.33
34063,805.28,771.79,753.40,756.43,771.73,-41.02,-927.73,431.15,1.85,-1.67,-0.06,-397.22
34098,806.15,772.14,753.57,756.26,772.03,-42.97,-937.99,425.78,-2.33,-0.52,-1.08,-396.36
34133,806.90,772.50,753.47,756.26,772.29,-34.18,-925.78,428.22,-2.09,-1.58,1.69,-404.23
34168,807.87,772.69,753.51,756.10,772.54,-46.88,-935.55,445.31,-0.19,1.12,-0.89,-405.95
34206,808.36,773.05,753.46,756.03,772.72,-41.02,-924.32,437.50,0.28,0.73,-0.44,-410.43
34241,808.18,773.12,753.47,755.93,772.67,-46.88,-928.71,422.36,0.63,-0.10,-0.02,-408.84
34276,807.47,772.83,753.55,756.00,772.46,-58.59,-937.50,413.57,-2.53,-0.44,-1.61,-403.20
34311,805.37,772.74,753.58,756.21,771.98,-29.79,-918.46,441.41,2.15,1.24,-0.12,-397.43
34346,803.48,772.54,753.78,756.42,771.56,-40.53,-950.68,415.53,7.08,3.44,-1.28,-387.44
34381,802.80,772.25,753.95,756.30,771.32,-21.97,-909.67,444.34,3.56,1.23,-0.82,-376.80
34419,802.79,772.23,753.96,756.38,771.34,-43.95,-922.36,430.18,6.60,-1.30,-3.26,-377.77
34454,803.58,772.48,753.98,756.76,771.70,-34.67,-932.13,437.99,8.56,2.17,-2.59,-387.46
34489,803.74,772.57,754.16,756.77,771.81,-48.83,-912.11,445.80,3.32,0.32,-1.15,-384.26
34524,803.25,772.31,754.02,756.77,771.59,-63.48,-929.69,459.96,1.34,0.64,-1.79,-384.17
34559,803.13,771.69,753.99,756.67,771.37,-41.02,-919.43,456.05,0.41,-1.98,-0.02,-377.93
34594,802.58,770.97,753.89,756.61,771.01,-35.64,-918.46,452.15,0.73,-1.16,0.29,-372.01
34632,801.46,770.40,753.86,756.82,770.63,-39.55,-925.29,437.50,3.73,-3.80,2.18,-367.33
34667,799.96,769.98,753.84,757.14,770.23,-23.93,-916.99,471.19,8.36,-2.40,-1.55,-363.86
34702,797.40,769.50,753.76,757.24,769.48,-23.93,-909.67,475.10,6.69,-2.56,-0.74,-354.77
34737,793.10,769.15,753.72,757.62,768.40,-46.39,-906.74,494.14,2.33,-5.59,0.62,-343.72
34772,787.90,768.82,753.76,757.78,767.06,-61.52,-890.62,430.18,1.06,-2.50,0.33,-324.60
34810,784.79,768.55,753.69,757.83,766.22,-28.32,-906.25,458.01,4.58,-2.60,0.98,-314.40
34845,783.64,768.74,753.66,758.14,766.04,-36.13,-939.94,440.92,4.62,1.99,1.18,-317.22
34880,784.62,768.66,753.87,758.84,766.50,-35.64,-933.59,450.68,16.53,-5.61,0.52,-325.21
34915,788.58,769.21,754.11,759.77,767.92,-40.04,-890.62,489.75,19.03,-1.89,0.43,-350.60
34949,791.74,769.97,754.18,759.99,768.97,-35.64,-875.49,531.74,5.88,-4.84,-0.45,-369.15
34984,791.89,770.39,754.01,759.73,769.00,-31.25,-892.58,511.72,-1.96,1.31,-2.83,-373.33
35021,792.23,770.64,753.97,759.87,769.18,-37.60,-885.25,495.12,0.18,1.10,1.63,-379.68
35056,791.34,771.52,754.34,761.24,769.61,-59.08,-916.99,438.48,7.40,-3.14,-2.83,-394.71
35091,787.57,772.34,754.80,762.73,769.36,-28.32,-884.77,518.55,11.28,-1.63,-2.66,-398.74
35126,783.98,772.82,755.07,763.47,768.83,-23.93,-876.46,521.00,2.44,0.30,-3.12,-394.43
35161,782.31,773.54,755.06,763.82,768.69,-18.07,-884.77,504.88,0.42,0.37,0.63,-399.86
35196,782.70,773.94,755.11,764.13,768.97,-34.67,-905.76,486.33,3.60,-0.69,-1.28,-407.91
35233,783.37,773.51,755.04,764.04,768.99,-20.02,-889.65,495.12,3.02,-0.67,-1.16,-406.94
35268,784.19,773.13,754.84,763.91,769.02,-22.46,-881.84,511.23,0.09,-2.63,-0.65,-409.93
35303,784.93,772.87,754.89,763.71,769.10,-38.09,-885.25,494.14,-0.08,-0.09,0.62,-406.04
35338,785.62,772.87,754.77,763.77,769.26,-36.13,-894.53,506.35,1.05,0.05,0.30,-412.28
35373,786.14,772.88,754.82,763.79,769.41,-25.88,-896.48,501.46,2.24,-0.44,-1.40,-413.35
35408,786.99,772.86,754.76,763.67,769.57,-25.39,-882.81,513.67,0.58,-0.50,-0.63,-415.89
35446,788.13,772.81,754.68,763.38,769.75,-33.69,-878.42,514.65,-0.46,1.07,0.65,-417.00
35480,788.88,772.72,754.61,763.11,769.83,-26.37,-889.65,502.93,-0.18,-0.63,-2.46,-416.56
35515,789.44,772.67,754.54,763.09,769.93,-51.27,-892.58,498.05,0.42,1.18,-3.42,-419.51
35550,789.94,772.66,754.61,762.96,770.04,-42.97,-890.62,506.84,1.47,0.78,-0.70,-417.51
35585,790.38,772.46,754.55,763.02,770.10,-24.90,-893.55,496.09,0.50,2.32,-0.96,-419.93
35620,790.95,772.29,754.53,763.01,770.19,-26.86,-891.11,485.35,1.44,-0.44,-1.08,-420.63
35658,791.47,772.01,754.52,763.01,770.25,-51.27,-891.60,511.72,-0.45,-1.20,0.98,-420.54
35693,792.08,771.77,754.48,763.03,770.34,-24.90,-885.25,507.32,0.69,0.02,1.72,-422.10
35728,792.93,771.49,754.52,763.06,770.50,-24.90,-899.90,503.42,-0.09,-1.92,0.18,-422.18
35763,793.26,771.30,754.47,762.98,770.50,-42.48,-888.67,516.11,1.69,-0.14,1.26,-421.88
35798,793.24,771.09,754.43,762.81,770.39,-40.04,-881.84,507.32,-2.43,-0.81,-0.13,-418.61
35835,793.45,770.75,754.48,762.65,770.33,-41.02,-882.32,507.32,-1.51,-0.76,1.92,-413.02
35870,794.11,770.51,754.39,762.30,770.33,-38.57,-887.70,513.18,0.83,-0.12,-0.05,-410.44
35905,794.82,770.31,754.30,762.23,770.42,-29.30,-894.53,501.95,-2.11,0.78,0.01,-412.51
35940,795.52,770.29,754.23,762.09,770.53,-28.32,-893.07,506.35,-1.27,0.83,-1.69,-414.20
35975,796.31,770.16,754.20,761.88,770.64,-32.71,-877.44,499.51,1.62,1.38,-0.62,-413.65
36010,797.47,769.92,754.17,761.76,770.83,-31.25,-896.48,515.14,-0.50,-1.00,-0.18,-414.60
36047,798.92,769.76,754.14,761.55,771.09,-35.16,-884.28,502.44,-1.15,0.56,1.34,-416.07
36082,799.78,769.76,754.06,761.44,771.26,-36.13,-892.09,498.54,-1.79,0.82,-0.18,-419.43
36117,800.37,769.76,754.06,761.32,771.38,-36.13,-902.34,499.51,-0.43,1.98,-1.21,-419.65
36152,800.94,769.72,753.96,761.08,771.43,-30.76,-889.16,502.93,-0.63,1.96,-1.27,-420.31
36187,801.37,769.69,753.97,760.95,771.50,-37.11,-895.02,498.54,-0.53,-0.25,0.74,-419.15
36222,801.44,769.72,753.92,760.88,771.49,-49.80,-894.53,501.46,-3.93,-1.20,-1.15,-420.03
36259,801.34,769.75,753.96,760.78,771.46,-29.30,-879.39,491.70,-0.73,1.79,-0.08,-417.56
36294,801.29,769.79,753.96,760.71,771.44,-29.79,-894.53,503.42,-1.24,1.20,-2.85,-416.58
36328,801.26,769.76,753.94,760.61,771.39,-52.25,-892.09,491.21,-0.37,1.24,-2.08,-415.22
36363,801.10,769.75,753.97,760.61,771.36,-27.83,-887.21,500.49,-0.14,-0.66,-0.41,-413.90
36397,801.10,769.71,753.91,760.53,771.31,-45.90,-890.62,491.21,-1.21,-1.05,-0.22,-413.84
36432,801.40,769.63,753.86,760.53,771.35,-39.06,-891.11,495.61,-1.10,0.27,0.23,-415.60
36470,801.58,769.61,753.86,760.60,771.41,-37.11,-901.86,500.98,-0.01,0.11,-2.40,-416.89
36505,801.68,769.55,753.91,760.56,771.43,-43.95,-907.23,503.42,-0.06,-0.69,1.11,-414.98
36539,801.94,769.46,753.83,760.61,771.46,-40.04,-893.55,499.51,1.08,0.82,1.11,-417.99
36575,802.14,769.53,753.92,760.56,771.54,-44.43,-896.97,498.05,0.64,-0.11,0.56,-416.25
36609,802.39,769.52,753.89,760.57,771.59,-47.85,-887.70,497.07,-0.55,-0.84,2.44,-417.87
36647,802.65,769.46,753.89,760.60,771.65,-41.50,-897.46,486.82,0.40,2.68,-2.38,-418.73
36681,803.04,769.50,753.93,760.59,771.76,-29.79,-897.46,491.21,0.02,-2.46,0.91,-419.11
36716,803.38,769.47,753.88,760.71,771.86,-47.36,-896.00,504.88,1.48,-1.31,0.21,-423.21
36751,803.59,769.61,753.97,760.80,771.99,-33.20,-896.48,501.46,0.31,0.29,-1.84,-424.22
36786,803.54,769.56,753.92,760.76,771.94,-35.64,-896.00,500.00,-0.46,1.91,-0.72,-424.28
36821,803.30,769.53,753.94,760.73,771.87,-49.80,-896.97,494.63,-1.74,-0.45,-0.68,-422.21
36858,803.29,769.60,753.95,760.86,771.92,-34.18,-887.70,511.23,-1.89,-0.72,-2.11,-424.46
36893,803.14,769.63,754.00,760.83,771.90,-41.99,-887.70,500.49,1.02,-0.84,-1.47,-422.51
36928,803.09,769.54,753.96,760.90,771.88,-37.60,-890.14,501.46,1.21,-1.62,-1.66,-423.52
36963,802.74,769.39,753.94,760.80,771.72,-29.79,-894.04,496.58,0.42,-1.04,0.29,-420.12
36998,802.63,769.46,753.97,760.88,771.74,-27.34,-881.84,500.98,-1.08,1.57,-0.32,-420.67
37033,802.50,769.43,753.92,760.78,771.66,-39.06,-900.88,503.42,-1.03,-0.24,-1.34,-419.66
37070,802.21,769.41,753.91,760.85,771.59,-34.18,-888.18,505.86,0.08,3.19,-1.76,-420.06
37105,801.97,769.47,753.98,760.73,771.54,-23.44,-881.84,492.68,0.03,-0.60,-1.57,-416.05
37140,802.24,769.59,753.92,760.80,771.64,-35.16,-882.81,502.44,-0.05,0.60,-1.44,-420.49
37175,802.23,769.77,753.98,760.88,771.72,-35.16,-893.55,502.44,0.23,3.49,-1.96,-421.63
37209,802.28,769.86,753.98,760.88,771.75,-43.95,-889.65,511.23,0.50,-0.34,-2.10,-422.46
37245,802.04,769.90,753.99,760.98,771.73,-41.99,-880.37,496.58,-0.25,2.07,0.08,-423.18
37282,802.14,770.12,754.03,761.11,771.85,-41.50,-882.32,496.09,-0.79,-0.70,-2.37,-426.15
37317,802.61,770.27,754.15,761.32,772.09,-37.60,-875.49,493.16,3.11,-0.98,2.56,-429.19
37352,803.06,770.42,754.21,761.36,772.26,-43.95,-885.25,514.16,-1.31,-1.11,-2.08,-431.13
37387,802.71,770.55,754.20,761.40,772.21,-45.41,-887.21,497.56,0.90,-1.51,1.69,-431.69
37422,802.40,770.59,754.20,761.53,772.18,-24.90,-905.27,501.46,0.19,0.91,1.05,-432.78
37459,802.18,770.58,754.19,761.53,772.12,-25.88,-882.32,511.23,-0.05,0.73,2.24,-432.11
37495,802.18,770.50,754.26,761.44,772.09,-46.39,-910.64,505.37,-3.93,-1.39,-1.18,-428.60
37530,801.79,770.45,754.15,761.14,771.88,-39.06,-888.67,504.88,-1.11,1.58,-1.44,-425.08
37565,801.11,770.40,754.12,760.96,771.65,-35.16,-897.95,500.98,-2.73,1.57,0.31,-420.43
37600,800.72,770.37,754.11,760.72,771.48,-42.48,-897.95,495.61,-1.90,2.05,0.26,-415.80
37635,800.87,770.23,754.11,760.51,771.43,-42.97,-892.58,501.95,-0.76,2.32,-0.92,-411.96
37672,800.78,770.16,754.07,760.33,771.34,-42.48,-897.46,495.12,-2.62,1.58,0.24,-409.47
37707,800.63,770.22,754.11,760.27,771.31,-35.64,-900.39,488.77,-0.83,2.53,-2.67,-407.50
37742,800.09,770.22,754.10,760.22,771.16,-44.92,-890.62,502.93,-1.71,-0.15,-1.87,-405.11
37777,799.38,770.18,754.00,760.21,770.94,-29.79,-896.97,488.77,-1.21,0.07,0.02,-404.80
37812,799.08,770.12,754.12,760.07,770.85,-33.69,-909.67,495.61,-0.74,-1.29,-2.52,-398.21
37847,799.05,770.20,754.17,760.20,770.91,-36.13,-891.11,490.23,1.01,0.29,-4.32,-399.29
37885,799.49,770.16,754.08,760.15,770.97,-37.60,-880.37,495.12,1.39,2.20,-0.89,-402.18
37919,799.94,770.20,754.21,760.29,771.16,-36.62,-898.93,494.63,-0.66,-0.24,0.97,-402.70
37954,800.30,770.23,754.35,760.30,771.29,-20.02,-885.74,509.28,0.03,0.02,-0.50,-400.91
37989,800.19,770.20,754.26,760.39,771.26,-28.81,-878.42,494.14,-1.97,-2.05,0.17,-403.94
38024,799.51,770.19,754.30,760.53,771.13,-39.55,-900.39,489.26,-0.10,0.18,1.02,-402.39
38059,798.14,770.37,754.45,760.85,770.95,-36.13,-887.70,503.91,-1.76,1.09,-1.38,-400.16
38097,794.92,770.53,754.47,760.88,770.20,-40.04,-890.62,492.19,-3.56,1.23,-1.48,-390.53
38131,788.97,770.26,754.38,760.61,768.55,-30.76,-899.41,499.02,-8.34,0.04,0.33,-366.16
38166,782.62,769.29,754.27,759.68,766.47,-32.71,-886.72,505.37,-16.44,-0.53,-2.47,-325.59
38201,780.41,768.61,754.06,758.71,765.45,-41.02,-894.53,470.21,-13.85,-1.65,3.11,-303.50
38236,785.12,768.96,754.00,758.24,766.58,-54.69,-906.74,480.96,-5.66,-0.27,-0.82,-317.07
38270,790.39,769.02,753.90,757.51,767.70,-55.66,-910.64,478.03,-10.83,4.99,-2.02,-327.42
38308,795.42,769.03,753.87,756.94,768.81,19.04,-935.06,452.64,-13.97,3.60,0.32,-337.19
38343,802.50,769.01,753.80,756.35,770.42,-40.04,-903.32,470.21,-8.18,6.02,-0.01,-354.16
38378,806.34,768.52,753.72,755.65,771.05,-24.90,-933.59,430.18,-12.56,5.55,1.42,-355.20
38413,810.65,767.56,753.58,755.05,771.71,-54.20,-934.57,425.78,-9.89,1.05,1.47,-357.08
38449,812.45,767.49,753.57,754.90,772.10,-53.71,-912.60,434.57,-3.11,2.89,-1.42,-360.74
38486,812.76,767.54,753.45,754.43,772.04,-37.60,-923.34,445.31,-11.58,5.57,-0.84,-358.19
38521,811.70,767.29,753.42,754.05,771.61,-27.83,-952.15,434.57,-9.06,3.21,0.27,-347.68
38557,809.87,767.02,753.41,754.05,771.09,-68.36,-951.66,394.53,-2.56,1.80,-2.20,-339.60
38592,811.64,767.03,753.44,753.80,771.48,-38.57,-932.62,432.13,0.85,5.12,-3.92,-341.08
38627,811.80,766.16,753.51,753.40,771.22,-54.69,-964.84,393.07,-8.76,1.81,0.10,-326.96
38662,813.00,765.81,753.53,753.36,771.42,-61.04,-954.10,409.18,-3.79,2.04,-0.55,-327.44
38699,814.25,766.25,753.46,753.54,771.87,-36.62,-918.46,445.80,0.84,-0.43,-3.49,-339.62
38734,811.99,766.72,753.46,753.81,771.49,-56.64,-916.02,411.13,-1.93,0.98,-1.45,-339.59
38769,811.65,767.32,753.58,754.10,771.66,-37.11,-944.82,389.16,2.44,0.51,-0.06,-344.58
38804,810.78,767.84,753.63,754.31,771.64,-54.69,-921.39,439.45,-1.49,0.95,-1.18,-347.64
38839,809.14,768.17,753.65,754.37,771.33,-34.67,-924.80,422.85,-0.40,-2.99,-1.61,-344.88
38874,808.74,768.21,753.75,754.48,771.29,-42.97,-926.27,426.27,-0.12,0.04,-0.10,-342.96
38912,807.13,768.27,753.70,754.58,770.92,-42.48,-921.39,427.25,-1.73,1.03,0.31,-340.56
38947,807.63,768.47,753.66,754.57,771.08,-50.29,-938.96,395.51,-0.25,1.43,-0.53,-345.04
38982,807.56,768.76,753.69,754.52,771.13,-55.18,-937.50,419.43,-1.25,-2.45,0.08,-345.50
39017,806.68,768.91,753.68,754.54,770.95,-49.80,-933.59,418.46,-0.48,1.47,-2.85,-344.15
39052,806.35,768.50,753.60,754.33,770.70,-48.34,-929.20,437.50,-1.60,-1.44,-2.97,-338.80
39087,806.17,768.37,753.69,754.13,770.59,-57.62,-937.01,422.36,-4.16,1.29,-0.09,-331.70
39125,807.28,768.20,753.49,753.93,770.73,-30.27,-937.99,407.23,2.57,-1.43,0.75,-336.27
39160,807.98,768.18,753.42,753.71,770.82,-37.60,-930.18,411.62,-1.63,1.66,-0.92,-337.19
39195,809.91,768.39,753.45,753.46,771.30,-44.43,-926.27,428.22,-1.79,1.15,-2.29,-341.00
39230,811.05,768.38,753.42,753.39,771.56,-28.81,-925.29,400.39,-2.67,-0.27,-2.51,-344.45
39265,811.68,768.34,753.37,753.34,771.68,-43.46,-941.41,409.18,-1.41,3.89,-0.68,-346.83
39303,812.28,768.33,753.31,753.15,771.77,-53.71,-918.95,415.04,-5.44,1.12,0.08,-347.41
39338,811.87,768.12,753.29,753.05,771.58,-46.88,-951.66,405.76,-3.96,1.80,-0.66,-343.57
39374,812.23,768.37,753.26,753.20,771.76,-47.36,-937.50,400.88,2.52,2.07,-1.29,-349.70
39409,811.78,768.89,753.30,753.30,771.82,-57.13,-935.06,420.90,0.13,1.18,0.98,-352.69
39444,810.75,769.09,753.34,753.26,771.61,-30.27,-920.90,415.53,-1.94,0.25,-0.07,-349.19
39479,811.31,769.33,753.32,753.38,771.83,-39.55,-929.20,409.67,2.73,0.18,-3.50,-355.18
39517,810.30,770.02,753.54,753.95,771.95,-55.66,-949.71,389.65,10.08,0.14,-3.73,-360.21
39552,809.38,770.18,753.67,754.22,771.86,-31.25,-919.43,406.25,4.37,0.09,-1.11,-359.06
39587,809.57,770.63,753.89,754.95,772.26,-35.16,-929.20,429.69,7.21,1.21,-3.56,-368.74
39621,807.13,770.88,754.08,755.49,771.90,-7.32,-913.09,430.66,3.31,3.02,-4.50,-365.54
39656,803.97,770.64,754.16,755.60,771.09,-41.99,-958.98,409.67,9.34,-2.21,-0.21,-352.51
39691,803.14,770.72,754.21,755.77,770.96,-41.02,-945.80,431.64,7.18,1.36,-0.22,-351.60
39729,801.76,770.19,754.13,755.61,770.42,-48.83,-934.57,441.89,-0.88,1.44,-1.62,-342.06
39764,799.46,769.63,754.03,755.75,769.72,-42.48,-916.99,436.04,-1.66,-1.68,-0.97,-334.04
39799,796.35,769.42,754.05,755.93,768.94,-35.16,-931.15,438.96,1.09,-1.08,-1.20,-324.16
39833,792.60,769.39,754.12,756.16,768.07,-25.88,-922.85,453.61,5.64,-3.24,0.07,-312.73
39868,789.55,768.87,754.02,756.15,767.15,-47.85,-932.13,465.82,3.08,-4.85,3.14,-300.42
39903,786.57,768.21,753.97,756.23,766.25,-37.11,-916.99,434.08,1.05,-1.08,-2.75,-287.21
39940,782.65,767.90,753.82,756.34,765.18,-38.09,-916.99,443.85,-2.78,-5.79,-0.45,-276.58
39975,780.15,767.86,753.86,756.28,764.54,-23.44,-919.43,462.40,3.37,-1.54,-1.05,-265.93
40010,780.31,768.32,753.76,756.57,764.74,-59.57,-941.89,392.58,4.41,0.95,-0.63,-276.75
40045,782.01,768.68,753.98,756.99,765.42,-26.37,-938.48,443.85,20.60,-3.29,-1.60,-286.12
40080,786.24,768.70,754.17,757.24,766.59,-33.20,-903.81,479.00,17.42,-1.10,0.34,-299.88
40118,792.20,769.43,754.15,757.53,768.33,-27.34,-877.44,496.58,9.95,2.44,0.30,-330.88
40153,796.93,770.39,754.19,757.96,769.87,-28.81,-888.18,489.26,1.75,-2.09,2.35,-360.27
40188,798.17,771.29,754.53,759.20,770.80,-56.15,-963.87,440.43,5.25,-0.85,0.26,-381.43
40223,793.57,771.67,754.96,760.46,770.16,-38.09,-927.73,467.77,10.03,0.04,-2.50,-376.50
40258,788.34,772.01,755.16,761.10,769.15,-23.93,-864.75,531.74,1.55,1.06,-0.31,-365.68
40293,787.07,772.77,755.27,761.53,769.16,-27.34,-879.39,514.16,1.87,-1.37,-0.03,-371.03
40331,787.23,773.53,755.28,762.16,769.55,-44.92,-905.76,497.07,0.85,1.04,-0.67,-386.84
40366,787.56,773.62,755.37,762.69,769.81,-37.60,-899.41,487.30,4.54,-1.96,-1.90,-394.30
40401,787.61,773.45,755.46,763.36,769.97,-37.11,-889.65,503.91,3.37,-0.40,-0.56,-400.73
40436,787.05,773.65,755.50,763.78,770.00,-40.04,-878.91,503.42,1.49,-0.65,1.77,-405.48
40472,786.47,774.04,755.59,764.40,770.12,-31.25,-893.07,501.46,1.52,0.21,-1.22,-413.54
40507,786.09,774.37,755.61,764.95,770.25,-40.04,-888.67,499.51,4.65,-2.05,-0.27,-422.49
40544,786.40,774.50,755.61,765.21,770.43,-27.34,-886.72,503.42,2.79,0.02,-1.79,-428.27
40579,786.97,774.56,755.61,765.43,770.64,-32.71,-887.21,508.79,3.65,4.12,1.36,-434.11
40614,787.55,774.63,755.59,765.78,770.89,-48.34,-892.09,491.21,3.53,-1.53,-0.38,-442.15
40649,787.97,774.85,755.68,766.28,771.19,-28.32,-892.09,515.14,1.69,-1.76,-1.69,-450.64
40684,787.81,775.15,755.73,766.61,771.32,-30.76,-885.74,503.91,0.40,0.01,-0.76,-456.11
40719,786.23,775.29,755.85,766.94,771.07,-31.25,-882.81,510.25,-1.83,2.05,-2.12,-453.57
40757,783.91,775.41,755.92,767.48,770.68,-39.06,-905.27,512.21,-1.11,-0.94,1.82,-452.91
40792,781.19,775.69,756.17,767.97,770.25,-36.13,-895.02,515.62,-0.98,-1.82,-3.60,-446.73
40827,778.15,776.10,756.37,768.57,769.80,-30.27,-881.35,514.16,-0.51,1.54,1.18,-443.35
40863,775.49,776.32,756.51,768.98,769.33,-29.30,-876.46,511.23,-1.89,1.80,-1.91,-438.52
40898,773.87,776.50,756.64,769.25,769.07,-32.71,-892.09,508.30,-0.27,-1.42,-3.00,-435.08
40933,772.37,776.40,756.67,769.44,768.72,-20.02,-893.07,504.39,-1.65,-2.73,0.55,-431.28
40971,771.62,776.55,756.70,769.53,768.60,-18.55,-878.91,508.79,-0.11,-0.69,-1.21,-430.39
41006,771.79,776.45,756.64,769.57,768.61,-28.32,-895.02,508.30,-0.26,1.02,-1.76,-432.34
41040,772.29,776.52,756.62,769.48,768.73,-27.83,-889.65,508.79,3.65,-2.28,-0.26,-433.93
41076,773.00,776.43,756.57,769.41,768.85,-29.79,-891.11,516.60,-0.02,0.06,-1.04,-435.88
41111,773.70,776.33,756.55,769.38,768.99,-41.99,-893.55,514.16,2.15,-0.50,0.51,-437.27
41148,774.60,776.25,756.51,769.29,769.16,-22.95,-891.60,524.41,-0.34,-1.18,1.40,-439.48
41183,776.08,776.15,756.41,769.17,769.45,-16.60,-888.67,514.65,2.92,-1.21,0.57,-444.55
41218,777.28,776.02,756.40,769.03,769.68,-41.50,-877.93,518.07,0.98,3.27,-0.40,-445.77
41254,777.57,775.92,756.38,768.80,769.67,-35.64,-898.93,515.14,-0.85,0.50,-1.19,-443.14
41289,777.35,775.79,756.35,768.66,769.54,-28.81,-887.21,516.11,0.26,2.44,0.38,-440.10
41324,776.51,775.69,756.33,768.55,769.27,-37.60,-887.21,507.81,-1.05,0.63,-1.08,-435.32
41362,775.94,775.59,756.24,768.35,769.03,-32.71,-902.34,509.77,-1.48,3.52,-2.66,-431.63
41396,775.36,775.43,756.24,768.32,768.84,-38.09,-874.51,509.77,-2.50,-2.38,0.58,-428.19
41431,774.77,775.30,756.17,768.25,768.62,-40.04,-882.81,508.30,-3.02,2.19,0.85,-425.56
41466,774.55,775.29,756.14,768.08,768.52,-35.64,-887.70,510.25,-0.19,0.42,-2.09,-422.97
41501,774.42,775.16,756.09,767.81,768.37,-30.27,-898.44,511.72,-1.38,1.15,0.06,-418.83
41536,774.46,775.03,756.03,767.64,768.29,-27.83,-894.04,507.81,-0.87,-2.29,-0.76,-416.97
41573,774.48,775.02,755.94,767.45,768.22,-22.46,-890.14,512.70,-2.54,1.76,-2.28,-416.50
41608,774.68,775.00,755.91,767.45,768.26,-29.79,-897.46,506.84,-2.05,-0.15,-0.41,-417.60
41643,774.95,775.06,755.96,767.40,768.34,-41.50,-890.62,496.09,-0.02,1.02,-0.46,-417.21
41679,775.28,775.18,755.99,767.48,768.48,-29.79,-893.55,506.35,1.97,-2.50,-1.40,-419.59
41714,775.30,775.22,756.09,767.44,768.51,-38.09,-886.23,500.00,-0.79,-2.06,-1.60,-416.91
41749,775.36,775.32,756.04,767.60,768.58,-24.41,-884.28,510.25,0.54,-0.63,0.92,-421.43
41787,775.69,775.30,756.01,767.67,768.67,-33.20,-890.14,506.84,0.53,-1.84,-1.23,-424.20
41822,776.21,775.41,755.98,767.80,768.85,-41.02,-888.67,516.60,-0.34,-1.15,0.76,-429.71
41857,776.44,775.47,755.98,768.01,768.97,-38.57,-898.93,516.60,2.60,1.47,-0.82,-433.90
41892,776.79,775.68,756.03,768.21,769.18,-43.95,-874.51,510.25,0.44,-1.17,1.56,-438.48
41927,777.07,775.75,756.08,768.52,769.35,-38.57,-903.32,511.23,0.97,-1.90,1.18,-443.40
41965,776.96,775.96,756.13,768.67,769.43,-38.57,-875.98,504.88,-0.30,-1.09,-1.95,-445.61
42000,776.53,776.00,756.19,768.83,769.38,-41.50,-884.28,510.25,-0.57,0.19,-2.27,-445.43
42035,775.91,776.15,756.27,768.89,769.30,-28.81,-879.88,512.70,-0.79,-0.59,-2.73,-443.35
42070,775.33,776.20,756.32,769.07,769.23,-33.20,-874.51,518.55,-0.61,2.41,-0.72,-443.07
42105,774.65,776.33,756.41,769.14,769.13,-40.04,-882.81,510.74,-0.34,-0.01,1.11,-440.72
42140,773.83,776.43,756.40,769.24,768.98,-38.57,-895.02,512.21,-3.77,2.00,-0.53,-440.26
42179,772.70,776.56,756.39,769.32,768.74,-21.00,-883.30,520.02,-1.92,-0.17,0.16,-439.05
42214,771.72,776.48,756.40,769.15,768.44,-26.86,-891.60,512.21,-0.69,1.76,-2.01,-432.22
42249,771.52,776.29,756.39,768.89,768.27,-28.32,-883.79,522.95,-2.18,0.32,-2.87,-426.59
42284,772.36,776.18,756.38,768.74,768.42,-33.69,-893.07,512.70,2.34,-1.11,1.63,-426.55
42320,773.97,775.81,756.20,768.38,768.59,-30.76,-885.74,506.35,2.20,-0.18,1.80,-428.17
42355,776.07,775.58,756.12,768.04,768.95,-36.62,-888.18,513.18,1.69,-3.49,1.79,-430.41
42393,778.30,775.25,756.08,767.65,769.32,-31.25,-878.91,506.84,-0.21,-2.02,-0.66,-430.79
42428,780.43,775.14,755.93,767.20,769.68,-28.81,-884.77,506.84,0.53,0.61,1.99,-434.39
42463,782.78,774.91,755.86,766.80,770.09,-33.69,-889.16,515.62,-0.09,-1.58,-1.15,-436.44
42498,784.96,774.85,755.89,766.64,770.58,-26.86,-896.00,514.65,-0.22,-1.55,-0.85,-440.31
42533,787.69,774.81,755.84,766.45,771.20,-32.71,-888.67,514.65,0.24,-0.55,0.01,-447.68
42568,789.63,774.63,755.83,766.23,771.58,-29.79,-884.77,506.35,0.73,1.11,1.74,-450.09
42606,790.50,774.35,755.72,765.95,771.63,-17.58,-888.18,509.77,-2.17,-0.84,0.76,-449.26
42641,789.96,774.03,755.64,765.41,771.26,-35.64,-884.28,538.57,-0.18,-1.99,-1.19,-439.02
42676,788.75,773.27,755.37,764.40,770.45,-35.16,-884.28,519.04,-3.50,-2.20,0.94,-420.59
42712,788.52,771.65,755.01,762.56,769.43,-33.20,-909.67,508.30,-6.83,-0.78,3.81,-388.80
42747,789.78,769.88,754.61,760.62,768.72,-49.32,-879.39,512.70,-7.46,0.34,1.38,-360.26
42785,791.17,767.48,754.01,758.17,767.71,-38.57,-903.32,482.42,-18.33,2.95,3.12,-324.72
42820,791.98,765.30,753.57,756.41,766.81,-42.97,-911.62,483.40,-13.56,-1.24,1.54,-295.16
42854,797.48,763.67,753.33,755.14,767.40,-35.16,-906.74,475.10,-15.01,0.40,7.17,-288.21
42889,802.89,762.46,753.11,754.18,768.16,-48.34,-906.25,484.37,-15.40,0.89,2.18,-288.39
42924,806.67,761.81,752.99,753.69,768.79,-47.36,-916.99,452.15,-17.37,1.19,1.81,-291.81
42959,808.72,761.63,752.98,753.62,769.24,-78.12,-913.57,443.36,-7.89,1.81,-0.64,-296.77
42998,811.86,761.98,753.01,753.98,770.21,-91.31,-882.32,465.82,-1.15,0.66,-0.21,-314.65
43032,809.25,762.13,753.11,754.22,769.68,-58.11,-921.39,467.29,-4.28,2.47,-3.48,-308.00
43067,809.33,763.20,753.29,755.17,770.24,-46.39,-922.36,450.20,9.47,2.60,-3.80,-326.44
43102,811.38,764.36,753.44,755.39,771.14,-25.39,-898.93,485.84,0.09,7.08,-3.62,-342.33
43138,809.45,764.99,753.39,755.50,770.83,-58.11,-916.50,436.52,-7.11,4.08,-3.99,-343.62
43172,809.61,766.16,753.47,755.77,771.25,-38.57,-918.95,457.52,-0.94,5.37,-3.92,-355.47
43210,808.98,767.29,753.51,755.72,771.37,-61.04,-929.69,448.24,-6.73,4.18,-3.66,-360.71
43245,807.69,768.04,753.59,755.60,771.23,-37.11,-923.83,433.59,-9.77,3.31,-4.30,-358.49
43281,807.99,768.57,753.61,755.73,771.47,-45.90,-944.34,451.66,-2.63,2.90,-2.50,-365.12
43316,807.48,768.69,753.61,755.70,771.37,-30.76,-911.13,455.08,-4.90,2.94,-2.61,-364.08
43351,806.76,768.33,753.58,755.45,771.03,-39.55,-921.87,424.32,-1.38,0.91,0.70,-355.65
43386,808.88,767.60,753.53,754.89,771.23,-24.90,-919.43,440.43,-3.06,2.52,-1.15,-350.16
43424,809.22,767.20,753.53,754.65,771.15,-39.06,-914.06,443.85,-4.42,0.54,0.40,-344.68
43459,810.35,767.30,753.44,754.65,771.43,-37.11,-923.34,424.32,-2.62,0.58,0.49,-351.42
43494,810.26,767.19,753.50,755.03,771.49,-51.76,-922.85,446.29,-0.12,1.42,0.69,-354.37
43529,808.82,767.87,753.68,755.50,771.47,-60.55,-915.53,429.69,-1.15,-1.66,-2.05,-357.35
43565,806.59,768.92,753.70,756.04,771.31,-32.23,-916.02,454.59,-2.79,0.09,-2.03,-365.51
43600,805.07,770.03,753.85,756.50,771.36,-32.71,-933.59,424.80,0.20,-0.03,-2.14,-372.18
43638,803.81,770.37,753.92,756.59,771.17,-44.92,-919.43,413.57,-1.85,-2.22,-1.25,-370.19
43673,803.55,770.52,753.92,756.70,771.17,-40.53,-934.57,427.73,-2.92,-0.11,-2.47,-372.20
43708,803.09,770.65,753.90,756.48,771.03,-38.57,-908.69,439.45,-4.46,3.11,-2.05,-369.04
43743,802.80,771.07,753.92,756.49,771.07,-21.48,-920.90,452.64,-5.66,3.92,-0.60,-370.82
43778,801.84,771.63,753.97,756.66,771.03,-39.06,-921.39,439.45,-2.79,-0.81,-1.61,-373.33
43816,800.55,772.35,753.86,756.60,770.84,-41.02,-925.29,410.16,-1.26,0.46,-0.85,-376.42
43851,800.19,772.38,753.84,756.36,770.69,-50.78,-931.64,426.27,-1.45,1.45,0.55,-372.66
43887,799.84,772.41,753.80,756.37,770.60,-35.64,-923.34,445.31,-1.00,3.02,-2.71,-372.62
43922,799.95,772.60,753.82,756.34,770.68,-41.99,-928.71,425.78,-1.82,0.72,0.63,-373.60
43957,800.92,772.37,753.69,756.02,770.75,-37.60,-929.20,425.29,-1.85,2.35,2.15,-373.68
43992,801.06,771.95,753.67,755.88,770.64,-43.46,-921.87,423.83,-2.95,-0.91,0.63,-369.26
44030,802.41,771.70,753.59,755.63,770.83,-46.88,-924.32,436.52,-0.31,1.55,1.72,-370.11
44066,804.13,771.49,753.53,755.35,771.12,-42.97,-922.36,424.32,-2.00,0.57,-0.92,-371.70
44101,805.69,771.32,753.47,754.98,771.37,-37.11,-936.52,420.41,-2.23,0.08,1.44,-371.83
44136,807.54,771.02,753.45,754.94,771.74,-45.90,-939.45,426.27,-4.52,-2.44,0.50,-375.75
44171,807.81,770.85,753.41,754.82,771.72,-22.95,-922.85,436.04,-3.60,-0.11,-1.57,-374.62
44206,808.53,770.46,753.29,754.67,771.74,-71.29,-942.87,402.34,-0.63,-0.34,1.08,-374.55
44244,808.47,770.26,753.35,754.53,771.65,-39.06,-928.22,432.62,-4.05,1.89,0.07,-369.27
44279,806.85,770.15,753.27,754.53,771.20,-40.04,-946.29,424.32,-2.15,0.45,1.13,-364.79
44315,806.31,770.69,753.41,754.75,771.29,-52.25,-925.78,427.25,4.54,4.11,-2.94,-367.02
44350,805.48,770.87,753.43,754.51,771.07,-26.37,-929.20,410.16,4.73,2.76,-2.18,-361.76
44385,805.67,770.79,753.43,754.71,771.15,-60.55,-952.64,387.70,3.60,1.69,0.34,-364.41
44420,804.24,771.03,753.65,755.45,771.09,-49.80,-944.34,412.60,8.75,-3.39,-0.58,-367.08
44458,801.31,770.98,753.74,755.41,770.36,-36.62,-902.83,466.31,4.63,1.34,-1.01,-353.69
44493,801.70,770.65,753.75,755.30,770.35,-39.55,-915.53,423.83,-0.95,0.02,-2.45,-350.56
44528,800.57,770.53,753.87,755.70,770.17,-41.99,-922.36,429.20,5.95,-2.17,0.34,-348.40
44563,799.32,770.78,753.94,756.07,770.03,-47.36,-957.52,442.38,5.49,-4.13,-0.44,-349.84
44598,798.28,770.77,754.03,756.28,769.84,-41.02,-925.29,450.68,6.73,-3.21,0.37,-347.21
44636,796.56,770.54,754.09,756.46,769.41,-37.11,-915.04,430.66,2.90,-2.79,2.73,-340.66
44671,795.19,770.54,754.12,756.77,769.16,-23.93,-910.64,445.31,8.60,-5.09,1.13,-339.77
44705,793.37,770.35,754.15,757.07,768.74,-41.02,-916.99,458.98,3.87,-5.42,-0.56,-335.75
44740,789.63,770.21,754.08,757.12,767.76,-21.97,-915.04,441.41,3.70,-2.92,0.88,-323.91
44775,787.31,770.08,754.03,757.35,767.19,-42.48,-930.18,451.66,-0.03,-2.28,0.69,-319.64
44810,785.63,770.37,754.10,757.71,766.95,-10.25,-903.32,464.84,4.42,-2.48,-2.71,-319.75
44847,785.02,770.75,754.14,758.11,767.00,-41.50,-911.13,462.40,2.58,0.98,-2.19,-325.61
44882,785.71,770.98,754.21,758.26,767.29,-40.04,-918.46,453.12,8.39,-2.99,0.33,-330.32
44917,787.41,770.89,754.23,758.78,767.83,-31.74,-920.90,470.21,13.11,-4.16,0.42,-342.57
44952,790.46,770.71,754.33,758.86,768.59,-46.39,-900.39,497.07,9.93,-1.93,1.14,-350.33
44987,793.23,770.48,754.24,758.51,769.11,-41.50,-875.98,508.79,-0.99,-1.15,0.27,-355.15
45023,795.36,770.92,754.07,758.12,769.62,-27.34,-897.46,482.91,-2.96,1.72,-2.81,-364.47
45061,797.41,771.63,754.02,758.56,770.41,-71.78,-931.15,435.06,2.35,0.20,1.56,-384.85
45096,797.56,772.31,754.37,759.90,771.03,-40.53,-929.69,446.29,14.12,-4.66,1.13,-401.74
45131,794.50,772.79,754.74,761.35,770.85,-19.04,-867.68,517.09,10.19,-2.56,-0.59,-407.19
45166,790.93,773.21,755.07,762.19,770.35,-32.23,-879.39,516.11,4.03,2.15,-0.99,-402.54
45201,789.60,773.98,755.14,763.07,770.45,-29.30,-886.23,502.93,5.82,-1.48,-3.79,-415.54
45236,789.39,774.62,755.32,763.79,770.78,-30.27,-888.67,503.42,4.47,-0.77,-2.12,-425.92
45273,789.06,774.87,755.44,764.49,770.97,-36.62,-904.79,488.28,3.19,0.73,-1.27,-433.98
45309,788.15,775.32,755.70,765.29,771.11,-19.04,-886.23,514.16,3.18,0.65,-2.47,-439.90
45344,787.36,775.69,755.86,766.04,771.24,-33.69,-889.65,501.95,3.56,-1.33,-0.19,-447.35
45378,786.67,776.24,756.03,767.00,771.49,-33.69,-876.95,510.25,2.56,-1.84,-2.46,-459.07
45414,785.29,776.66,756.28,767.87,771.53,-40.53,-879.88,511.23,3.11,-0.50,-2.24,-464.23
45449,783.45,776.72,756.47,768.48,771.28,-33.20,-893.55,512.21,2.47,-3.44,0.53,-462.85
45486,781.03,776.69,756.57,769.32,770.90,-31.25,-893.55,504.39,1.83,-1.38,-0.09,-464.11
45521,778.23,776.77,756.77,769.67,770.36,-26.37,-881.84,519.04,-2.43,-0.92,-2.66,-455.41
45556,775.73,776.73,756.90,770.04,769.85,-31.74,-890.14,509.28,-0.39,-2.14,-0.76,-448.56
45591,773.79,776.67,756.92,770.40,769.44,-30.76,-874.02,522.46,-2.50,-2.54,-0.40,-446.21
45626,772.49,776.50,756.94,770.61,769.14,-15.63,-883.79,510.25,-1.26,-0.92,-2.22,-443.02
45664,771.77,776.23,756.83,770.55,768.84,-29.79,-878.42,508.30,-1.11,0.47,-0.89,-440.14
45699,772.01,776.04,756.81,770.39,768.82,-21.48,-890.14,510.74,2.10,-1.96,-2.04,-437.67
45734,772.98,775.77,756.71,770.14,768.90,-32.71,-875.00,520.02,1.86,-0.90,2.01,-437.55
45769,774.03,775.63,756.59,769.84,769.02,-24.41,-892.58,519.53,0.33,-1.31,1.40,-438.65
45804,775.26,775.35,756.41,769.45,769.12,-36.62,-876.95,517.09,0.37,-0.31,-2.16,-439.49
45839,776.49,775.17,756.35,769.25,769.31,-32.71,-886.23,507.81,-0.26,-0.06,0.48,-440.97
45877,777.65,775.14,756.28,769.08,769.54,-26.37,-882.32,504.88,1.49,3.11,-2.98,-443.87
45912,779.05,775.21,756.31,768.91,769.87,-34.67,-874.51,511.72,2.09,0.32,-2.60,-446.05
45947,780.56,775.20,756.17,768.70,770.16,-22.46,-878.42,511.72,1.91,-0.33,-0.60,-451.51
45982,781.42,775.18,756.09,768.42,770.28,-39.55,-888.18,520.51,-1.89,2.58,0.85,-452.02
46018,781.66,775.12,756.05,768.10,770.23,-33.20,-884.77,517.09,-1.18,0.72,-0.28,-448.85
46053,781.70,774.99,755.98,767.84,770.13,-31.74,-872.07,506.35,-2.88,-1.37,-0.67,-445.55
46090,781.53,774.78,755.90,767.60,769.95,-31.74,-872.56,511.23,-3.50,0.07,-1.14,-441.93
46125,781.39,774.66,755.94,767.41,769.85,-35.64,-891.60,499.51,-0.75,1.22,0.35,-436.46
46160,780.86,774.53,755.82,767.28,769.62,-42.97,-892.58,510.25,-1.21,-0.89,-1.40,-434.96
46195,780.70,774.41,755.82,767.24,769.54,-29.79,-887.70,512.70,-0.59,-0.11,-1.27,-432.84
46230,780.69,774.28,755.75,767.10,769.46,-27.34,-889.16,519.04,-0.08,-0.21,-0.77,-431.37
46265,780.54,774.34,755.88,767.12,769.47,-23.44,-880.37,511.23,-1.83,-0.46,-2.13,-428.37
46303,780.48,774.27,755.82,767.18,769.44,-48.34,-887.70,518.55,-1.45,-1.21,1.91,-429.94
46338,780.76,774.29,755.73,767.15,769.48,-35.16,-884.28,515.14,0.33,1.53,2.05,-432.80
46372,781.05,774.38,755.74,767.10,769.57,-25.88,-893.55,517.09,-1.53,-0.01,-2.19,-433.67
46407,781.51,774.35,755.70,767.06,769.65,-33.69,-893.55,505.86,1.20,0.72,2.80,-435.25
46442,781.89,774.33,755.72,767.01,769.74,-29.79,-890.14,509.77,-0.98,1.44,-0.63,-435.44
46480,782.38,774.23,755.66,766.87,769.79,-28.81,-896.48,510.74,0.54,2.72,-0.53,-435.68
46515,783.21,774.26,755.61,766.84,769.98,-41.02,-892.09,518.07,0.76,0.45,-1.74,-439.44
46550,783.70,774.28,755.63,766.73,770.08,-27.83,-880.37,510.74,-0.17,-0.18,1.44,-439.26
46585,784.18,774.22,755.57,766.81,770.19,-28.81,-886.72,521.00,1.10,-2.21,0.29,-443.03
46620,784.75,774.24,755.57,766.88,770.36,-21.48,-894.53,529.79,0.89,1.37,-0.51,-446.33
46655,785.15,774.34,755.63,766.90,770.50,-39.06,-885.25,516.60,1.11,1.82,1.08,-447.15
46693,785.07,774.25,755.65,766.93,770.47,-26.37,-879.88,515.62,-1.75,-1.47,-0.18,-446.24
46728,784.84,774.20,755.62,767.09,770.44,-35.64,-885.25,508.30,-0.98,0.85,-1.89,-447.92
46763,784.81,774.13,755.62,767.02,770.40,-25.88,-889.16,522.46,0.76,0.67,-0.54,-446.50
46798,784.44,774.22,755.64,767.11,770.35,-25.88,-878.91,514.16,0.16,-2.75,-0.87,-446.57
46833,783.94,774.12,755.64,767.16,770.22,-31.74,-891.11,515.14,-2.37,-2.81,-0.71,-444.87
46868,783.46,774.19,755.61,767.20,770.11,-35.16,-884.28,509.28,0.21,-1.89,-0.91,-445.13
46906,783.10,774.18,755.63,767.15,770.02,-35.64,-885.74,521.48,-0.14,0.66,-0.70,-442.45
46942,782.86,773.95,755.64,767.04,769.87,-32.23,-882.32,516.60,-0.08,-0.09,-0.28,-438.17
46977,782.83,773.87,755.53,766.99,769.80,-28.81,-884.28,517.58,-0.58,0.29,0.69,-439.31
47012,783.08,773.82,755.54,766.95,769.85,-22.95,-888.18,508.30,-0.99,-3.02,-0.06,-438.98
47047,783.27,773.70,755.54,766.87,769.84,-28.32,-892.09,507.32,0.15,0.95,0.04,-437.47
47082,783.31,773.68,755.52,766.79,769.82,-42.97,-886.72,513.67,-1.90,0.33,-0.51,-436.76
47120,783.45,773.55,755.50,766.70,769.80,-40.04,-880.37,520.51,-1.73,-1.55,-1.70,-435.51
47155,783.98,773.43,755.48,766.57,769.87,-15.63,-880.37,514.16,-1.24,0.23,-2.40,-434.75
47190,784.23,773.39,755.49,766.53,769.91,-31.74,-873.54,523.93,-0.31,-0.04,0.01,-434.60
47225,784.75,773.45,755.56,766.45,770.05,-26.37,-881.84,508.30,-1.73,0.82,-2.55,-433.86
47260,785.18,773.51,755.45,766.46,770.15,-30.76,-898.93,521.97,2.21,1.40,-0.37,-438.75
47298,785.50,773.56,755.46,766.35,770.22,-33.20,-896.00,514.65,-2.38,0.85,0.66,-438.36
47333,785.82,773.50,755.45,766.23,770.25,-37.11,-870.61,518.55,-0.29,1.20,-3.16,-437.42
47369,786.36,773.32,755.44,766.12,770.31,-25.39,-894.04,514.16,1.51,0.66,-0.85,-436.28
47404,786.74,773.31,755.43,766.04,770.38,-28.32,-896.97,520.51,0.64,-0.50,-1.58,-436.66
47439,787.23,773.25,755.37,765.84,770.42,-25.39,-891.60,511.23,-0.39,-1.78,-0.76,-436.46
47474,787.18,773.17,755.47,765.72,770.39,-37.60,-876.95,527.34,0.08,0.08,-4.23,-431.24
47512,786.70,773.09,755.34,765.57,770.17,-28.81,-887.70,504.88,-0.56,-0.27,0.54,-430.08
47547,786.75,772.85,755.24,765.24,770.02,-25.88,-882.32,514.65,-2.27,0.55,-0.27,-426.07
47582,786.96,772.67,755.25,764.99,769.97,-22.95,-886.72,516.11,-0.84,-0.24,-0.95,-421.43
47618,787.44,772.39,755.29,764.68,769.95,-19.04,-887.70,514.16,-1.88,1.80,-0.33,-415.22
47653,787.87,772.08,755.21,764.27,769.86,-28.32,-896.48,509.77,-2.53,-0.82,-1.89,-410.17
47688,788.53,771.67,755.09,763.81,769.78,-33.69,-887.21,510.74,-1.98,1.22,-1.83,-405.31
47726,789.60,771.28,754.95,763.31,769.79,-34.18,-884.28,516.11,-1.65,0.94,-0.51,-401.90
47761,790.78,771.06,754.87,763.03,769.94,-36.13,-890.14,506.35,-1.63,1.05,-0.74,-402.06
47795,791.68,770.89,754.92,762.82,770.08,-34.67,-875.49,521.00,-0.25,-0.95,0.11,-399.50
47831,792.41,770.68,754.78,762.55,770.11,-30.27,-893.55,511.23,-1.53,1.02,-1.18,-399.98
47866,792.78,770.43,754.75,762.24,770.05,-44.92,-885.25,501.95,0.45,0.31,0.31,-395.27
47901,792.63,770.26,754.80,761.89,769.90,-26.86,-896.00,513.67,-2.92,-1.28,-0.97,-387.08
47939,792.08,769.80,754.62,761.56,769.51,-35.16,-895.02,493.16,-2.93,0.22,2.31,-381.09
47974,791.44,769.08,754.53,760.93,769.00,-32.23,-889.16,503.42,-4.47,-1.32,0.91,-366.07
48009,790.22,768.31,754.42,760.43,768.34,-25.39,-905.27,511.23,-5.70,0.83,-0.01,-351.06
48044,787.79,767.21,754.28,759.53,767.20,-41.02,-897.46,498.05,-12.09,-0.79,0.70,-324.45
48079,784.67,766.66,754.11,758.93,766.09,-33.69,-873.05,510.25,-11.12,-1.33,-2.66,-304.35
48116,785.75,766.25,753.95,758.37,766.08,-23.44,-883.79,484.37,-6.21,-1.10,3.48,-300.57
48152,789.60,766.17,753.97,758.29,767.01,-35.16,-909.18,479.98,-3.13,0.31,1.04,-311.51
48187,795.04,766.85,753.91,758.23,768.51,-41.50,-902.83,482.91,-2.02,-0.83,-2.56,-336.28
48222,798.26,766.77,753.81,757.60,769.11,-34.18,-919.92,489.75,-12.31,3.83,-0.11,-340.09
48257,799.21,766.75,753.90,757.22,769.27,-34.67,-917.48,445.80,-5.60,3.18,-0.33,-335.24
48292,801.94,766.33,753.78,756.72,769.69,-41.02,-941.89,460.45,-8.20,5.02,-0.49,-336.90
48330,802.76,765.85,753.72,756.03,769.59,-30.76,-914.06,474.12,-13.96,2.08,-0.10,-327.07
48365,803.78,765.48,753.61,755.86,769.68,-70.31,-893.07,487.30,-8.41,1.92,0.33,-327.88
48400,804.64,765.74,753.73,755.72,769.96,-36.13,-899.41,482.42,-5.04,2.22,-4.34,-327.92
48435,804.57,766.01,753.59,755.79,769.99,-36.13,-920.90,469.73,-6.26,7.95,-5.13,-334.33
48470,803.19,767.28,753.75,756.08,770.07,-38.09,-919.43,446.78,-2.98,4.60,-7.11,-340.14
