currTime,s1,s2,s3,s4,s,AccX,AccY,AccZ,GyroX,GyroY,GyroZ,GRF
26,790.49,769.29,767.96,769.56,774.33,123.05,-842.77,543.95,-1.36,0.46,-0.47,-157.15
59,790.24,769.29,767.96,769.56,774.26,98.63,-840.82,564.45,0.74,0.37,1.53,-156.22
93,789.88,769.21,767.97,769.57,774.16,114.26,-843.26,558.11,0.67,1.81,-1.94,-154.05
127,789.40,769.08,767.97,769.40,773.96,125.49,-845.21,545.41,-1.18,2.65,1.63,-148.80
161,788.90,769.07,767.96,769.35,773.82,117.19,-837.89,568.36,1.43,1.33,-0.54,-146.57
195,788.57,769.05,767.93,769.24,773.70,117.19,-851.07,553.71,0.86,0.56,-0.60,-144.33
229,788.14,769.00,767.98,769.24,773.59,110.35,-835.94,571.29,-1.00,0.05,1.05,-141.27
263,787.78,769.06,767.99,769.14,773.49,116.70,-848.14,566.41,-1.73,3.50,-0.93,-138.79
297,787.46,768.98,767.97,769.31,773.43,115.72,-842.29,558.11,0.98,1.79,1.71,-140.12
331,787.20,769.09,767.97,769.36,773.41,117.68,-846.68,562.99,0.77,0.12,-0.13,-140.76
365,787.04,769.04,768.08,769.39,773.39,115.72,-849.61,574.71,0.64,0.96,0.63,-137.53
402,787.07,769.08,768.09,769.43,773.42,124.51,-834.47,558.11,1.08,1.39,0.37,-138.57
436,787.28,769.10,768.09,769.45,773.48,107.91,-834.47,562.99,2.74,1.54,2.53,-139.58
470,787.23,769.08,768.12,769.49,773.48,119.63,-841.80,579.10,-1.37,0.44,-1.30,-138.97
504,787.19,769.06,768.15,769.50,773.47,127.44,-841.80,562.01,0.12,1.64,0.37,-138.13
539,787.18,769.15,768.07,769.40,773.45,122.56,-836.43,566.41,1.71,0.60,-0.37,-139.34
573,787.22,769.19,768.14,769.38,773.48,114.26,-862.30,574.22,0.07,-0.07,1.65,-137.63
607,787.20,769.15,768.07,769.30,773.43,116.21,-849.61,552.25,1.60,0.76,0.61,-138.05
641,786.96,769.14,768.12,769.33,773.39,113.77,-837.89,555.18,0.13,0.56,1.42,-136.19
675,786.76,769.15,768.08,769.33,773.33,112.79,-850.59,563.48,1.20,0.30,0.31,-136.64
709,786.22,769.03,768.09,769.21,773.14,115.72,-844.24,553.71,-1.21,0.11,-0.24,-131.68
744,785.76,769.01,768.07,769.15,773.00,107.42,-877.93,538.57,0.32,0.87,-0.11,-129.74
778,785.70,769.01,768.14,769.21,773.02,134.77,-823.73,563.96,1.32,2.39,0.14,-128.73
814,785.85,769.01,768.13,769.25,773.06,107.91,-855.47,539.06,1.45,2.55,1.47,-129.79
848,786.00,769.02,768.08,769.23,773.08,123.05,-847.66,545.90,0.08,1.37,2.93,-131.56
882,786.29,768.98,768.00,769.21,773.12,119.14,-843.26,547.85,-0.05,-0.17,1.15,-133.94
918,786.57,769.09,768.05,769.16,773.22,108.89,-833.98,558.59,0.73,0.51,-0.38,-133.95
952,786.97,768.95,768.02,769.11,773.26,111.33,-844.24,580.57,1.60,1.61,0.95,-134.09
986,787.43,768.96,768.08,769.05,773.38,123.05,-837.89,558.11,0.28,5.80,0.56,-133.47
1020,787.67,769.08,767.99,769.00,773.43,122.07,-859.37,537.60,-0.92,2.66,-0.26,-136.65
1054,788.05,768.93,767.95,768.89,773.46,108.89,-828.61,553.22,-0.24,-0.19,-1.22,-136.13
1088,788.22,768.93,767.87,768.73,773.44,113.28,-847.17,556.15,-0.25,0.98,1.17,-136.22
1123,788.29,769.01,767.91,768.74,773.49,108.40,-834.96,560.06,1.32,2.24,-1.49,-136.25
1188,788.34,768.91,767.84,768.51,773.40,111.33,-844.73,562.01,1.07,0.12,1.54,-134.14
1239,788.02,768.77,767.74,768.34,773.22,109.37,-842.77,561.52,-0.69,-0.53,0.12,-131.78
1275,787.73,768.71,767.66,768.01,773.03,125.98,-848.14,558.11,-1.80,-0.18,-1.43,-127.59
1309,787.48,768.57,767.56,767.92,772.88,109.37,-842.29,575.20,0.31,2.03,-1.37,-126.80
1344,787.50,768.44,767.53,767.72,772.80,105.96,-841.31,555.66,-1.37,1.29,-1.04,-123.42
1378,787.54,768.45,767.43,767.63,772.76,114.26,-843.26,552.73,-3.56,3.63,-0.17,-124.82
1412,787.39,768.39,767.36,767.43,772.64,117.68,-850.59,544.43,-0.10,2.65,-0.47,-122.80
1446,787.26,768.30,767.29,767.26,772.53,114.75,-835.45,550.78,0.91,0.34,1.46,-120.56
1480,787.14,768.30,767.28,767.14,772.47,119.63,-847.66,559.08,-1.17,3.04,2.89,-118.78
1513,786.86,768.34,767.33,767.13,772.41,108.89,-833.50,574.22,-0.34,2.38,-0.24,-116.93
1547,786.61,768.35,767.33,767.07,772.34,108.40,-841.80,563.48,-0.57,3.99,-1.53,-115.26
1580,786.35,768.34,767.28,767.07,772.26,121.09,-846.68,563.48,-0.39,1.81,0.73,-115.34
1614,785.93,768.32,767.36,767.06,772.17,121.09,-844.73,559.57,0.80,1.53,-0.77,-111.75
1648,785.53,768.27,767.28,766.93,772.00,131.35,-841.80,556.15,-1.79,3.60,-0.45,-110.11
1684,785.09,768.28,767.33,766.93,771.91,104.00,-852.05,548.83,-0.56,2.56,1.20,-107.32
1718,784.59,768.25,767.28,766.87,771.74,136.72,-857.42,554.69,1.51,2.31,0.83,-105.66
1752,784.13,768.22,767.29,766.78,771.61,102.54,-837.89,548.34,1.12,0.33,0.67,-102.37
1785,783.87,768.17,767.27,766.67,771.50,106.93,-853.03,551.27,-0.59,0.60,0.35,-100.01
1819,783.72,768.21,767.33,766.68,771.49,98.63,-847.66,557.13,0.39,0.01,0.03,-98.49
1853,783.56,768.25,767.27,766.55,771.41,114.75,-851.07,559.57,-0.58,2.33,0.57,-97.83
1887,783.57,768.23,767.26,766.63,771.42,108.89,-844.24,546.39,-0.17,0.69,1.18,-99.04
1921,783.41,768.26,767.30,766.62,771.40,115.72,-840.82,544.43,0.73,-0.25,0.87,-97.57
1955,783.28,768.27,767.29,766.58,771.35,109.86,-839.36,560.06,-0.55,1.15,1.14,-96.74
1990,783.19,768.39,767.29,766.59,771.36,119.14,-852.54,534.18,0.35,-0.89,1.31,-97.63
2024,783.11,768.48,767.34,766.64,771.39,105.96,-832.52,565.43,0.12,1.31,1.14,-97.53
2060,782.93,768.45,767.32,766.64,771.34,112.79,-852.05,543.46,-0.94,-0.24,0.28,-97.14
2094,782.60,768.52,767.35,766.65,771.28,104.49,-851.56,552.73,-0.12,-0.37,1.75,-96.07
2128,782.09,768.53,767.38,766.65,771.16,117.68,-857.91,566.89,-0.50,1.11,1.76,-93.82
2164,781.54,768.41,767.39,766.67,771.00,122.07,-856.93,549.80,0.56,-0.52,-2.82,-90.84
2198,780.85,768.34,767.33,766.64,770.79,116.21,-851.07,544.92,-0.05,1.54,-1.18,-88.92
2232,780.12,768.33,767.38,766.57,770.60,122.07,-849.61,557.13,0.06,0.22,1.13,-84.21
2266,779.50,768.27,767.37,766.57,770.43,120.12,-830.57,553.71,-0.95,1.89,-0.60,-81.76
2300,778.94,768.23,767.35,766.60,770.28,119.63,-851.56,560.55,-1.98,1.94,0.44,-80.52
2335,778.51,768.26,767.40,766.57,770.19,116.70,-845.70,563.96,-0.19,0.86,0.17,-77.41
2369,778.10,768.18,767.38,766.61,770.06,109.37,-849.61,551.27,0.67,0.94,-0.21,-76.60
2403,777.98,768.20,767.41,766.71,770.08,101.56,-852.54,552.73,-2.05,1.66,-0.08,-77.05
2437,777.85,768.15,767.41,766.56,769.99,107.42,-854.00,543.95,1.01,1.18,0.31,-73.88
2473,777.73,768.18,767.35,766.74,770.00,120.61,-845.70,549.32,-1.15,0.15,2.92,-77.89
2507,777.69,768.19,767.46,766.73,770.02,126.95,-847.17,559.08,1.68,-0.28,-1.37,-75.06
2541,777.75,768.17,767.48,766.80,770.05,116.70,-850.59,549.80,0.63,0.63,-3.95,-75.64
2576,777.73,768.21,767.42,766.81,770.04,101.56,-849.12,540.04,2.46,2.24,0.90,-77.41
2610,777.71,768.20,767.45,766.81,770.04,109.86,-855.47,554.69,0.36,2.45,-1.98,-76.54
2644,777.63,768.18,767.47,766.81,770.02,98.14,-850.10,541.99,0.22,2.34,-2.11,-75.58
2678,777.56,768.17,767.42,766.88,770.01,118.65,-820.80,569.34,-0.41,1.92,3.21,-77.65
2712,777.53,768.25,767.40,766.76,769.98,108.89,-838.38,556.15,2.16,-1.31,0.51,-76.77
2746,777.33,768.24,767.41,766.75,769.93,119.14,-843.75,534.67,-0.39,1.76,-0.24,-75.70
2781,777.14,768.23,767.51,766.75,769.91,111.33,-863.28,551.76,-1.15,1.63,1.25,-72.55
2815,776.92,768.16,767.49,766.74,769.83,109.86,-828.61,549.80,1.21,2.67,-0.39,-71.44
2849,776.88,768.22,767.50,766.79,769.85,97.17,-847.17,555.18,0.68,2.47,0.98,-72.48
2885,776.99,768.11,767.48,766.72,769.82,111.33,-849.12,564.94,-0.02,-0.14,-0.10,-71.33
2919,776.92,768.19,767.46,766.79,769.84,117.68,-849.61,547.85,1.12,3.25,0.01,-73.24
2953,777.06,768.17,767.48,766.90,769.90,108.89,-847.17,552.25,1.27,2.84,0.09,-74.83
2988,777.06,768.23,767.48,766.91,769.92,105.96,-850.10,560.06,2.56,-0.39,-1.05,-75.46
3022,777.14,768.27,767.46,766.94,769.95,94.24,-850.10,552.73,1.27,-0.69,0.50,-76.97
3056,777.16,768.37,767.55,767.04,770.03,104.00,-837.40,538.09,2.65,4.10,1.61,-77.15
3092,777.29,768.49,767.49,766.99,770.06,103.52,-830.08,541.99,3.97,-0.44,2.00,-79.06
3125,777.36,768.48,767.43,767.10,770.09,110.35,-850.59,543.95,0.77,1.95,1.42,-82.43
3159,777.21,768.62,767.47,767.12,770.11,114.75,-856.45,555.66,0.35,-0.83,1.26,-82.26
3192,777.23,768.62,767.49,767.15,770.12,118.65,-844.73,560.55,3.31,2.01,0.12,-82.24
3226,777.28,768.61,767.49,767.05,770.11,118.16,-855.96,546.87,1.17,1.17,-0.37,-80.99
3260,777.24,768.68,767.42,767.14,770.12,109.37,-843.75,549.32,0.54,2.31,0.91,-84.38
3295,777.19,768.63,767.51,767.19,770.13,98.63,-853.03,562.01,0.65,-0.90,-1.02,-82.47
3330,777.20,768.62,767.44,767.13,770.10,103.03,-846.19,551.27,0.87,0.70,0.05,-83.06
3363,777.20,768.66,767.51,767.09,770.11,112.79,-849.61,557.13,0.02,3.87,-1.01,-81.23
3397,777.15,768.59,767.53,767.17,770.11,109.37,-853.52,546.87,0.76,-0.37,2.17,-81.02
3431,777.09,768.59,767.53,767.19,770.10,113.77,-848.14,550.78,0.47,-0.32,0.08,-81.13
3465,776.96,768.54,767.51,767.16,770.04,110.84,-855.96,538.09,1.10,0.79,-0.22,-80.45
3499,777.00,768.45,767.48,767.09,770.01,114.26,-823.24,553.22,-1.55,-1.66,0.05,-79.74
3533,777.06,768.52,767.59,767.18,770.09,120.12,-853.52,540.04,-0.07,0.15,-0.53,-78.76
3567,777.08,768.58,767.52,767.23,770.10,121.58,-830.08,563.48,2.81,2.89,-2.11,-81.90
3601,777.21,768.48,767.53,767.13,770.09,107.91,-850.59,566.41,0.14,2.08,-0.98,-79.88
3635,777.19,768.56,767.58,767.21,770.14,111.33,-847.17,542.97,0.02,-0.44,-0.27,-80.40
3669,777.39,768.53,767.57,767.13,770.16,108.40,-851.07,549.80,-0.79,-0.83,-0.02,-79.82
3705,777.46,768.50,767.49,767.14,770.15,116.70,-854.49,556.64,-0.75,1.24,-1.15,-82.07
3740,777.60,768.53,767.49,767.11,770.18,97.17,-842.77,549.80,1.82,1.58,0.77,-82.39
3774,777.60,768.50,767.54,767.04,770.17,115.23,-841.80,562.99,1.13,1.40,2.66,-79.84
3808,777.73,768.50,767.48,767.04,770.19,112.79,-846.68,555.18,0.92,3.18,2.44,-81.54
3842,777.93,768.57,767.53,767.03,770.26,94.24,-876.95,556.64,1.32,1.85,3.91,-81.66
3876,778.06,768.65,767.54,767.01,770.31,116.70,-835.94,536.62,0.33,3.31,1.27,-82.07
3911,778.18,768.67,767.72,766.97,770.39,118.16,-852.54,576.66,1.92,1.53,1.54,-77.58
3945,778.27,768.79,767.74,766.91,770.43,104.49,-868.65,532.71,2.26,2.42,-0.53,-77.37
3979,778.48,768.68,767.73,766.83,770.43,115.23,-831.54,555.66,3.62,1.47,0.96,-76.42
4013,778.65,768.78,767.78,766.74,770.49,108.40,-846.68,553.22,0.39,0.62,-0.40,-75.10
4049,778.96,768.73,767.76,766.65,770.53,109.86,-850.10,550.78,-0.21,-0.17,1.86,-74.98
4083,779.34,768.66,767.79,766.56,770.59,103.03,-841.80,555.18,1.02,0.30,1.96,-73.84
4119,779.63,768.61,767.78,766.43,770.61,101.56,-839.36,561.52,-1.15,0.37,0.10,-72.58
4153,779.91,768.62,767.69,766.23,770.61,114.75,-830.57,560.06,2.03,2.34,3.85,-73.18
4187,780.25,768.53,767.69,766.10,770.64,106.45,-844.24,551.27,1.97,1.34,-0.02,-71.49
4222,780.52,768.47,767.62,765.91,770.63,111.33,-856.93,546.39,0.09,1.84,2.14,-70.88
4256,780.67,768.46,767.55,765.76,770.61,105.47,-844.73,552.25,0.21,0.75,2.58,-70.97
4290,780.70,768.39,767.48,765.56,770.53,108.89,-854.98,546.87,0.11,0.82,-0.82,-69.21
4324,780.87,768.29,767.41,765.41,770.49,97.66,-845.21,559.57,0.60,0.09,1.70,-68.53
4358,780.85,768.38,767.44,765.32,770.50,97.66,-855.96,560.06,0.07,2.11,0.92,-67.01
4392,781.13,768.41,767.45,765.20,770.55,117.19,-849.12,553.22,1.98,1.44,2.30,-66.52
4427,781.33,768.37,767.47,765.11,770.57,100.10,-852.54,553.22,-1.13,1.69,0.11,-64.78
4461,781.66,768.40,767.51,765.08,770.66,107.42,-840.33,539.55,1.92,0.95,1.09,-64.78
4495,782.02,768.38,767.54,764.99,770.73,118.65,-845.21,553.71,-0.79,0.06,1.84,-63.85
4531,782.32,768.33,767.46,764.88,770.75,102.54,-857.91,547.36,1.20,0.38,-0.71,-64.96
4565,782.60,768.31,767.48,764.74,770.78,102.05,-839.84,557.62,1.10,2.36,3.27,-63.14
4599,782.80,768.33,767.44,764.62,770.80,104.49,-843.75,564.94,-0.66,0.40,-2.06,-63.23
4634,782.79,768.34,767.42,764.61,770.79,111.82,-845.21,551.27,1.11,0.56,2.92,-63.48
4668,782.92,768.37,767.42,764.49,770.80,106.93,-852.54,553.71,0.15,0.50,-0.78,-62.63
4702,783.20,768.38,767.43,764.56,770.89,98.63,-844.24,560.06,0.53,3.81,-0.37,-64.22
4736,783.43,768.45,767.47,764.50,770.96,103.03,-812.50,569.34,-1.24,-2.89,-0.60,-63.73
4770,783.94,768.43,767.44,764.45,771.06,105.47,-855.96,567.38,0.85,3.64,0.18,-65.39
4803,784.23,768.52,767.45,764.45,771.16,123.54,-865.23,546.87,-0.36,1.01,1.66,-66.87
4837,784.18,768.66,767.43,764.37,771.16,101.07,-855.47,544.92,-1.07,0.22,5.25,-67.04
4871,784.26,768.87,767.43,764.54,771.27,104.98,-861.33,568.85,-0.61,2.95,-0.11,-71.48
4904,784.17,769.06,767.54,764.75,771.38,104.49,-845.70,571.78,3.03,2.73,0.20,-73.11
4941,783.90,769.34,767.65,764.94,771.46,103.03,-854.00,551.76,-0.07,4.41,1.73,-74.41
4976,783.77,769.55,767.77,765.30,771.60,92.77,-843.26,571.29,2.59,2.01,-0.07,-78.05
5010,783.37,769.70,767.99,765.63,771.67,90.82,-847.17,538.57,3.66,1.49,-0.25,-77.11
5043,783.06,769.88,768.21,765.87,771.75,106.45,-841.31,565.92,4.28,0.71,2.58,-75.69
5077,782.65,769.96,768.34,766.09,771.76,107.42,-839.84,560.06,0.76,-0.53,1.23,-75.00
5111,782.22,770.09,768.56,766.27,771.78,104.98,-844.24,554.20,2.74,2.85,1.89,-71.63
5145,781.88,770.24,768.74,766.59,771.86,98.63,-847.66,555.18,1.63,-0.74,-0.47,-71.90
5179,781.76,770.42,768.81,766.78,771.94,96.19,-838.38,563.96,2.44,3.47,0.15,-74.02
5213,781.69,770.63,768.97,766.97,772.07,88.87,-850.10,545.90,1.56,2.63,-1.49,-74.39
5247,781.87,770.81,769.00,767.05,772.18,23.44,-781.74,611.33,1.66,-1.39,-3.76,-76.82
5281,782.32,770.93,768.88,767.23,772.34,114.75,-876.46,577.64,-16.31,-2.01,2.88,-84.89
5318,782.56,771.15,768.92,767.24,772.47,91.80,-846.19,549.80,10.92,6.97,2.28,-86.70
5352,783.11,771.33,768.98,767.30,772.68,94.73,-818.85,562.01,-1.02,2.18,1.60,-89.47
5386,783.58,771.34,768.91,767.26,772.77,87.40,-851.07,550.78,1.47,1.09,1.16,-92.15
5420,784.00,771.54,768.97,767.41,772.98,95.70,-844.73,565.92,0.24,1.63,-0.96,-95.99
5454,784.25,771.70,769.00,767.46,773.10,80.57,-835.45,575.20,3.01,3.99,0.62,-97.96
5488,784.32,771.67,769.02,767.45,773.11,93.75,-847.17,564.45,0.08,2.14,-0.13,-97.58
5523,784.33,771.74,769.06,767.53,773.17,88.87,-852.05,559.57,0.40,-0.60,0.29,-98.07
5557,784.23,771.66,769.13,767.48,773.13,90.33,-849.61,557.13,1.02,2.32,1.45,-94.78
5591,784.21,771.61,769.13,767.55,773.12,75.20,-848.14,543.46,1.57,-0.08,0.63,-95.36
5625,784.38,771.59,769.13,767.50,773.15,89.36,-831.05,592.29,0.56,1.68,-0.76,-94.91
5659,784.63,771.52,769.09,767.41,773.16,90.82,-845.21,559.57,1.82,0.56,0.16,-94.88
5693,784.54,771.52,769.08,767.28,773.11,83.01,-830.57,580.57,0.11,1.80,-1.25,-92.91
5729,784.27,771.49,769.00,767.23,773.00,99.61,-828.12,572.27,-1.75,1.10,3.40,-93.04
5763,784.05,771.48,768.94,766.96,772.86,97.17,-836.91,558.11,-1.37,2.22,-0.58,-89.73
5798,783.72,771.50,768.87,766.96,772.76,76.66,-840.82,555.66,-2.28,-0.81,1.88,-90.45
5832,783.19,771.37,768.81,766.69,772.52,87.89,-834.47,574.22,-3.53,0.67,0.26,-85.09
5866,782.73,771.34,768.79,766.59,772.36,88.87,-833.01,564.94,-1.47,1.57,0.77,-82.31
5902,782.36,771.17,768.75,766.52,772.20,103.03,-840.33,559.08,-0.22,0.47,-0.33,-79.86
5936,782.09,771.14,768.82,766.55,772.15,94.24,-852.05,559.08,1.56,0.85,-1.61,-77.14
5970,782.06,771.08,768.72,766.49,772.09,110.84,-837.89,569.34,-0.13,0.70,-0.87,-78.32
6004,782.06,771.13,768.71,766.50,772.10,106.45,-840.82,568.85,1.94,1.23,-1.15,-79.02
6038,781.99,771.14,768.75,766.52,772.10,89.36,-833.01,565.92,1.53,1.01,1.40,-78.14
6072,781.90,771.20,768.78,766.56,772.11,109.86,-834.47,570.31,-1.64,1.23,1.82,-78.30
6107,781.78,771.21,768.87,766.63,772.12,82.03,-841.31,567.38,0.59,0.89,2.69,-76.69
6142,781.65,771.20,768.79,766.58,772.05,87.89,-838.87,545.41,1.05,2.11,2.37,-77.54
6176,781.40,771.22,768.78,766.61,772.00,94.24,-842.29,554.20,0.57,2.82,1.16,-77.21
6211,781.07,771.24,768.76,766.53,771.90,100.59,-842.77,562.99,0.65,0.88,1.47,-75.68
6245,780.94,771.21,768.70,766.50,771.84,100.59,-844.73,568.36,-0.32,0.18,-3.79,-76.05
6279,780.79,771.12,768.60,766.43,771.74,100.10,-831.54,569.82,-0.64,3.06,2.92,-76.28
6313,780.67,771.12,768.61,766.45,771.71,89.84,-846.68,576.17,-1.48,2.15,-0.24,-76.07
6347,780.82,771.07,768.45,766.31,771.66,90.82,-849.12,540.53,-1.37,3.02,0.36,-78.13
6381,781.19,770.94,768.33,766.13,771.65,97.66,-859.86,553.22,-0.82,3.07,-2.29,-78.70
6415,781.71,770.92,768.06,765.92,771.65,93.26,-852.54,554.69,-1.49,0.40,2.79,-83.80
6449,782.19,770.76,767.80,765.74,771.62,87.89,-834.96,558.59,1.27,2.24,1.03,-88.18
6482,782.94,770.58,767.50,765.39,771.60,88.87,-848.14,558.11,-3.69,3.58,0.34,-91.37
6516,783.26,770.48,767.22,765.19,771.54,93.75,-838.38,552.73,1.29,1.18,-1.30,-95.70
6551,783.69,770.31,766.92,764.90,771.45,94.73,-839.84,553.71,-2.63,2.33,-2.49,-99.13
6585,784.18,770.01,766.55,764.57,771.33,90.82,-834.47,539.06,-4.51,-0.79,-0.65,-102.83
6619,785.01,769.71,766.26,764.15,771.28,80.08,-841.80,555.66,-2.24,1.20,-0.66,-104.36
6653,785.71,769.38,765.79,763.80,771.17,96.19,-834.96,564.45,-3.85,1.77,-0.40,-110.60
6687,785.72,769.21,765.51,763.51,770.99,104.49,-853.03,554.69,-1.66,5.27,-0.26,-112.03
6720,785.41,769.28,765.32,763.34,770.84,90.33,-837.89,546.87,-3.12,2.02,0.19,-113.67
6754,785.21,769.14,765.09,763.22,770.66,92.77,-846.19,542.48,-3.34,-0.48,0.74,-115.69
6788,784.43,769.22,764.84,763.12,770.40,97.66,-844.73,546.39,-3.00,1.86,2.63,-118.63
6822,783.35,769.39,764.68,763.22,770.16,90.82,-855.96,550.29,-2.58,-0.21,2.08,-121.61
6858,781.51,769.35,764.42,763.15,769.61,94.24,-852.05,546.39,-4.46,1.98,-0.08,-120.46
6892,778.79,769.12,764.02,762.89,768.71,87.89,-851.56,550.78,-6.99,2.26,2.34,-115.50
6926,773.55,768.72,763.48,762.51,767.06,94.24,-858.89,532.71,-13.06,3.77,1.21,-102.17
6962,765.77,767.76,762.73,761.72,764.50,80.57,-871.58,547.36,-29.11,-1.44,-1.49,-74.88
6996,759.08,766.58,761.81,760.84,762.08,73.24,-875.98,518.07,-44.21,-7.23,1.40,-52.38
7030,755.65,765.26,760.85,760.05,760.45,104.00,-906.25,460.94,-68.79,-14.40,0.36,-42.09
7064,755.28,764.00,760.21,759.35,759.71,246.09,-919.92,642.58,-66.89,11.27,31.85,-36.42
7098,755.04,762.95,759.91,759.06,759.24,68.85,-923.83,401.37,-92.85,-13.05,49.36,-30.44
7132,755.01,762.51,759.52,758.77,758.95,25.88,-1475.59,601.07,-36.53,-21.68,47.22,-32.27
7167,754.92,762.31,759.35,758.74,758.83,169.43,-1012.21,392.58,42.31,-32.27,6.66,-34.17
7201,754.90,762.26,759.31,758.61,758.77,216.80,-930.18,279.30,39.92,-33.60,11.76,-32.67
7235,754.84,762.22,759.31,758.61,758.74,282.71,-990.72,261.72,24.76,-36.08,8.56,-32.42
7269,754.81,762.07,759.29,758.60,758.69,294.43,-922.36,220.70,22.19,-24.05,-0.24,-31.36
7303,754.74,762.01,759.25,758.53,758.63,315.43,-908.20,193.36,5.14,-16.94,-6.97,-30.55
7337,754.74,762.01,759.22,758.54,758.63,327.64,-833.50,166.02,-10.43,-6.60,-8.60,-31.40
7373,754.69,761.97,759.13,758.51,758.57,324.22,-831.54,185.55,-25.93,-0.14,-16.34,-32.77
7407,754.59,761.80,759.18,758.55,758.53,318.85,-810.55,187.01,-28.32,2.23,-29.83,-30.47
7441,754.56,761.73,759.09,758.54,758.48,306.15,-860.84,192.87,-41.34,0.31,-38.04,-31.94
7476,754.58,761.79,759.07,758.53,758.49,276.37,-873.54,218.75,-49.27,-0.24,-44.19,-32.62
7510,754.53,761.68,759.13,758.49,758.46,267.09,-920.41,241.70,-44.64,1.91,-48.24,-29.54
7544,754.41,761.68,759.09,758.44,758.40,204.10,-984.86,279.30,-48.58,-3.92,-57.26,-29.37
7578,754.33,761.69,759.09,758.47,758.40,158.69,-929.69,258.30,-46.98,-5.15,-57.05,-29.88
7612,754.30,761.65,759.00,758.46,758.35,139.16,-939.94,264.16,-56.67,-2.81,-39.58,-31.54
7646,754.28,761.56,759.05,758.38,758.32,164.55,-1109.38,277.83,-80.69,-1.25,-43.93,-28.03
7680,754.15,761.55,759.06,758.41,758.29,68.36,-1013.67,284.67,-52.42,20.71,-48.58,-27.81
7715,754.12,761.37,759.01,758.47,758.24,-8.30,-968.75,318.85,-31.93,27.18,-19.82,-28.43
7749,754.09,761.33,759.00,758.37,758.20,-42.48,-995.61,288.09,-4.78,30.01,17.57,-26.64
7785,754.01,761.33,759.05,758.32,758.18,5.86,-1092.77,247.56,-1.53,12.41,12.08,-24.61
7820,753.92,761.22,759.02,758.44,758.15,1.46,-984.86,187.50,31.12,9.05,3.25,-25.87
7854,753.79,761.20,758.96,758.39,758.09,41.99,-921.39,164.06,36.01,15.98,22.37,-26.05
7888,753.87,761.07,758.96,758.41,758.08,86.91,-939.94,146.00,38.21,30.63,43.70,-25.57
7923,753.87,761.08,758.98,758.38,758.08,114.75,-944.82,112.30,21.38,42.21,48.89,-24.73
7957,753.85,760.98,758.97,758.41,758.05,181.64,-1029.30,114.26,-2.27,41.82,20.52,-24.40
7990,753.86,761.03,758.97,758.35,758.05,178.22,-943.36,133.79,-2.66,55.72,6.28,-24.03
8024,753.74,761.02,758.97,758.36,758.02,168.46,-928.22,182.13,-20.62,54.11,4.22,-23.66
8058,753.78,761.04,758.94,758.41,758.04,192.87,-993.65,177.25,-21.85,46.85,-8.27,-25.44
8091,753.79,761.03,758.94,758.49,758.06,118.65,-963.87,193.85,-8.34,49.55,-7.95,-26.58
8125,754.76,761.07,758.96,758.39,758.29,-663.57,-1850.10,-46.39,103.04,26.22,39.04,-28.35
8158,756.05,761.47,758.92,758.41,758.71,66.89,-1367.19,346.19,187.21,78.41,59.27,-37.11
8194,760.74,761.76,758.87,758.42,759.95,2.93,-671.87,64.45,119.35,-17.43,11.08,-57.05
8228,761.93,762.53,759.22,758.64,760.58,-374.02,-701.17,-0.98,-18.30,-29.31,5.49,-61.70
8262,762.09,762.87,759.39,758.73,760.77,-52.73,-601.07,703.12,62.43,41.52,-2.68,-62.01
8296,765.91,763.48,759.65,758.89,761.98,128.42,-887.21,447.27,55.47,28.89,-0.25,-75.97
8330,774.05,764.41,759.98,759.09,764.38,175.78,-981.45,429.69,34.23,5.67,1.96,-106.23
8364,783.77,765.23,760.27,759.56,767.21,136.72,-964.36,428.71,24.55,-0.96,3.62,-145.70
8397,795.04,766.09,760.77,759.94,770.46,103.52,-894.53,491.21,31.51,3.37,2.44,-184.50
8432,809.31,767.15,761.40,760.68,774.64,96.19,-833.50,511.72,30.82,6.24,-0.25,-237.08
8466,819.93,768.38,761.65,761.40,777.84,112.79,-849.12,540.53,9.31,7.71,0.13,-287.72
8500,824.86,770.10,761.87,762.07,779.72,115.23,-828.12,580.57,11.37,4.63,0.69,-322.71
8534,825.77,772.19,762.11,762.83,780.73,99.61,-876.46,520.51,-8.73,0.66,5.95,-348.10
8570,825.29,774.24,762.36,763.68,781.39,93.26,-867.68,546.87,0.93,2.63,5.44,-368.96
8604,822.80,776.20,762.61,764.61,781.56,75.20,-873.05,506.84,-2.06,4.76,2.50,-383.61
8638,818.19,778.57,762.97,765.74,781.37,-30.27,-805.66,377.44,-2.22,-2.37,5.85,-394.57
8672,810.71,781.94,763.45,766.63,780.68,83.01,-839.36,540.53,-29.65,-3.47,9.52,-397.08
8706,801.64,785.36,763.65,767.15,779.45,99.12,-908.69,492.68,-27.76,-1.89,8.53,-395.99
8741,795.06,787.93,763.96,767.88,778.71,85.45,-917.97,463.38,-10.15,4.30,6.11,-396.95
8776,790.90,789.55,764.46,768.73,778.41,60.55,-911.13,469.24,4.47,1.78,4.80,-395.75
8810,788.61,790.15,764.97,769.51,778.31,53.71,-889.65,508.30,7.39,0.95,3.79,-391.72
8845,788.67,789.32,765.80,769.92,778.43,65.43,-902.34,493.16,22.58,5.08,5.18,-370.44
8879,792.86,787.33,768.34,770.61,779.78,78.12,-827.64,651.86,67.65,9.07,-2.73,-315.86
8913,798.20,785.06,770.47,771.47,781.30,70.31,-840.33,548.34,51.60,3.54,-3.47,-275.43
8947,802.19,783.49,771.35,771.94,782.24,60.06,-820.31,596.68,22.63,0.82,-2.37,-261.64
8983,804.28,782.60,771.34,772.21,782.61,74.22,-819.34,591.31,5.07,-2.11,-1.99,-265.78
9017,804.24,782.33,771.30,772.25,782.53,87.89,-841.31,557.62,3.95,-0.14,0.50,-265.04
9051,803.78,782.12,771.40,772.38,782.42,88.87,-837.89,568.36,2.48,1.05,-0.90,-261.35
9085,803.70,781.90,771.66,772.49,782.44,78.61,-827.64,573.73,4.36,1.69,1.21,-254.53
9119,803.85,781.93,772.02,772.61,782.60,79.10,-824.22,563.96,2.18,-0.58,0.65,-247.83
9154,803.41,782.12,772.45,772.84,782.70,92.29,-836.43,583.98,4.73,0.68,0.72,-240.68
9188,802.83,782.10,772.76,773.08,782.69,69.82,-846.68,570.80,2.97,1.54,1.25,-234.20
9222,802.08,782.05,773.09,773.43,782.66,79.59,-839.36,574.71,4.78,-0.85,1.91,-228.17
9256,801.43,781.94,773.33,773.83,782.63,53.22,-850.10,593.26,4.15,3.34,-0.83,-225.03
9290,800.86,781.84,773.41,774.15,782.57,81.54,-815.43,597.17,-0.96,1.47,1.91,-224.93
9324,799.90,782.04,773.31,774.19,782.36,82.52,-839.36,568.85,-3.59,1.74,0.22,-226.50
9359,797.85,782.51,773.49,774.43,782.07,72.27,-833.98,559.57,1.21,3.34,2.53,-222.21
9394,794.78,783.59,773.56,774.69,781.65,74.22,-826.66,564.45,-3.96,3.33,4.89,-222.26
9428,789.29,784.88,773.98,775.39,780.88,71.29,-830.57,555.18,-4.55,0.98,2.73,-213.64
9463,781.37,786.33,775.60,776.56,779.96,55.66,-835.45,567.87,-5.11,-0.27,3.27,-175.12
9497,771.49,787.67,778.46,777.43,778.76,68.85,-828.61,569.34,-4.24,0.85,1.56,-93.65
9531,761.84,788.26,781.86,777.95,777.48,89.36,-858.89,557.62,-19.24,-6.07,-0.86,12.12
9565,756.37,787.42,784.46,777.34,776.40,183.11,-932.62,624.02,-57.94,-4.77,20.48,111.24
9599,755.40,783.33,786.28,775.65,775.16,407.23,-1044.92,790.53,-80.42,-8.61,44.27,217.60
9633,754.75,777.54,787.05,772.69,773.01,-16.11,-992.68,537.60,-83.02,19.97,77.44,328.95
9666,754.25,771.95,786.78,768.81,770.45,83.50,-1054.69,468.26,-62.91,42.04,100.19,425.91
9700,753.82,768.35,785.16,765.43,768.19,-26.37,-1346.19,387.70,10.91,46.96,114.84,465.66
9735,753.53,766.20,780.81,763.00,765.88,-127.93,-1312.01,354.98,45.27,29.04,119.26,411.24
9769,753.48,764.72,773.94,761.36,763.37,-136.72,-1490.23,277.83,101.15,26.13,132.43,276.21
9805,753.63,763.65,764.30,760.13,760.43,-189.45,-1294.92,294.92,149.19,-6.30,130.26,62.36
9843,753.64,762.88,759.77,759.18,758.87,619.63,-998.05,196.29,231.77,-25.25,116.33,-30.47
9876,753.55,762.39,759.54,758.98,758.62,566.41,-1043.46,-240.23,30.27,60.81,16.89,-28.89
9910,753.49,762.24,759.39,758.90,758.50,421.87,-783.69,54.20,-6.24,96.31,-65.89,-29.93
9944,753.44,762.04,759.35,758.84,758.42,297.85,-778.32,260.74,-34.78,76.95,-121.81,-28.48
9978,753.41,761.94,759.33,758.76,758.36,151.86,-618.16,381.84,-50.66,15.08,-141.23,-26.87
10012,753.29,761.93,759.29,758.79,758.32,187.99,-770.51,515.62,-72.34,-55.14,-137.73,-27.84
10046,753.22,761.93,759.24,758.72,758.28,230.96,-831.54,567.87,-55.90,-92.05,-140.27,-27.68
10080,753.15,761.88,759.23,758.79,758.26,254.39,-929.69,629.39,-76.78,-94.67,-133.31,-28.32
10114,753.07,761.86,759.12,758.78,758.21,144.04,-1190.92,759.28,-90.84,-76.24,-134.84,-30.54
10148,753.02,761.88,759.11,758.80,758.20,-34.18,-1285.64,855.96,-80.63,-39.50,-141.17,-31.24
10182,753.00,761.82,759.14,758.79,758.19,-336.43,-1271.97,902.83,-68.34,8.99,-137.46,-29.52
10218,752.89,761.83,759.12,758.76,758.15,-651.86,-1069.82,842.77,-74.50,27.97,-128.07,-29.41
10252,752.92,761.82,759.09,758.73,758.14,-810.55,-1004.39,700.20,-66.95,27.76,-97.10,-29.79
10287,752.91,761.89,759.14,758.65,758.15,-878.91,-834.47,562.01,-59.39,20.76,-61.35,-27.98
10321,752.95,761.99,759.04,758.69,758.17,-785.64,-813.48,532.71,-57.11,17.52,-25.68,-31.96
10355,752.89,761.98,759.12,758.61,758.15,-651.86,-882.32,477.54,-40.21,17.78,5.21,-28.46
10389,753.01,762.13,759.05,758.71,758.23,-499.51,-901.86,317.87,-20.54,19.28,38.38,-33.37
10423,757.01,762.30,759.06,758.66,759.25,360.84,-2000.00,38.09,-20.95,51.66,102.22,-47.31
10457,770.96,762.94,759.06,758.56,762.88,142.58,-1460.94,426.27,89.62,62.39,107.73,-98.81
10491,800.50,765.49,759.69,758.80,771.12,-1563.96,-2000.00,864.26,12.88,169.40,54.22,-208.59
10526,810.56,767.38,761.24,759.80,774.75,355.96,-868.16,1559.57,114.24,-37.91,-5.00,-234.30
10560,814.25,769.98,763.31,762.26,777.45,277.34,-1015.14,541.99,43.15,9.90,9.47,-252.28
10594,816.15,772.70,766.11,765.19,780.04,49.80,-1010.25,470.70,38.88,-0.17,5.27,-254.06
10629,815.07,774.78,768.47,768.55,781.72,93.26,-837.40,591.80,27.19,3.13,3.47,-257.73
10664,810.93,776.60,769.91,771.20,782.16,87.89,-827.64,596.68,7.52,4.56,4.90,-261.18
10699,802.29,779.16,771.34,773.75,781.63,89.84,-823.73,591.80,6.54,10.40,4.70,-254.19
10733,790.80,781.82,773.16,776.29,780.52,117.19,-836.91,571.29,4.63,9.33,6.12,-228.05
10767,780.06,784.00,774.91,778.57,779.39,127.44,-806.64,588.38,-0.15,7.79,5.66,-198.67
10802,772.07,785.95,776.33,780.85,778.80,107.91,-821.78,594.24,-3.62,6.73,6.85,-185.15
10836,766.38,787.66,777.83,782.75,778.65,59.57,-855.96,572.75,3.05,4.15,4.60,-169.66
10870,762.70,788.83,779.60,784.93,779.02,40.53,-844.24,575.68,2.50,1.37,4.44,-154.56
10904,760.48,789.39,781.27,786.76,779.48,62.50,-844.24,587.40,2.05,3.49,4.31,-136.83
10938,758.98,789.71,782.58,788.28,779.89,81.54,-817.87,592.29,-2.29,1.07,8.75,-123.90
10972,757.66,790.04,784.05,789.37,780.28,66.41,-833.98,579.10,-1.53,4.98,8.37,-101.43
11007,756.44,790.24,785.52,790.17,780.59,62.01,-840.82,583.01,-7.84,6.97,7.61,-74.16
11042,755.73,790.24,787.15,790.60,780.93,43.46,-856.93,564.94,-6.66,3.68,11.56,-37.27
11076,755.40,789.79,789.07,790.79,781.26,83.50,-871.09,564.45,-5.32,10.09,13.70,12.37
11111,755.34,789.25,790.75,791.42,781.69,55.18,-864.75,585.94,-9.79,7.47,19.13,49.53
11145,755.25,788.65,791.99,791.69,781.90,62.99,-856.93,614.75,-16.96,9.05,23.25,81.66
11178,755.15,787.91,792.95,791.61,781.91,-0.98,-912.60,552.73,-16.89,18.81,27.93,113.02
11212,755.11,786.94,793.98,791.19,781.80,-7.81,-921.39,544.92,-20.69,24.79,34.93,152.74
11246,755.10,785.54,795.05,790.53,781.55,-6.35,-889.16,525.39,-22.08,23.35,40.94,200.49
11279,755.10,783.45,796.17,789.31,781.01,-13.18,-919.43,540.53,-34.23,26.27,53.76,263.09
11313,754.95,780.44,797.25,787.33,779.99,-87.40,-1007.32,487.79,-30.05,27.40,69.26,343.76
11346,754.77,776.31,798.13,784.22,778.36,-30.27,-1114.26,506.84,-38.42,25.71,81.55,445.32
11381,754.28,772.14,797.67,778.94,775.76,-120.12,-1304.20,460.94,-28.44,21.41,111.78,546.65
11416,753.65,768.56,792.67,771.66,771.64,-210.94,-1284.67,402.34,-6.35,9.72,161.56,559.90
11450,753.13,766.01,782.53,765.81,766.87,-302.73,-1410.64,452.15,-26.24,1.55,187.46,415.75
11484,753.07,764.18,780.49,762.12,764.96,-291.02,-1071.78,344.73,-37.60,-10.11,212.95,434.07
11518,753.17,763.06,765.60,760.34,760.54,-229.98,-1399.90,456.05,15.86,-41.06,192.66,97.96
11551,753.17,762.35,760.14,759.31,758.74,803.22,-1156.25,295.41,172.34,-16.73,117.40,-17.26
11586,753.14,762.13,759.84,759.15,758.56,482.42,-702.64,19.04,135.35,26.34,-34.65,-20.60
11620,753.07,761.92,759.69,759.03,758.43,393.55,-546.39,148.93,57.94,10.55,-117.69,-20.49
11655,753.05,761.90,759.60,758.96,758.38,296.39,-726.56,170.90,31.12,15.20,-173.67,-21.47
11690,753.00,761.76,759.50,758.96,758.31,129.39,-759.77,164.55,35.59,24.25,-220.98,-22.74
11724,752.97,761.71,759.37,758.91,758.24,-32.23,-862.79,161.13,2.35,16.60,-239.06,-24.76
11758,752.93,761.76,759.38,758.88,758.24,-115.23,-1163.09,250.49,-23.77,22.56,-248.15,-24.19
11792,752.87,761.83,759.40,758.89,758.25,-275.88,-1315.43,253.91,-23.75,34.50,-240.10,-24.08
11828,752.90,761.85,759.33,758.94,758.25,-360.35,-1453.61,266.60,-32.95,49.15,-210.74,-27.09
11862,752.83,761.82,759.27,758.85,758.19,-320.80,-1544.92,270.02,-41.17,57.05,-203.98,-26.66
11896,752.80,761.90,759.32,758.89,758.23,-417.97,-1474.61,194.82,-50.65,52.52,-196.15,-26.44
11930,752.70,761.92,759.28,758.95,758.21,-438.96,-1267.58,242.68,-75.33,48.57,-151.57,-28.29
11965,752.74,761.73,759.32,758.85,758.16,-400.88,-1264.65,327.15,-95.24,59.76,-99.24,-24.58
11999,752.80,761.73,759.32,758.77,758.15,-412.60,-1194.34,303.22,-136.09,47.92,-99.19,-23.34
12033,752.75,761.79,759.26,758.75,758.14,-394.53,-1265.63,413.09,-147.58,65.07,-94.34,-24.82
12067,752.66,761.70,759.30,758.77,758.11,-612.30,-1050.78,370.61,-65.57,116.55,-80.32,-23.42
12101,752.65,761.68,759.29,758.72,758.09,-854.00,-873.54,175.78,-65.17,114.30,-45.19,-22.53
12135,752.68,761.68,759.21,758.71,758.07,-818.36,-862.79,268.55,-88.52,77.63,-3.60,-24.61
12169,753.99,761.67,759.13,758.65,758.36,130.37,-2000.00,1472.66,-176.25,43.37,70.86,-30.15
12204,759.00,761.89,759.14,758.57,759.65,190.92,-1833.01,148.93,-73.00,45.44,69.89,-47.44
12239,767.92,762.24,759.34,758.78,762.07,-231.93,-130.37,1182.62,22.42,135.02,61.96,-79.09
12274,780.48,764.22,760.28,759.10,766.02,1512.70,-809.08,-2000.00,10.38,94.60,-3.70,-119.49
12308,784.87,766.03,761.69,760.14,768.18,195.31,-1260.74,293.46,-12.93,-12.27,6.42,-129.20
12342,786.64,767.97,762.80,761.52,769.73,183.11,-1071.29,409.18,25.66,2.59,8.55,-143.48
12376,787.91,769.70,764.17,763.17,771.24,140.14,-896.48,520.02,30.51,9.06,5.12,-151.95
12410,789.92,771.06,766.13,765.33,773.11,128.91,-808.59,531.74,25.85,6.61,0.49,-152.53
12444,792.68,772.45,768.30,767.63,775.27,136.23,-833.98,566.89,14.57,3.84,3.19,-152.93
12479,795.74,773.55,770.56,769.78,777.41,141.11,-859.37,548.83,15.76,2.75,-0.08,-147.65
12513,798.30,774.38,772.73,772.13,779.39,127.93,-846.19,588.87,11.61,0.78,1.69,-143.51
12547,797.84,775.17,774.64,774.41,780.51,150.39,-862.79,569.82,7.89,-1.50,1.11,-134.27
12581,795.11,775.62,776.33,776.54,780.90,123.05,-813.96,595.21,3.74,1.88,-1.66,-117.89
12617,791.19,775.89,777.27,778.26,780.65,130.86,-831.54,592.29,2.80,2.73,-2.58,-108.44
12652,787.65,776.16,778.02,779.49,780.33,150.88,-795.41,609.37,2.86,3.60,-1.11,-98.04
12687,785.89,776.40,778.60,780.42,780.33,138.67,-811.52,585.94,0.27,4.82,0.79,-93.02
12720,785.36,776.49,778.99,781.29,780.53,109.86,-812.50,583.50,1.44,0.76,1.03,-95.00
12754,785.51,776.62,779.23,782.00,780.84,160.16,-803.22,598.63,2.55,-0.98,1.87,-100.92
12787,785.86,776.74,779.23,782.30,781.03,117.68,-828.12,578.61,2.46,1.69,2.10,-107.37
12821,785.85,776.70,779.18,782.61,781.08,123.54,-823.24,585.94,1.43,0.18,0.14,-112.89
12854,785.87,776.68,779.10,782.84,781.12,127.93,-817.38,593.75,0.50,2.02,1.77,-118.42
12888,785.86,776.48,778.94,782.88,781.04,129.39,-823.24,579.10,-2.02,2.37,1.31,-121.32
12922,785.92,776.28,778.76,782.72,780.92,125.98,-815.92,585.94,0.41,0.34,0.81,-121.87
12956,786.15,776.11,778.63,782.58,780.87,131.84,-831.05,590.82,-0.14,2.87,-0.07,-122.62
12990,786.50,775.99,778.46,782.32,780.82,127.93,-822.27,581.54,1.17,1.66,-1.05,-123.26
13024,786.57,775.95,778.23,782.11,780.71,132.81,-818.36,584.96,-1.53,0.22,-0.31,-125.65
13059,786.31,775.84,778.13,781.65,780.48,115.72,-812.01,587.40,-2.23,2.35,0.92,-119.63
13093,785.37,775.72,778.00,781.29,780.10,161.13,-800.29,573.73,-4.66,-0.76,4.35,-113.41
13127,782.88,775.40,777.90,780.83,779.25,132.32,-835.45,564.45,-6.56,-0.85,1.73,-98.17
13161,777.18,774.34,777.50,779.62,777.16,132.81,-845.70,560.55,-13.17,-1.14,1.24,-61.99
13195,770.42,772.70,776.77,777.99,774.47,143.55,-868.65,579.10,-16.90,0.53,0.08,-20.10
13230,763.78,770.70,776.18,776.21,771.72,156.25,-883.79,541.02,-4.27,6.23,14.73,30.45
13264,758.59,769.03,775.77,774.79,769.54,118.65,-844.24,542.48,-1.66,7.17,19.92,72.13
13298,755.76,767.93,775.59,773.45,768.18,100.59,-884.28,552.25,-1.76,1.85,26.66,105.95
13332,755.15,767.17,775.66,771.80,767.44,156.25,-704.10,509.28,16.98,8.98,35.31,140.13
13366,754.75,766.41,775.78,769.71,766.66,44.92,-787.11,532.71,-12.91,7.52,41.30,181.26
13400,754.54,765.81,776.02,767.92,766.07,82.03,-877.44,548.83,1.37,16.41,51.40,219.22
13435,754.22,765.32,776.37,766.21,765.53,46.88,-887.70,556.15,6.42,23.58,57.89,258.01
13470,754.05,764.68,776.45,764.79,764.99,-6.35,-914.06,527.83,5.60,19.66,64.88,286.85
13504,753.86,764.33,775.89,763.73,764.45,-60.55,-913.57,518.55,22.14,14.58,69.23,291.96
13539,753.67,763.91,775.14,762.87,763.90,-106.45,-901.86,487.30,19.97,5.08,77.41,289.78
13574,753.54,763.50,773.79,762.14,763.24,-167.48,-859.37,542.97,20.86,-12.31,83.03,270.72
13608,753.43,763.20,771.99,761.51,762.53,-214.84,-824.22,492.68,16.50,-21.12,83.95,237.87
13643,753.36,762.84,769.43,760.96,761.65,-214.84,-871.09,521.48,9.91,-37.20,82.31,185.33
13677,753.40,762.57,765.59,760.37,760.48,-239.75,-902.34,544.43,26.35,-47.18,70.82,100.38
13711,753.49,762.31,761.72,759.74,759.32,-72.75,-737.79,564.94,52.08,-59.02,46.17,15.15
13745,753.49,762.09,760.02,759.27,758.72,510.74,-552.25,217.77,6.19,-60.01,-11.25,-18.63
13779,753.35,761.92,759.93,759.12,758.58,468.26,-709.47,370.12,-60.55,-4.87,-92.27,-16.87
13813,753.43,761.95,759.77,759.16,758.58,336.43,-729.00,528.32,-59.78,23.37,-123.82,-22.02
13847,753.37,761.81,759.79,759.00,758.49,246.58,-772.46,607.91,-62.17,18.41,-123.35,-17.78
13883,753.28,761.88,759.76,759.01,758.48,227.54,-900.88,610.35,-55.57,2.65,-123.66,-18.77
13917,753.34,761.90,759.69,759.01,758.49,180.66,-909.18,583.01,-51.05,-0.65,-109.10,-20.98
13952,753.25,761.85,759.58,758.91,758.40,143.55,-1017.58,522.46,-40.55,7.44,-96.89,-21.44
13986,753.22,761.88,759.62,758.89,758.40,93.26,-1057.13,417.48,-45.25,17.24,-88.67,-20.41
14020,753.22,761.90,759.63,758.92,758.42,48.34,-1060.55,443.36,-48.73,33.59,-87.47,-20.64
14054,753.14,761.86,759.59,758.89,758.37,-91.31,-921.39,523.44,-43.58,57.83,-66.30,-20.72
14088,753.13,761.71,759.57,758.89,758.32,-268.55,-917.97,541.50,-49.87,57.56,-47.11,-20.10
14122,753.07,761.63,759.65,758.79,758.28,-449.22,-868.16,448.73,-58.37,46.60,-6.37,-15.66
14157,753.09,761.61,759.59,758.79,758.27,-542.48,-806.64,424.80,-65.26,29.86,37.27,-16.95
14191,753.02,761.61,759.57,758.76,758.24,-472.17,-962.89,544.43,-41.53,14.79,64.01,-16.76
14225,754.05,761.87,759.55,758.82,758.57,198.24,-2000.00,1999.94,-214.82,-104.37,-0.44,-24.07
14259,758.14,762.95,759.98,759.02,760.02,244.63,-932.13,1111.33,-111.91,-45.21,-2.42,-38.88
14298,766.83,764.22,761.35,759.60,763.00,83.98,-941.89,588.38,40.84,15.92,-4.98,-53.22
14331,774.21,764.89,762.57,760.17,765.46,125.49,-867.68,586.91,51.00,10.42,-1.44,-61.74
14365,780.22,765.45,763.54,760.87,767.52,117.68,-893.55,575.68,24.28,4.63,0.98,-73.32
14399,785.39,765.91,764.31,761.32,769.23,111.33,-899.41,483.40,17.81,4.71,0.37,-82.09
14432,791.48,766.32,765.42,761.99,771.30,58.11,-877.93,520.51,16.31,2.52,1.31,-88.42
14466,798.41,766.86,766.21,762.84,773.58,92.77,-838.38,603.52,16.60,8.88,4.05,-109.47
14500,804.33,767.61,766.79,763.63,775.59,123.54,-844.73,534.67,11.50,6.40,1.47,-132.93
14535,808.85,768.31,767.20,764.43,777.20,108.40,-844.73,550.29,12.79,4.42,4.63,-155.39
14569,813.33,768.94,767.64,765.30,778.80,130.37,-854.98,548.83,9.23,3.62,-0.08,-177.78
14603,815.85,769.31,767.99,766.05,779.80,137.21,-811.52,572.75,10.02,4.95,1.83,-191.63
14637,817.08,769.70,768.29,766.73,780.45,120.12,-826.66,567.87,7.41,1.63,1.47,-201.73
14672,817.52,769.96,768.58,767.31,780.84,118.65,-836.91,582.52,4.26,2.27,-0.14,-206.39
14706,817.21,770.32,768.85,767.72,781.02,107.91,-847.17,563.96,6.88,2.85,1.18,-207.54
14740,816.75,770.62,769.44,768.42,781.31,93.26,-838.38,583.01,5.98,4.98,-1.01,-203.97
14775,816.01,770.95,770.04,769.11,781.52,104.00,-836.43,587.40,3.82,2.41,-0.36,-199.33
14809,815.23,771.22,770.51,769.65,781.65,89.36,-843.75,607.91,5.82,0.11,0.18,-195.23
14843,814.67,771.43,770.91,770.07,781.77,106.45,-829.59,571.78,1.76,3.36,1.31,-190.91
14877,814.20,771.57,771.15,770.52,781.86,88.87,-849.61,567.87,2.37,1.98,0.02,-191.13
14911,813.87,771.61,771.30,770.64,781.86,104.00,-831.05,582.52,2.70,1.60,-0.38,-188.47
14945,813.83,771.58,771.36,770.94,781.93,95.21,-814.94,584.47,1.17,3.63,-0.85,-190.85
14980,814.01,771.63,771.37,770.98,782.00,113.77,-814.45,594.24,1.01,3.18,0.19,-192.40
15014,814.60,771.53,771.18,770.90,782.05,116.70,-823.24,591.80,0.93,1.71,-2.33,-197.07
15048,815.09,771.42,771.10,770.72,782.08,111.33,-822.27,580.08,-0.31,0.53,0.86,-197.30
15084,815.28,771.44,771.01,770.62,782.09,103.03,-832.52,587.89,0.50,1.07,-1.18,-198.81
15118,815.15,771.39,771.03,770.62,782.05,100.10,-812.99,581.05,0.23,-0.68,-0.74,-197.46
15152,815.27,771.40,771.01,770.55,782.06,104.98,-827.64,598.63,1.98,1.83,2.75,-197.42
15186,815.37,771.38,771.01,770.51,782.07,90.82,-809.08,585.45,0.44,4.31,0.81,-197.08
15220,815.89,771.56,770.97,770.58,782.25,89.84,-830.57,587.89,1.67,2.34,-1.37,-202.40
15254,816.49,771.65,771.02,770.72,782.47,107.42,-826.17,592.77,1.63,3.11,0.77,-205.91
15289,816.75,771.94,771.15,770.95,782.70,94.73,-826.17,585.94,0.21,3.05,1.31,-209.23
15323,816.54,772.37,771.25,771.25,782.85,95.70,-807.62,601.56,2.53,3.32,0.87,-213.89
15357,815.79,772.74,771.47,771.67,782.92,86.43,-812.99,598.63,2.64,-0.12,3.98,-215.13
15391,814.29,772.95,772.05,772.09,782.85,84.47,-833.01,556.64,3.96,1.82,-1.16,-203.41
15425,811.78,773.32,773.02,772.78,782.72,101.07,-826.66,601.56,1.90,2.82,-0.50,-183.71
15459,809.46,773.68,773.82,773.68,782.66,64.94,-830.57,588.87,3.80,1.90,1.95,-171.95
15497,808.55,773.87,774.47,774.11,782.75,93.26,-815.92,610.35,0.33,0.38,0.24,-160.36
15531,808.90,773.57,774.69,773.94,782.78,100.59,-834.96,595.70,2.68,2.24,-0.44,-151.26
15565,809.14,773.40,774.93,773.84,782.83,91.31,-822.75,596.68,1.89,1.18,-0.37,-143.15
15599,809.32,773.03,774.99,773.48,782.71,91.80,-823.24,594.24,-0.21,1.44,-1.98,-133.96
15633,809.60,772.59,774.89,773.03,782.53,87.40,-833.01,586.43,-0.88,-3.30,-1.32,-127.49
15667,810.32,772.10,774.79,772.45,782.42,92.77,-814.45,592.77,-2.05,-1.66,-2.26,-119.85
15702,811.10,771.96,774.62,772.03,782.43,94.73,-808.11,595.21,0.27,-1.31,-1.94,-119.39
15736,811.85,771.88,774.63,771.88,782.56,94.24,-826.66,579.59,-1.08,3.64,-0.64,-119.09
15770,812.42,771.85,774.48,771.84,782.65,99.12,-830.57,576.66,-2.51,-0.36,-0.08,-123.74
15804,812.70,771.66,774.83,771.89,782.77,105.96,-830.57,582.03,1.24,0.29,-0.44,-115.17
15838,813.20,771.21,775.74,772.14,783.07,65.43,-835.45,594.24,1.31,0.24,-0.69,-94.45
15872,813.22,770.88,776.63,772.44,783.29,95.21,-819.82,592.77,0.15,-0.07,-1.31,-73.96
15908,812.72,770.81,777.42,772.69,783.41,93.26,-814.45,586.91,-2.27,2.45,-1.47,-55.86
15941,811.86,771.02,778.10,773.04,783.51,95.70,-830.57,591.80,3.24,1.90,-1.22,-42.67
15975,810.37,771.20,778.71,773.53,783.45,111.33,-807.13,596.68,0.73,2.55,1.56,-31.10
16008,808.45,771.45,779.17,774.09,783.29,100.59,-839.36,589.84,1.21,0.42,0.62,-23.44
16042,806.68,771.50,780.19,775.12,783.37,110.35,-822.27,582.03,-0.82,1.00,-2.93,-7.44
16076,804.64,771.64,781.01,776.38,783.42,97.66,-815.92,593.26,0.92,0.31,-0.95,0.55
16110,803.01,771.79,781.76,777.33,783.47,119.14,-816.89,594.24,-0.21,3.23,-0.63,9.68
16144,801.63,771.71,782.48,778.09,783.48,102.54,-822.75,586.43,-2.06,1.01,-2.79,21.70
16178,800.62,771.68,782.81,778.78,783.47,166.99,-813.96,604.98,-0.90,-1.65,1.79,23.33
16211,799.75,771.97,782.78,779.27,783.44,108.89,-826.66,594.24,-0.37,0.44,0.89,16.10
16245,798.83,772.30,782.73,779.57,783.36,109.37,-809.57,602.05,3.87,0.82,-0.05,10.89
16279,797.99,772.70,782.82,779.83,783.34,82.52,-826.66,587.40,1.98,1.84,0.87,9.01
16315,797.26,772.97,782.71,780.13,783.27,105.47,-820.80,591.31,2.14,0.46,1.82,2.08
16349,796.28,773.24,782.68,780.38,783.15,118.16,-815.92,602.05,2.57,2.81,1.85,-0.98
16383,795.15,773.54,782.83,780.74,783.06,95.21,-811.04,604.49,0.44,0.73,0.93,-1.22
16417,794.05,773.90,782.84,781.16,782.99,88.38,-823.73,600.10,1.61,1.01,2.23,-6.12
16453,792.65,774.29,783.10,781.54,782.90,101.56,-816.41,591.80,0.59,1.22,2.31,-3.69
16487,791.13,774.45,783.43,781.87,782.72,117.68,-804.20,640.14,0.15,1.89,-0.17,3.60
16521,789.30,774.76,784.02,782.43,782.63,105.47,-820.31,602.05,1.41,0.87,1.92,13.97
16555,787.52,774.91,784.70,782.98,782.53,95.70,-804.20,590.33,-0.50,-0.40,2.46,27.63
16590,785.61,775.17,785.29,783.47,782.39,95.21,-830.08,619.14,0.72,-1.06,1.89,39.58
16624,784.35,775.49,785.56,783.81,782.30,119.14,-804.69,591.31,-3.05,1.47,3.95,43.29
16658,783.08,775.68,786.04,784.22,782.25,107.42,-832.52,598.14,-1.92,0.95,5.37,51.84
16692,781.85,775.96,786.46,784.56,782.21,117.68,-825.68,592.29,-2.92,-2.74,0.90,59.12
16728,780.34,776.34,786.66,784.87,782.05,97.66,-815.92,583.98,-3.90,-0.66,2.08,61.76
16762,778.62,776.84,786.86,785.32,781.91,85.45,-817.38,604.49,-3.40,0.50,2.10,62.16
16796,775.83,777.45,787.19,785.87,781.59,86.43,-838.87,592.29,-4.91,-2.48,1.33,66.97
16830,772.59,778.18,787.50,786.54,781.20,99.12,-834.47,586.43,-7.31,0.05,-0.10,70.08
16865,769.56,778.90,787.95,787.20,780.90,98.14,-817.38,594.24,-4.97,-1.09,2.01,76.14
16899,766.84,779.75,788.21,787.77,780.64,83.50,-820.31,572.27,-8.80,0.48,5.99,76.69
16933,764.32,780.42,788.69,788.32,780.44,52.25,-845.70,557.62,-9.40,1.76,7.66,83.89
16967,762.17,781.16,788.94,788.64,780.23,51.76,-861.82,571.29,-13.98,2.30,8.97,86.68
17001,760.45,781.66,788.91,788.44,779.87,75.20,-822.75,578.61,-13.87,0.40,7.52,91.05
17035,758.82,781.87,788.62,787.79,779.27,110.35,-854.00,557.62,-15.02,1.35,10.69,97.32
17069,756.93,780.96,787.92,786.25,778.01,89.84,-932.62,547.36,-23.65,2.88,14.95,116.20
17104,755.91,777.82,786.83,783.11,775.92,30.76,-922.36,487.30,2.28,10.89,27.99,164.11
17139,755.23,772.99,784.75,777.45,772.61,98.63,-814.45,670.90,-37.02,1.15,26.48,236.61
17173,754.75,769.18,782.94,771.57,769.61,133.79,-1093.26,496.09,-36.45,27.33,41.35,310.11
17208,754.19,766.78,780.09,766.57,766.91,92.77,-1217.29,410.64,9.81,22.73,69.33,334.04
17242,753.88,764.88,777.93,763.32,765.00,-76.17,-1113.28,405.27,36.44,15.67,83.53,344.25
17276,753.65,763.82,773.92,761.26,763.16,-78.12,-1399.41,316.89,96.47,4.37,69.76,283.93
17310,753.72,763.32,762.83,760.06,759.98,-223.14,-1250.98,349.12,191.93,-21.86,52.89,29.05
17344,753.79,763.17,761.29,759.44,759.42,55.66,-441.41,100.59,-13.70,-48.21,9.41,0.69
17378,753.72,762.91,760.94,759.31,759.22,95.70,-1021.97,-11.23,3.93,-8.73,-52.98,-3.56
17414,753.67,762.58,760.54,759.13,758.98,83.50,-679.20,-44.92,-48.17,3.76,-75.69,-8.11
17448,753.54,762.34,760.38,759.03,758.82,122.56,-657.23,120.12,-101.14,17.47,-60.15,-8.30
17482,753.55,762.35,760.30,758.98,758.79,83.98,-590.82,385.74,-146.76,-9.77,-49.59,-9.57
17516,753.50,762.33,760.21,758.91,758.74,89.84,-843.26,716.31,-166.05,-64.26,-38.60,-10.52
17551,753.45,762.36,760.16,758.89,758.72,-27.34,-883.30,925.29,-91.12,-109.56,-38.74,-11.57
17585,753.32,762.37,760.13,758.90,758.68,-92.77,-884.28,1048.83,-45.57,-139.27,-20.69,-11.99
17618,753.32,762.36,760.07,758.86,758.65,-39.55,-877.93,1100.59,-17.69,-134.58,2.27,-12.86
17652,753.38,762.31,760.07,758.80,758.64,41.50,-874.02,964.84,25.57,-101.14,6.58,-11.88
17686,753.47,762.25,760.03,758.78,758.63,69.82,-723.63,690.92,37.66,-83.13,16.90,-12.33
17720,753.48,762.12,759.96,761.50,759.27,393.07,-597.66,445.80,250.13,231.04,8.47,-53.12
17754,754.67,762.16,760.20,761.94,759.74,229.49,-1327.64,576.17,-126.96,34.08,16.89,-57.95
17788,757.21,762.23,760.02,761.63,760.27,-570.31,-233.40,658.69,-60.32,3.23,-0.37,-67.17
17821,756.19,762.23,760.04,761.84,760.07,-138.67,-448.24,550.78,3.83,6.40,1.90,-66.44
17855,755.91,762.16,760.04,761.96,760.02,74.22,-827.64,386.23,-33.25,-9.19,-0.40,-66.45
17889,756.88,762.11,760.06,762.04,760.27,88.87,-888.67,471.68,-8.60,-3.42,-0.56,-70.20
17925,758.89,762.18,760.00,762.04,760.78,168.95,-939.45,400.88,8.63,-0.50,-0.58,-79.22
17959,760.53,762.30,760.03,762.05,761.23,132.32,-930.66,433.11,22.00,6.95,0.34,-85.05
17993,761.82,762.38,760.08,762.03,761.58,126.46,-889.16,457.03,1.53,1.59,0.98,-88.48
18027,762.44,762.31,760.08,761.97,761.70,164.55,-919.92,388.67,3.16,-1.09,-2.13,-89.27
18062,762.88,762.33,760.03,761.78,761.76,44.43,-1033.20,592.29,9.82,-1.30,-21.42,-89.45
18096,765.85,762.35,760.06,761.95,762.55,271.97,-750.00,316.41,11.01,1.89,-12.08,-101.68
18130,768.77,762.40,760.03,762.05,763.31,235.35,-725.59,441.89,10.12,16.11,26.69,-114.26
18164,772.52,762.97,760.39,762.41,764.57,-544.43,-1279.30,368.65,115.01,57.34,6.10,-127.92
18198,778.30,763.51,760.64,762.57,766.25,51.76,-950.68,354.98,56.62,18.95,9.60,-148.25
18232,785.73,764.25,760.89,762.65,768.38,122.07,-814.45,469.24,1.79,-0.65,5.63,-174.68
18266,790.39,764.52,760.95,762.68,769.63,112.79,-862.30,481.93,3.00,-0.51,-0.15,-191.92
18301,791.73,764.56,760.93,762.58,769.95,120.12,-863.28,523.44,-0.40,0.65,2.16,-195.78
18336,791.86,764.69,760.87,762.34,769.94,110.84,-869.63,518.07,-5.85,-0.88,3.21,-195.01
18372,791.88,764.81,760.86,762.21,769.94,132.32,-908.20,467.77,1.15,1.38,3.27,-194.53
18406,792.39,764.68,760.78,762.13,770.00,112.30,-875.98,502.93,-11.53,-4.94,3.59,-195.93
18440,792.39,764.43,760.64,761.99,769.86,103.03,-885.74,459.96,-21.37,-5.65,1.11,-195.57
18475,791.20,764.36,760.59,761.81,769.49,131.35,-921.39,435.55,-4.40,-0.77,2.34,-189.30
18509,790.04,764.24,760.56,761.66,769.13,130.37,-904.30,459.47,0.03,-1.14,0.47,-183.06
18543,788.46,764.37,760.73,761.62,768.80,124.51,-898.93,446.29,20.07,4.39,1.60,-173.81
18577,786.72,764.46,760.83,761.62,768.41,110.84,-893.07,475.59,24.44,3.69,-0.21,-165.97
18611,785.19,764.51,760.98,761.72,768.10,100.10,-859.86,481.45,2.68,1.53,-0.76,-158.77
18645,783.76,764.30,761.01,761.71,767.69,127.93,-873.54,518.07,4.13,0.07,0.63,-151.47
18680,782.48,764.25,761.01,761.49,767.31,123.54,-900.88,487.79,-1.50,0.09,-2.15,-143.44
18714,780.87,764.08,761.04,761.31,766.83,119.63,-880.37,500.00,-2.38,0.26,0.53,-133.30
18749,779.30,763.99,760.98,760.48,766.19,103.52,-877.93,513.67,-2.50,-1.34,0.51,-116.28
18787,777.99,763.90,760.97,759.01,765.47,132.32,-868.65,504.39,-3.69,1.63,-0.19,-89.88
18821,776.44,763.75,760.89,758.99,765.02,136.72,-888.18,496.58,-3.83,-1.08,1.24,-84.97
18856,774.36,763.61,760.83,758.90,764.43,139.16,-885.74,488.77,-5.60,-1.31,1.79,-76.67
18890,771.95,763.50,760.88,758.93,763.81,130.86,-896.00,481.93,-1.73,-0.85,2.16,-66.97
18924,769.95,763.41,760.89,758.98,763.31,120.61,-875.00,482.42,-2.22,0.05,0.68,-59.81
18958,768.16,763.33,760.85,759.01,762.84,115.23,-891.60,482.42,-3.64,2.76,1.54,-54.25
18992,766.61,763.16,760.93,759.03,762.43,126.95,-880.86,494.14,-2.91,0.85,-0.81,-45.91
19026,765.48,763.11,760.88,759.04,762.13,112.30,-881.35,465.33,-2.64,0.05,-0.08,-43.05
19061,764.62,762.90,760.80,758.92,761.81,120.12,-903.32,473.63,-5.60,1.62,-1.46,-38.83
19094,764.04,762.83,760.80,758.89,761.64,110.84,-898.93,466.31,-2.78,-0.53,-0.06,-35.75
19128,763.45,762.77,760.82,758.90,761.49,137.21,-899.41,478.03,0.53,1.05,-1.60,-32.87
19163,762.58,762.68,760.86,758.99,761.28,127.93,-903.81,471.68,1.83,2.92,1.02,-29.40
19197,760.96,762.76,761.01,759.01,760.94,114.75,-901.86,461.43,1.55,1.97,1.23,-21.07
19230,759.05,762.84,761.38,759.09,760.59,114.75,-902.34,468.75,-2.82,2.23,-1.54,-7.10
19264,757.68,762.70,761.62,759.26,760.31,150.39,-965.82,432.62,1.89,3.44,4.10,2.15
19298,756.42,762.56,761.74,759.24,759.99,116.70,-921.39,445.31,6.10,3.20,10.80,10.81
19333,755.42,762.45,761.64,759.18,759.67,114.75,-885.25,492.19,8.93,0.02,9.27,13.50
19367,754.72,762.38,761.54,759.16,759.45,-26.37,-782.23,359.37,12.34,3.06,4.01,14.24
19401,754.62,762.37,761.49,759.19,759.42,76.17,-882.81,443.36,-11.90,-29.87,13.09,12.98
19435,754.72,762.28,761.55,759.07,759.41,290.53,-1018.07,546.87,28.25,-4.14,1.29,16.70
19469,754.85,762.26,761.53,759.09,759.44,66.41,-711.43,610.35,0.27,-0.98,-1.19,15.56
19503,754.97,762.29,761.56,759.13,759.49,85.94,-754.39,525.39,-21.73,1.59,-4.15,15.13
19537,755.03,762.34,761.70,759.19,759.56,123.54,-925.29,454.59,-37.82,-3.69,-3.77,17.13
19573,755.07,762.27,761.61,759.22,759.54,192.87,-1007.81,423.34,-8.43,-2.77,-1.02,14.75
19607,754.88,762.22,761.54,759.16,759.45,120.61,-925.78,450.68,10.16,2.97,3.11,15.11
19641,754.77,762.27,761.53,759.16,759.43,117.19,-896.97,467.29,3.35,2.93,2.31,14.63
19675,754.51,762.23,761.37,759.13,759.31,115.23,-897.95,460.94,4.89,0.33,3.30,12.52
19709,754.39,762.22,761.36,759.03,759.25,122.56,-884.77,474.61,3.73,1.27,1.63,14.02
19743,754.29,762.10,761.15,759.01,759.14,108.89,-877.93,469.73,-1.54,1.15,0.12,10.55
19778,754.14,762.05,760.96,758.99,759.04,76.66,-817.38,447.75,-2.89,-2.47,2.56,7.03
19812,754.10,762.01,760.93,758.98,759.00,117.68,-904.30,437.01,-25.78,-17.14,8.67,6.99
19846,754.00,762.06,761.00,759.02,759.02,131.35,-985.35,464.36,-10.73,-14.15,5.82,7.98
19880,753.89,761.98,761.06,759.10,759.00,131.35,-1036.13,363.77,4.97,-6.26,7.04,9.35
19914,753.83,761.90,761.05,759.14,758.98,87.40,-974.61,329.59,8.50,-37.37,29.80,9.23
19948,753.77,761.91,760.94,759.06,758.92,280.76,-970.21,243.16,-10.27,-67.75,55.33,7.93
19984,753.64,761.62,760.46,758.94,758.67,564.45,-1053.22,162.60,-41.94,-72.79,58.15,0.40
20018,753.77,761.54,759.94,758.87,758.53,647.95,-974.61,80.08,-45.57,-19.14,36.37,-11.15
20052,753.65,761.48,759.88,758.72,758.43,493.16,-1375.49,134.28,-107.80,29.51,-35.78,-9.83
20087,753.62,761.46,759.83,758.75,758.42,246.09,-1132.81,334.47,-60.52,25.80,-110.22,-11.22
20121,753.64,761.46,759.78,758.75,758.41,153.32,-1024.90,400.39,-63.18,-10.18,-122.79,-12.31
20155,753.57,761.40,759.77,758.69,758.36,118.65,-936.04,391.11,-61.89,-36.06,-98.42,-11.19
20189,753.53,761.37,759.78,758.74,758.35,173.83,-970.70,357.91,-38.08,-32.40,-71.10,-11.25
20223,753.50,761.38,759.70,758.68,758.32,200.68,-852.54,262.70,-32.16,-15.40,-48.15,-12.21
20257,753.49,761.26,759.68,758.75,758.29,190.92,-945.80,210.45,-44.95,0.87,-41.69,-12.75
20293,753.40,761.26,759.65,758.70,758.25,178.22,-853.52,204.10,-45.09,22.56,-37.04,-12.32
20327,753.28,761.27,759.67,758.60,758.21,121.09,-820.31,227.54,-52.31,44.93,-20.37,-10.17
20361,753.21,761.28,759.73,758.65,758.21,104.98,-858.40,239.75,-59.60,74.12,17.59,-9.26
20397,753.08,761.35,759.68,758.63,758.18,169.92,-909.18,230.96,-42.73,104.79,50.09,-10.41
20431,753.14,761.37,759.71,758.68,758.23,180.66,-861.33,197.27,-12.34,106.40,58.28,-10.69
20465,753.03,761.38,759.60,758.72,758.18,169.92,-862.79,215.33,-26.21,64.04,34.73,-13.72
20500,753.13,761.24,759.59,758.65,758.15,269.53,-1045.90,223.14,-11.99,24.64,-0.66,-12.13
20534,753.10,761.21,759.55,758.64,758.12,230.96,-1056.15,193.85,16.52,-2.82,-34.44,-12.54
20568,753.08,761.15,759.52,758.60,758.09,245.61,-1122.07,85.45,41.66,-22.35,-46.17,-12.31
20602,753.17,761.13,759.65,758.66,758.15,266.60,-897.46,-10.74,31.87,-38.02,-30.85,-10.12
20636,753.09,761.14,759.59,758.68,758.13,391.60,-831.05,-44.92,-20.21,-59.08,-0.44,-11.64
20670,753.11,761.22,759.49,758.60,758.10,478.03,-912.60,2.93,-59.56,-66.28,34.63,-13.72
20703,753.09,761.20,759.51,758.59,758.09,590.82,-1156.74,81.05,-50.58,-48.70,44.95,-12.85
20737,753.12,761.20,759.45,758.56,758.08,600.10,-1198.24,36.13,6.03,-6.78,33.36,-13.91
20771,753.10,761.09,759.47,758.54,758.05,497.07,-1057.62,-50.29,30.40,26.90,-6.84,-12.04
20806,753.02,761.15,759.52,758.65,758.08,412.60,-942.38,-46.39,7.05,22.18,-44.76,-12.84
20839,753.05,761.09,759.49,758.51,758.03,371.09,-928.71,0.00,1.46,9.27,-52.06,-11.04
20874,753.04,761.09,759.48,758.64,758.06,310.55,-881.84,53.22,-11.72,-10.39,-50.89,-13.30
20907,753.03,761.05,759.45,758.62,758.04,304.20,-1005.37,70.31,1.23,-16.71,-34.55,-13.21
20941,753.15,761.08,759.47,758.61,758.08,234.86,-937.01,28.81,24.63,-17.78,-25.31,-13.40
20975,753.09,761.08,759.39,758.64,758.05,251.46,-906.74,-36.62,24.46,-13.31,-21.29,-15.46
21009,753.10,761.09,759.45,758.56,758.05,275.39,-856.93,-96.68,27.84,-6.65,-18.21,-13.00
21043,753.04,761.04,759.40,758.59,758.02,310.55,-776.37,-86.43,-7.87,-6.66,-1.58,-14.01
21077,753.00,761.02,759.44,758.53,758.00,390.14,-832.52,-44.92,-27.31,-4.97,19.76,-11.86
21111,753.09,760.99,759.45,758.58,758.03,416.02,-908.20,-7.81,-32.92,0.03,34.16,-12.42
21145,753.02,761.03,759.52,758.53,758.03,386.23,-985.84,15.14,-25.43,2.53,32.69,-10.14
21181,753.11,761.08,759.42,758.59,758.05,450.68,-1001.95,11.72,-9.27,3.47,16.80,-14.14
21215,753.10,761.08,759.41,758.63,758.06,461.43,-983.40,-15.63,-0.83,4.20,3.70,-14.92
21251,753.14,761.02,759.40,758.59,758.04,451.66,-952.64,-15.14,-6.81,2.33,-4.14,-14.30
21285,753.03,760.99,759.44,758.58,758.01,381.35,-951.17,14.16,-8.01,0.73,-8.80,-12.53
21319,753.02,760.99,759.44,758.58,758.01,388.18,-918.95,17.09,-7.76,-3.73,-6.24,-12.52
21353,753.08,761.04,759.41,758.55,758.02,418.95,-906.25,32.23,-10.31,-6.02,0.44,-13.43
21388,753.05,761.02,759.35,758.62,758.01,434.57,-939.45,37.60,-1.23,-3.18,8.64,-15.66
21422,753.06,760.94,759.40,758.58,757.99,431.15,-936.04,16.11,8.99,2.50,2.52,-13.16
21456,752.98,761.03,759.36,758.61,758.00,431.15,-909.18,21.97,11.25,10.07,-4.90,-15.31
21490,753.02,761.01,759.37,758.56,757.99,416.99,-919.92,39.06,11.62,11.85,-6.10,-14.06
21524,752.96,761.00,759.39,758.58,757.98,386.23,-939.45,31.74,21.90,11.94,-3.37,-13.56
21558,753.02,761.07,759.45,758.62,758.04,386.72,-919.92,60.55,6.27,4.41,-1.66,-13.58
21594,753.05,760.98,759.44,758.56,758.01,459.47,-949.22,51.27,18.03,6.34,4.75,-12.12
21629,753.02,761.03,759.45,758.52,758.01,423.34,-913.09,18.55,17.55,7.18,4.24,-11.62
21663,753.02,760.98,759.40,758.56,757.99,381.35,-990.72,34.67,14.19,3.61,-7.77,-13.20
21697,753.03,760.94,759.41,758.54,757.98,356.45,-962.89,-1.95,24.97,2.00,-11.46,-12.30
21731,753.01,760.97,759.44,758.54,757.99,357.91,-894.53,-56.15,16.24,-2.77,-5.49,-11.63
21765,753.09,760.92,759.44,758.56,758.00,334.96,-885.25,-73.24,-0.85,-12.50,-1.05,-11.79
21799,753.01,760.94,759.40,758.59,757.98,326.17,-933.59,-57.13,-12.92,-17.46,3.37,-13.20
21833,753.05,760.98,759.36,758.59,758.00,349.61,-899.90,-83.50,-16.53,-22.26,9.29,-14.61
21868,753.06,760.96,759.41,758.58,758.00,353.03,-896.00,-107.42,-29.45,-27.30,16.40,-13.04
21902,753.12,760.95,759.42,758.55,758.01,391.11,-941.89,-87.89,-36.04,-32.14,18.73,-12.59
21936,753.09,761.00,759.48,758.52,758.02,388.67,-949.71,-96.68,-29.26,-29.92,15.50,-10.77
21970,752.97,761.00,759.42,758.61,758.00,396.00,-959.96,-96.19,-26.15,-26.26,13.92,-13.34
22006,753.03,760.99,759.46,758.70,758.05,457.03,-963.87,-79.10,-21.92,-16.69,14.13,-13.80
22040,753.14,760.96,759.32,758.68,758.03,465.33,-997.56,-71.29,-10.49,1.12,12.33,-17.14
22074,753.10,761.03,759.38,758.66,758.04,447.27,-1020.51,-47.85,2.06,20.74,3.91,-15.64
22109,753.08,760.94,759.42,758.65,758.02,392.09,-1007.81,-27.83,16.11,37.05,-9.44,-13.75
22143,753.07,760.95,759.42,758.64,758.02,328.61,-923.34,-28.81,33.37,46.05,-17.37,-13.83
22177,753.09,761.03,759.38,758.68,758.05,276.37,-906.25,-31.74,28.57,38.50,-10.90,-16.01
22213,753.05,761.04,759.33,758.56,757.99,250.00,-882.32,-45.90,18.21,28.27,0.24,-15.39
22247,753.09,761.05,759.36,758.56,758.02,278.81,-901.86,-96.68,9.39,15.82,14.76,-14.89
22280,753.06,760.97,759.38,758.62,758.01,301.27,-867.68,-114.75,-20.71,-3.72,23.20,-14.59
22314,753.07,761.01,759.40,758.63,758.03,316.89,-991.70,-77.64,-37.64,-16.82,31.72,-14.68
22347,753.07,761.03,759.33,758.57,758.00,333.98,-1049.32,-18.07,-30.66,-17.76,33.75,-15.54
22381,753.08,761.08,759.37,758.63,758.04,329.10,-1159.18,-26.86,-11.68,-1.71,30.72,-16.01
22416,753.05,761.06,759.41,758.63,758.04,277.83,-1109.86,-136.23,30.33,26.07,19.39,-14.56
22451,753.01,761.03,759.42,758.60,758.01,183.59,-931.15,-204.10,0.11,25.24,6.69,-13.49
22485,753.03,760.99,759.47,758.68,758.04,169.92,-837.40,-203.12,-22.60,6.24,9.80,-13.29
22518,753.10,760.96,759.42,758.64,758.03,146.97,-720.21,-194.82,-57.27,-25.58,27.71,-14.01
22552,753.00,761.00,759.41,758.69,758.03,236.33,-834.47,-107.42,-87.98,-59.00,47.50,-14.84
22586,753.09,760.96,759.37,758.64,758.01,287.11,-927.25,-27.34,-72.89,-58.88,56.19,-15.24
22620,753.12,760.99,759.37,758.63,758.03,404.79,-986.33,-10.25,-29.15,-35.69,47.79,-15.30
22654,753.08,760.94,759.33,758.60,757.99,513.67,-1031.25,-56.15,25.95,5.15,30.98,-15.29
22688,753.02,761.06,759.35,758.58,758.01,438.96,-1041.99,-114.75,38.04,30.24,4.58,-15.32
22722,753.06,760.96,759.29,758.58,757.97,320.80,-1123.05,-119.63,34.21,36.73,-21.03,-16.08
22756,753.09,761.02,759.45,758.56,758.03,212.40,-1170.90,-113.77,50.27,32.83,-41.47,-12.44
22790,753.05,761.02,759.36,758.57,758.00,155.76,-1082.52,-141.11,49.18,17.34,-45.87,-14.68
22826,753.08,761.06,759.50,758.60,758.06,223.14,-957.52,-154.79,30.50,-1.88,-32.52,-12.16
22860,753.07,760.98,759.40,758.67,758.03,263.67,-906.25,-135.25,8.33,-12.20,-12.37,-14.73
22894,753.09,760.95,759.38,758.64,758.01,270.02,-966.31,-92.29,2.78,-11.66,3.09,-14.77
22928,753.14,760.94,759.36,758.54,758.00,253.91,-1061.04,-82.03,4.82,-14.45,0.83,-13.87
22963,753.15,761.03,759.46,758.70,758.09,241.70,-963.87,-115.23,9.01,-19.50,-8.18,-14.40
22997,753.10,760.99,759.38,758.62,758.02,208.50,-954.10,-104.00,-9.69,-34.50,-2.71,-14.82
23031,753.11,761.00,759.51,758.62,758.06,187.99,-1074.71,-104.98,-17.66,-47.24,5.12,-11.81
23065,753.16,761.02,759.43,758.72,758.08,125.49,-1026.86,-95.70,-27.62,-60.37,12.66,-15.53
23099,753.16,761.02,759.40,758.64,758.05,125.00,-1103.52,-99.61,-8.55,-65.13,14.50,-15.14
23133,753.16,761.07,759.47,758.67,758.09,170.41,-999.51,-153.32,-2.97,-63.15,12.69,-14.35
23169,753.14,761.08,759.44,758.67,758.08,345.21,-885.74,-195.31,-6.97,-45.67,26.73,-14.91
23203,753.16,761.02,759.38,758.64,758.05,416.99,-836.91,-197.27,-14.32,-22.00,40.79,-15.53
23242,753.15,761.04,759.38,758.66,758.06,550.29,-918.46,-142.58,-18.92,12.27,34.74,-15.88
23276,753.15,760.98,759.38,758.60,758.03,488.28,-1035.64,-176.76,21.58,66.28,3.40,-14.62
23311,753.19,761.06,759.39,758.55,758.05,436.52,-1001.46,-138.67,21.50,94.94,-31.76,-14.39
23345,753.11,761.04,759.37,758.65,758.04,338.38,-1223.14,-11.23,21.86,113.74,-53.16,-16.00
23379,753.05,760.97,759.34,758.62,758.00,277.34,-1145.51,91.80,86.73,134.26,-68.91,-15.50
23413,753.01,760.96,759.40,758.67,758.01,185.55,-1135.74,0.00,141.16,141.90,-64.81,-14.54
23447,752.97,761.05,759.45,758.67,758.03,152.83,-847.17,-55.66,117.07,121.53,-40.32,-13.84
23481,753.06,761.06,759.36,758.73,758.05,174.32,-975.10,-13.18,62.25,95.44,-6.33,-17.54
23515,753.04,761.10,759.47,758.70,758.07,134.77,-1046.39,-5.86,44.98,70.85,19.75,-14.43
23550,752.98,761.19,759.43,758.69,758.07,107.91,-907.71,-14.65,-3.22,30.83,28.85,-15.89
23584,752.95,761.18,759.38,758.76,758.07,61.04,-919.43,33.69,-52.64,-14.07,33.33,-17.82
23618,752.89,761.26,759.47,758.71,758.08,61.52,-938.48,68.36,-59.76,-32.20,33.95,-15.51
23654,752.80,761.31,759.40,758.80,758.08,7.32,-894.04,-7.32,-46.39,-37.90,26.33,-18.60
23688,752.84,761.34,759.38,758.76,758.08,-24.41,-773.44,-65.43,-73.59,-52.74,26.48,-18.80
23722,752.81,761.33,759.42,758.77,758.08,104.00,-959.47,1.46,-77.44,-62.06,53.60,-17.94
23756,752.78,761.35,759.44,758.77,758.09,161.13,-1039.55,-47.36,-67.85,-63.69,67.11,-17.21
23790,752.77,761.36,759.45,758.90,758.12,131.84,-1002.93,-34.18,-71.54,-56.49,52.24,-19.01
23824,752.80,761.35,759.51,758.84,758.13,245.12,-1145.02,55.66,-59.31,-36.27,43.19,-16.51
23857,752.86,761.22,759.45,758.92,758.11,326.66,-1242.19,67.87,-21.73,-6.34,42.11,-18.45
23891,752.88,761.26,759.39,758.84,758.09,295.90,-1104.00,34.18,21.66,4.48,18.02,-19.35
23924,752.88,761.23,759.42,758.88,758.10,289.55,-1106.45,93.26,23.44,-8.05,-10.13,-18.70
23958,752.81,761.24,759.41,758.89,758.09,252.44,-1082.03,121.58,59.05,-8.66,-31.39,-19.05
23992,752.91,761.24,759.39,758.83,758.09,215.33,-1081.05,95.70,89.31,4.83,-42.22,-19.21
24028,752.83,761.21,759.33,758.77,758.03,252.44,-903.81,62.01,101.69,22.29,-39.68,-19.04
24062,752.91,761.21,759.40,758.83,758.09,218.75,-946.29,56.15,82.44,30.35,-29.66,-18.42
24095,752.89,761.21,759.37,758.75,758.05,189.45,-1042.48,-34.67,88.32,36.56,-31.31,-18.16
24131,752.88,761.20,759.33,758.72,758.03,127.44,-993.65,-49.80,40.79,24.22,-34.48,-18.37
24164,752.84,761.18,759.34,758.74,758.02,61.04,-1039.06,-15.63,5.77,14.56,-27.68,-18.23
24198,752.78,761.18,759.36,758.73,758.01,38.09,-995.12,40.04,-14.37,8.76,-17.78,-17.27
24232,752.85,761.18,759.36,758.78,758.04,196.29,-863.28,61.52,-27.76,12.09,17.29,-18.31
24267,752.93,761.23,759.35,758.70,758.05,276.86,-1018.55,129.88,-48.00,13.54,43.40,-17.96
24301,752.86,761.25,759.33,758.72,758.04,290.53,-1116.70,143.07,-18.30,29.02,14.26,-18.86
24335,752.84,761.25,759.40,758.78,758.07,210.94,-1051.27,163.09,8.07,40.47,-27.01,-17.98
24369,752.81,761.19,759.41,758.75,758.04,99.61,-962.40,161.62,8.88,36.96,-46.76,-16.60
24403,752.79,761.22,759.41,758.74,758.04,26.86,-922.85,168.95,10.07,22.83,-34.40,-16.73
24439,752.78,761.13,759.41,758.71,758.01,83.98,-877.93,164.06,1.82,2.46,-9.53,-15.41
24473,752.87,761.13,759.38,758.73,758.03,148.93,-939.94,172.36,-7.68,-10.44,4.89,-16.69
24507,752.80,761.13,759.43,758.66,758.00,190.92,-1021.48,142.09,0.35,-13.77,9.47,-14.30
24541,752.80,761.16,759.40,758.72,758.02,193.36,-1027.83,143.07,10.19,-6.84,1.05,-16.20
24576,752.80,761.09,759.36,758.69,757.98,238.28,-944.34,113.77,6.63,0.66,6.31,-16.21
24610,752.81,761.19,759.31,758.68,758.00,253.42,-1043.95,134.28,-8.47,2.29,11.07,-17.99
24644,752.87,761.12,759.37,758.75,758.03,225.10,-1102.05,161.13,2.87,6.82,6.67,-17.13
24678,752.85,761.18,759.36,758.73,758.03,209.96,-1016.11,137.70,15.36,11.56,1.28,-17.60
24712,752.83,761.10,759.38,758.69,758.00,194.82,-934.08,112.30,4.01,6.05,2.96,-15.68
24746,752.91,761.16,759.34,758.73,758.03,209.96,-938.48,127.44,-4.48,-5.66,3.00,-18.06
24780,752.88,761.16,759.35,758.67,758.02,218.75,-946.29,125.49,-7.31,-7.21,4.83,-16.99
24815,752.81,761.11,759.37,758.71,758.00,187.99,-979.98,158.20,-2.55,-6.66,-0.23,-16.42
24850,752.74,761.11,759.34,758.68,757.97,161.62,-957.52,165.04,5.02,2.84,-1.62,-16.29
24885,752.83,761.05,759.38,758.69,757.99,163.09,-949.22,140.14,2.22,5.50,6.60,-15.39
24919,752.87,761.08,759.38,758.70,758.01,147.46,-964.84,155.27,-0.79,0.89,9.89,-15.82
24953,752.79,761.15,759.34,758.69,757.99,151.86,-979.98,160.16,-1.33,-0.37,10.63,-17.10
24987,752.89,761.09,759.35,758.72,758.01,204.59,-1011.23,171.87,0.75,-3.26,11.67,-17.26
25021,752.87,761.11,759.44,758.70,758.03,205.08,-1030.27,173.83,2.62,0.78,12.01,-14.66
25055,752.80,761.19,759.39,758.62,758.00,213.87,-1008.79,178.22,3.50,0.66,10.00,-15.02
25091,752.84,761.20,759.42,758.74,758.05,243.16,-1014.65,161.62,-2.03,1.41,10.35,-16.39
25125,752.84,761.19,759.39,758.69,758.03,257.81,-1036.13,171.39,-1.13,-2.77,8.09,-16.26
25159,752.74,761.24,759.41,758.72,758.03,231.45,-1045.90,187.99,1.12,-0.85,1.55,-16.32
25193,752.81,761.16,759.36,758.77,758.02,225.10,-1033.69,187.99,8.44,1.59,-11.06,-17.91
25227,752.82,761.14,759.39,758.69,758.01,171.39,-991.70,151.37,14.21,2.07,-16.40,-15.99
25263,752.86,761.14,759.40,758.74,758.03,152.83,-969.73,131.84,9.59,3.83,-11.21,-16.36
25297,752.78,761.11,759.41,758.75,758.01,121.09,-949.22,135.25,4.52,0.18,-9.35,-15.91
25332,752.83,761.18,759.42,758.75,758.04,130.37,-965.33,152.83,3.44,-0.33,-6.43,-16.38
25366,752.76,761.09,759.38,758.73,757.99,145.51,-951.66,149.90,2.37,0.24,-4.98,-16.13
25399,752.87,761.25,759.42,758.69,758.06,162.11,-944.34,139.65,-1.07,0.24,1.57,-16.17
25433,752.87,761.17,759.35,758.73,758.03,174.80,-955.57,136.23,-5.66,0.97,0.79,-17.78
25466,752.84,761.20,759.33,758.69,758.01,179.69,-1000.98,167.97,-6.40,-0.26,1.51,-17.91
25500,752.91,761.14,759.37,758.74,758.04,196.29,-994.63,179.20,-0.60,-1.42,0.55,-17.29
25534,752.87,761.23,759.36,758.77,758.06,210.94,-980.47,161.13,-2.85,-3.15,2.18,-18.53
25567,752.88,761.13,759.38,758.70,758.02,216.31,-1009.77,163.09,-4.17,0.16,4.78,-16.48
25601,752.89,761.13,759.46,758.78,758.06,227.05,-1011.23,167.97,-0.42,-0.91,-0.60,-15.73
25635,752.87,761.14,759.41,758.66,758.02,195.31,-1006.84,174.80,1.37,1.24,-3.23,-15.17
25671,752.87,761.14,759.42,758.72,758.04,187.01,-980.96,166.99,3.11,0.64,-1.15,-15.66
25705,752.87,761.09,759.35,758.74,758.01,169.43,-985.35,150.39,3.61,1.08,1.10,-17.26
25739,752.82,761.16,759.36,758.73,758.02,165.53,-976.56,145.51,4.92,1.38,1.15,-17.28
25772,752.88,761.21,759.38,758.70,758.04,159.67,-964.36,136.23,0.97,1.51,-3.15,-17.03
25806,752.84,761.21,759.39,758.72,758.04,140.14,-969.24,153.32,-0.30,1.98,0.32,-16.99
25840,752.84,761.15,759.40,758.72,758.03,130.86,-968.26,163.09,1.27,1.61,4.42,-16.14
25875,752.87,761.15,759.38,758.67,758.02,150.39,-957.52,158.69,-3.55,3.89,8.26,-16.03
25909,752.89,761.18,759.32,758.69,758.02,169.43,-974.12,158.20,-1.33,0.99,6.08,-18.28
25943,752.87,761.05,759.35,758.78,758.01,188.96,-976.56,169.92,-3.69,0.12,10.63,-17.52
25977,752.88,761.09,759.32,758.69,757.99,208.98,-1027.34,169.92,-0.46,1.34,8.78,-17.45
26011,752.90,761.12,759.33,758.77,758.03,221.68,-997.56,177.25,-1.40,4.25,4.09,-18.64
26047,752.85,761.12,759.36,758.73,758.02,221.19,-1022.95,168.95,1.32,1.66,2.92,-17.16
26083,752.92,761.16,759.31,758.72,758.03,208.98,-1006.84,159.18,3.34,1.15,-0.61,-18.93
26117,752.89,761.19,759.35,758.70,758.03,190.43,-997.07,171.39,3.41,0.22,-2.50,-17.61
26151,752.86,761.20,759.31,758.73,758.03,182.13,-988.77,162.60,1.85,-2.78,-3.62,-18.92
26185,752.85,761.23,759.36,758.75,758.05,163.09,-988.28,148.44,-0.10,0.96,-2.55,-18.28
26219,752.90,761.18,759.36,758.75,758.05,155.27,-980.47,142.09,2.07,1.19,0.82,-17.94
26253,752.86,761.14,759.34,758.75,758.02,141.11,-970.70,129.39,2.49,0.88,0.83,-18.15
26287,752.89,761.16,759.39,758.75,758.05,134.28,-964.36,145.51,-1.98,-0.69,2.98,-17.26
26322,752.86,761.17,759.34,758.70,758.02,130.37,-976.56,143.07,-5.99,-4.69,4.14,-17.57
26356,752.91,761.09,759.38,758.73,758.03,157.23,-960.45,128.91,-10.24,-1.15,7.34,-16.63
26390,752.87,761.14,759.39,758.67,758.02,161.13,-1012.70,154.30,-8.79,-1.20,5.29,-15.73
26424,752.88,761.15,759.39,758.71,758.03,160.64,-1002.44,150.39,-4.60,-1.96,9.05,-16.42
26458,752.90,761.20,759.39,758.70,758.05,180.18,-984.37,147.95,-1.66,2.59,4.98,-16.61
26494,752.95,761.12,759.37,758.69,758.03,172.85,-979.98,147.95,1.48,3.60,6.86,-16.64
26528,752.88,761.04,759.39,758.68,758.00,173.83,-1010.25,144.53,-1.40,1.86,6.55,-15.29
26562,752.92,761.18,759.37,758.72,758.05,159.18,-1035.64,161.13,4.95,4.05,3.11,-17.44
26596,752.96,761.12,759.36,758.70,758.04,132.32,-1027.34,143.55,9.35,9.20,-0.65,-17.12
26631,752.91,761.11,759.33,758.74,758.02,148.93,-961.91,130.86,9.22,3.40,1.86,-18.21
26665,753.01,761.14,759.34,758.67,758.04,337.40,-1238.77,312.50,-6.71,0.37,7.81,-17.48
26699,753.00,761.07,759.37,758.76,758.05,108.89,-958.50,225.59,33.32,12.04,-4.97,-17.57
26733,752.90,761.18,759.38,758.70,758.04,137.21,-1028.32,236.33,-1.80,-6.52,-3.58,-16.79
26767,753.01,761.14,759.37,758.73,758.06,155.76,-947.27,208.50,6.94,-5.00,-2.61,-17.73
26801,752.96,761.12,759.37,758.75,758.05,173.34,-986.82,178.22,7.02,-6.68,-1.33,-17.43
26835,752.97,761.10,759.38,758.80,758.06,140.14,-1001.46,161.62,11.82,-4.70,2.11,-17.96
26870,752.89,761.18,759.37,758.79,758.06,74.22,-938.96,197.27,17.63,-7.28,5.17,-18.38
26906,752.97,761.27,759.39,758.79,758.10,101.56,-985.35,191.41,12.91,-5.53,19.59,-18.93
26940,752.97,761.27,759.34,758.83,758.10,160.64,-909.67,180.18,7.50,4.48,-1.73,-20.65
26975,752.95,761.26,759.34,758.88,758.11,171.87,-982.91,231.93,26.69,9.51,2.89,-21.35
27009,753.04,761.28,759.40,758.88,758.15,176.27,-984.86,223.63,15.95,1.24,2.85,-20.23
27043,753.07,761.33,759.48,758.92,758.20,138.18,-970.21,250.00,24.47,6.71,1.08,-19.45
27076,753.17,761.36,759.38,758.86,758.19,145.51,-992.19,239.26,29.55,2.18,1.92,-21.55
27110,753.17,761.41,759.41,758.87,758.22,139.65,-966.31,284.67,38.08,7.51,0.21,-21.24
27143,753.28,761.38,759.45,758.93,758.26,143.07,-966.31,280.76,41.50,7.81,0.28,-21.43
27177,753.51,761.47,759.40,758.90,758.32,147.95,-957.03,331.54,43.94,8.18,-1.60,-23.66
27211,753.64,761.52,759.52,758.83,758.38,129.39,-837.89,461.43,33.28,14.76,0.29,-20.69
27245,753.75,761.60,759.48,758.85,758.42,166.02,-989.75,280.27,5.96,1.90,-2.09,-22.96
27281,753.84,761.59,759.48,758.89,758.45,139.65,-935.06,381.35,10.98,0.53,1.31,-23.51
27314,754.09,761.69,759.53,758.85,758.54,126.95,-934.57,377.93,9.44,2.75,1.66,-23.41
27348,754.23,761.80,759.56,758.89,758.62,135.74,-917.48,403.32,7.20,2.02,-0.06,-24.61
27382,754.32,761.78,759.57,758.92,758.65,129.88,-932.62,375.00,0.46,1.81,-0.66,-24.94
27416,754.60,761.67,759.55,758.93,758.69,129.88,-929.20,366.70,-0.89,4.18,0.41,-25.81
27450,754.76,761.71,759.50,758.89,758.72,132.32,-948.73,370.61,-0.18,2.95,-2.76,-27.32
27484,755.00,761.60,759.49,758.78,758.72,133.30,-933.59,373.05,2.53,2.38,-2.01,-25.70
27519,755.23,761.56,759.48,758.77,758.76,139.16,-934.57,371.58,3.46,0.16,1.18,-26.39
27553,755.44,761.57,759.44,758.76,758.80,136.72,-924.80,376.95,5.58,3.36,0.17,-27.95
27587,755.72,761.61,759.47,758.77,758.89,126.95,-937.01,389.65,5.37,2.37,-1.96,-28.68
27621,756.07,761.68,759.44,758.86,759.01,135.74,-916.99,383.79,10.54,2.67,-2.73,-32.68
27655,756.44,761.72,759.49,758.76,759.10,138.67,-934.57,400.88,9.39,1.60,1.96,-31.64
27691,756.64,761.87,759.53,758.82,759.22,125.98,-902.83,407.23,5.99,1.89,0.85,-33.29
27729,756.66,761.81,759.58,758.90,759.24,119.14,-925.29,399.41,1.28,1.12,-0.08,-32.76
27763,756.55,761.89,759.59,758.85,759.22,121.09,-911.62,423.34,-0.66,-0.87,2.08,-32.02
27797,756.43,761.84,759.57,758.81,759.16,125.49,-931.64,388.18,-4.32,1.75,0.42,-31.05
27831,756.24,761.80,759.58,758.80,759.11,137.21,-946.29,371.58,-0.28,2.06,0.31,-29.75
27866,755.88,761.86,759.55,758.81,759.03,131.84,-940.92,396.97,2.28,0.08,-0.12,-29.90
27900,755.51,761.86,759.58,758.93,758.97,130.86,-926.76,403.81,1.40,1.79,0.62,-29.67
27935,755.16,761.89,759.59,758.90,758.89,136.23,-914.06,399.90,1.70,-0.60,0.27,-28.06
27969,754.97,762.04,759.59,758.95,758.89,125.49,-941.89,391.60,4.25,1.24,0.51,-29.16
28003,754.56,761.94,759.68,758.94,758.78,133.79,-920.90,397.95,-1.84,1.52,1.82,-24.87
28038,754.20,761.90,759.70,758.96,758.69,121.58,-926.76,396.00,-5.11,-0.51,0.79,-22.86
28072,754.03,761.99,759.62,758.99,758.66,141.11,-945.31,375.00,-0.01,0.31,-0.07,-25.56
28108,754.03,762.15,759.76,759.00,758.74,117.19,-926.27,405.76,7.76,1.69,-0.15,-23.67
28142,754.03,762.27,759.70,759.02,758.75,132.32,-908.20,407.23,1.44,0.79,-0.11,-26.07
28176,754.17,762.15,759.66,759.07,758.76,127.44,-929.20,398.44,0.00,1.52,0.46,-27.65
28210,754.51,762.16,759.66,759.02,758.84,123.54,-931.15,410.64,0.51,1.40,-0.39,-27.78
28244,754.96,762.02,759.60,758.91,758.87,131.35,-916.99,418.95,-1.14,3.61,-1.18,-28.46
28278,755.07,761.94,759.60,758.85,758.87,135.25,-943.85,373.05,-7.63,-1.64,1.28,-27.06
28312,755.22,761.80,759.57,758.86,758.86,125.00,-926.27,382.81,-9.11,-0.13,1.35,-27.35
28347,755.15,761.84,759.58,758.82,758.85,136.72,-927.25,376.46,-6.40,-2.79,0.98,-26.67
28381,755.25,761.83,759.59,758.80,758.87,122.56,-919.43,400.88,-5.21,1.31,0.06,-26.33
28415,755.29,761.81,759.52,758.84,758.86,131.84,-924.80,385.74,-3.18,0.18,2.72,-28.68
28449,755.25,761.77,759.60,758.84,758.86,129.88,-933.11,380.86,-3.86,0.50,0.62,-26.05
28483,755.44,761.73,759.52,758.80,758.87,137.21,-940.43,371.58,-2.57,2.13,0.81,-27.88
28519,755.55,761.78,759.44,758.77,758.88,131.35,-945.80,373.05,0.27,0.08,-1.24,-30.22
28553,755.62,761.73,759.55,758.80,758.92,120.12,-934.57,376.46,-0.90,1.30,-1.24,-27.73
28587,755.64,761.66,759.55,758.67,758.88,124.51,-932.13,368.16,-1.69,1.67,1.89,-25.36
28621,755.65,761.67,759.50,758.75,758.89,123.05,-925.78,374.02,1.47,-0.30,-1.05,-27.87
28654,755.69,761.70,759.52,758.85,758.94,129.39,-938.48,381.35,0.44,3.08,1.14,-29.40
28688,755.69,761.78,759.46,758.75,758.92,115.72,-938.96,379.39,1.92,-0.12,0.60,-29.86
28722,755.73,761.67,759.53,758.76,758.92,124.51,-935.55,375.00,1.93,0.72,0.95,-27.84
28755,755.75,761.71,759.50,758.72,758.92,130.37,-935.06,373.54,0.98,0.02,-2.57,-28.20
28789,755.75,761.73,759.54,758.76,758.94,126.46,-925.29,406.74,-5.75,2.57,-0.17,-28.13
28823,755.85,761.69,759.47,758.84,758.96,143.55,-953.12,351.56,-4.50,-2.69,-2.13,-30.95
28857,755.93,761.69,759.47,758.72,758.95,137.70,-945.80,367.19,1.84,2.75,0.36,-29.23
28892,755.89,761.72,759.47,758.82,758.97,121.09,-930.18,386.23,1.47,0.80,1.69,-31.03
28928,755.77,761.74,759.46,758.82,758.95,141.11,-938.48,356.45,0.11,0.60,-0.74,-30.86
28962,755.86,761.61,759.53,758.77,758.94,131.84,-938.96,368.65,3.63,1.17,-0.65,-27.95
28995,755.90,761.72,759.51,758.77,758.98,126.46,-937.01,391.60,1.86,1.50,1.77,-29.47
29029,755.87,761.76,759.49,758.73,758.96,127.44,-936.52,383.30,-1.54,1.87,1.56,-29.33
29063,755.90,761.70,759.49,758.79,758.97,136.23,-940.43,373.54,0.29,1.05,-0.01,-29.86
29097,755.88,761.59,759.51,758.71,758.92,132.32,-935.06,377.44,0.49,2.27,-0.76,-27.14
29132,755.92,761.65,759.51,758.79,758.97,138.67,-929.20,373.54,0.37,-0.07,2.54,-29.02
29166,755.94,761.72,759.44,758.69,758.95,128.91,-931.15,371.09,1.90,-0.13,1.60,-29.85
29200,755.91,761.71,759.49,758.76,758.97,129.88,-938.96,376.46,0.66,-0.25,-0.04,-29.45
29234,755.96,761.72,759.53,758.75,758.99,132.81,-938.96,379.88,1.11,-0.28,-2.14,-28.72
29268,756.02,761.71,759.54,758.76,759.01,130.37,-924.32,374.51,-1.36,1.31,0.14,-28.78
29302,756.01,761.61,759.50,758.78,758.98,125.00,-939.45,373.05,1.73,-0.73,1.34,-29.16
29338,756.02,761.73,759.51,758.80,759.02,130.37,-944.34,372.56,-0.68,-0.14,1.38,-30.19
29372,755.99,761.69,759.51,758.80,759.00,128.91,-930.18,368.16,0.49,1.33,0.39,-29.80
29406,755.95,761.63,759.48,758.86,758.98,132.81,-944.34,371.09,0.98,-0.05,1.93,-30.65
29441,756.02,761.63,759.43,758.81,758.98,139.16,-937.50,374.51,1.35,1.74,0.08,-31.55
29475,756.00,761.70,759.46,758.76,758.98,135.74,-943.85,368.16,1.44,1.07,0.93,-30.46
29509,755.99,761.68,759.47,758.77,758.97,137.21,-933.11,374.51,1.55,2.44,0.93,-30.21
29543,756.05,761.70,759.49,758.81,759.01,127.93,-945.31,371.58,0.41,0.77,-0.53,-30.85
29577,755.94,761.70,759.52,758.83,759.00,130.86,-938.48,361.33,-1.87,-0.87,1.05,-29.84
29611,755.91,761.62,759.53,758.74,758.95,139.16,-942.38,368.65,0.24,3.12,1.34,-27.53
29645,755.93,761.70,759.49,758.78,758.97,137.70,-940.43,367.68,0.53,2.64,-0.53,-29.92
29680,755.99,761.62,759.55,758.83,759.00,136.72,-942.38,375.49,-0.08,1.01,0.68,-28.70
29714,755.95,761.63,759.52,758.74,758.96,129.88,-930.66,364.26,0.73,-0.25,0.39,-28.00
29750,755.97,761.72,759.52,758.76,759.00,143.07,-930.18,376.95,0.20,1.89,-0.67,-29.06
29784,756.00,761.66,759.50,758.76,758.98,145.02,-931.64,369.63,1.58,1.16,0.21,-29.19
29819,755.92,761.62,759.50,758.81,758.96,143.07,-924.80,372.56,0.92,1.57,-0.01,-29.34
29854,756.04,761.65,759.54,758.83,759.02,133.30,-944.82,371.09,0.54,0.74,-0.47,-29.17
29888,756.01,761.67,759.54,758.69,758.98,127.44,-931.15,377.93,0.85,2.44,0.48,-27.35
29922,756.04,761.69,759.52,758.80,759.01,140.14,-931.15,375.00,0.37,2.15,0.08,-29.60
29956,756.06,761.66,759.50,758.86,759.02,128.91,-945.31,369.14,-2.84,1.59,0.69,-30.93
29990,756.09,761.66,759.48,758.79,759.00,132.81,-941.89,375.00,-1.54,2.45,1.05,-30.60
30024,756.01,761.70,759.52,758.77,759.00,133.79,-940.92,379.39,-0.99,1.53,-0.20,-29.17
30058,756.05,761.74,759.46,758.77,759.00,125.98,-936.52,360.35,-0.68,1.67,0.21,-31.07
30092,756.11,761.72,759.48,758.76,759.02,130.86,-947.75,367.68,0.40,1.08,1.37,-30.54
30127,756.04,761.66,759.44,758.73,758.97,134.28,-932.13,361.82,0.37,1.31,2.76,-30.46
30163,755.99,761.69,759.50,758.85,759.01,135.25,-935.55,375.98,0.50,2.33,0.05,-30.95
30197,756.02,761.66,759.45,758.77,758.97,128.91,-937.01,376.46,0.10,-0.13,-1.37,-30.70
30230,756.01,761.67,759.44,758.79,758.98,131.35,-928.22,361.82,0.12,2.95,0.61,-31.37
30264,756.02,761.64,759.40,758.74,758.95,137.70,-939.94,380.37,-0.11,1.98,-1.88,-31.33
30297,756.07,761.70,759.45,758.79,759.00,119.63,-937.50,376.95,1.76,1.14,-0.71,-31.31
30331,756.07,761.73,759.46,758.89,759.04,131.35,-942.38,377.44,1.14,-0.25,1.41,-33.01
30365,756.06,761.68,759.47,758.82,759.01,122.56,-937.50,370.61,0.26,0.20,-0.80,-31.26
30398,756.09,761.73,759.50,758.86,759.04,128.42,-933.59,373.54,-0.28,1.66,-1.59,-31.53
30432,756.08,761.77,759.47,758.77,759.02,124.02,-936.52,374.51,0.13,1.74,0.72,-31.23
30466,756.13,761.74,759.51,758.73,759.03,124.02,-938.48,362.79,-2.05,3.02,1.09,-29.79
30500,756.15,761.82,759.53,758.85,759.09,127.44,-936.52,366.21,-0.21,0.85,1.83,-31.68
30536,756.19,761.79,759.45,758.85,759.07,138.18,-929.20,372.07,0.61,-1.26,-1.14,-33.39
30569,756.19,761.78,759.53,758.83,759.08,138.67,-934.57,366.21,0.37,1.79,0.58,-31.01
30603,756.13,761.75,759.49,758.80,759.04,129.39,-942.87,361.82,-2.40,1.49,0.98,-31.17
30637,756.13,761.77,759.51,758.82,759.06,124.02,-933.59,385.74,-1.53,-0.23,0.87,-31.27
30671,756.13,761.80,759.52,758.74,759.05,123.05,-934.08,361.82,-0.66,1.97,0.05,-29.96
30705,756.15,761.74,759.43,758.84,759.04,124.02,-937.99,355.47,-0.60,0.21,0.30,-33.20
30739,756.12,761.80,759.52,758.83,759.07,137.21,-939.45,371.58,0.99,1.58,0.23,-31.26
30775,756.17,761.82,759.52,758.76,759.07,123.05,-927.73,373.05,-0.10,2.45,-0.39,-30.62
30809,756.18,761.78,759.60,758.81,759.09,126.46,-934.08,374.02,0.85,0.11,4.00,-28.96
30843,756.22,761.84,759.49,758.79,759.08,135.25,-940.43,370.61,-0.14,1.79,1.95,-32.26
30877,756.20,761.89,759.50,758.84,759.11,122.56,-938.96,362.79,0.50,2.44,-0.91,-32.88
30911,756.17,761.77,759.57,758.78,759.08,141.11,-942.38,361.33,0.41,1.60,1.15,-29.24
30947,756.20,761.82,759.57,758.82,759.10,132.32,-928.71,372.07,-0.45,0.54,-0.21,-30.25
30982,756.18,761.80,759.47,758.79,759.06,130.86,-937.50,372.07,0.50,-1.55,2.33,-32.03
31016,756.27,761.86,759.49,758.79,759.10,131.84,-929.69,372.07,-0.67,2.45,-0.15,-32.48
31050,756.21,761.82,759.53,758.83,759.10,129.39,-948.73,357.42,-0.77,0.08,1.76,-31.43
31084,756.20,761.85,759.57,758.93,759.14,123.05,-931.15,369.63,-0.33,0.78,0.11,-32.00
31118,756.24,761.80,759.57,758.94,759.14,136.72,-920.90,368.16,1.33,1.89,1.20,-32.13
31152,756.25,761.85,759.53,758.92,759.14,128.42,-940.92,370.12,1.35,0.69,-1.87,-33.18
31186,756.27,761.79,759.48,758.78,759.08,127.93,-937.99,369.14,-1.22,3.21,0.95,-31.96
31221,756.16,761.83,759.46,758.79,759.06,135.74,-942.38,371.58,-0.93,3.42,-0.53,-32.65
31255,756.20,761.82,759.48,758.80,759.08,125.49,-935.55,381.84,-0.34,3.69,1.02,-32.21
31289,756.16,761.86,759.54,758.79,759.09,138.67,-938.96,371.58,-0.98,3.24,0.66,-30.82
31323,756.18,761.81,759.52,758.84,759.09,144.04,-949.71,365.72,0.43,-0.98,1.23,-31.76
31359,756.19,761.81,759.49,758.82,759.08,130.86,-942.38,367.68,0.42,-0.78,2.49,-32.26
31393,756.30,761.86,759.53,758.88,759.14,117.19,-934.57,376.95,-1.55,2.36,0.23,-32.91
31427,756.23,761.82,759.43,758.90,759.10,121.09,-933.11,372.56,-0.45,3.31,1.08,-35.06
31461,756.28,761.74,759.50,758.86,759.10,133.79,-934.08,361.82,1.46,1.79,-3.02,-32.37
31495,756.21,761.80,759.47,758.90,759.10,125.00,-937.50,355.96,-0.18,-1.24,-0.08,-33.86
31530,756.24,761.84,759.55,758.85,759.12,140.62,-948.73,365.23,0.91,1.79,-1.05,-31.63
31564,756.21,761.80,759.52,758.82,759.09,129.88,-958.50,377.44,-0.51,1.25,1.30,-31.43
31598,756.22,761.81,759.46,758.83,759.08,135.74,-937.50,368.16,1.58,1.63,3.24,-33.06
31632,756.27,761.85,759.53,758.82,759.12,131.84,-945.31,361.82,-1.53,3.28,-0.44,-31.99
31666,756.29,761.79,759.56,758.79,759.11,139.16,-933.59,357.42,0.39,0.97,3.60,-30.31
31700,756.29,761.91,759.58,758.81,759.15,129.88,-944.34,364.26,0.39,-0.66,1.11,-30.86
31736,756.25,761.79,759.51,758.78,759.08,125.98,-940.43,364.75,-1.36,0.11,0.91,-31.18
31772,756.20,761.84,759.54,758.75,759.08,131.35,-952.64,367.19,3.56,-2.00,2.49,-30.34
31806,756.29,761.85,759.43,758.81,759.09,122.07,-938.96,376.95,0.69,2.96,1.07,-34.31
31840,756.32,761.80,759.55,758.86,759.13,124.02,-931.15,365.23,0.83,-0.05,-0.58,-31.68
31873,756.23,761.83,759.53,758.91,759.13,138.67,-936.52,368.65,0.36,2.77,0.51,-32.98
31907,756.27,761.89,759.52,758.86,759.14,126.95,-949.71,368.16,-0.28,3.29,3.57,-33.13
31940,756.26,761.83,759.54,758.83,759.12,125.98,-937.50,366.70,1.94,1.03,-0.18,-31.53
31974,756.27,761.84,759.51,758.83,759.11,129.39,-936.52,383.30,0.94,0.76,0.95,-32.37
32008,756.27,761.78,759.50,758.84,759.10,130.37,-947.27,358.89,0.86,0.44,1.27,-32.16
32042,756.35,761.80,759.58,758.85,759.14,128.91,-932.13,354.49,-0.44,1.81,0.64,-30.88
32076,756.31,761.81,759.49,758.86,759.12,130.37,-943.85,360.35,1.02,3.44,1.56,-33.25
32110,756.30,761.84,759.57,758.89,759.15,129.39,-948.24,364.75,-0.21,3.75,1.21,-31.98
32143,756.25,761.91,759.49,758.84,759.12,128.42,-944.82,367.19,1.26,2.57,1.39,-33.45
32183,756.31,761.87,759.59,758.86,759.16,128.91,-937.50,368.16,-0.25,1.50,1.20,-31.34
32216,756.32,761.94,759.51,758.88,759.16,125.00,-944.82,363.77,-1.01,2.73,0.42,-33.98
32250,756.32,761.85,759.56,758.93,759.17,118.65,-945.80,370.12,-0.21,2.47,0.50,-33.01
32284,756.23,761.87,759.59,758.87,759.14,120.12,-942.38,370.12,-1.49,1.73,-2.14,-31.07
32319,756.30,761.92,759.46,758.86,759.14,139.16,-938.48,367.19,-0.68,0.61,-1.33,-34.76
32353,756.33,761.84,759.54,758.93,759.16,139.16,-949.22,366.70,0.50,3.12,1.71,-33.35
32387,756.37,761.91,759.51,758.85,759.16,132.81,-935.55,362.79,-0.37,1.27,0.31,-33.61
32421,756.29,761.88,759.54,758.77,759.12,127.44,-931.64,351.56,2.08,2.98,1.64,-31.09
32455,756.31,761.87,759.57,758.83,759.14,115.72,-935.55,364.26,0.72,1.72,0.64,-31.44
32489,756.23,761.86,759.52,758.89,759.13,133.30,-947.75,370.12,0.34,-0.85,1.84,-33.02
32523,756.34,761.87,759.50,758.84,759.14,121.09,-935.06,362.79,-0.40,0.02,1.24,-33.36
32558,756.39,761.88,759.56,758.88,759.18,135.25,-943.36,375.00,0.35,3.54,1.24,-32.59
32594,756.35,761.86,759.58,758.80,759.15,129.39,-927.73,360.84,0.92,0.06,0.89,-30.64
32628,756.32,761.82,759.58,758.84,759.14,126.95,-930.66,359.86,0.89,-0.49,-0.83,-31.01
32662,756.31,761.88,759.55,758.88,759.16,126.46,-933.59,362.79,-0.30,0.74,0.27,-32.65
32698,756.33,761.82,759.56,758.90,759.15,125.00,-948.24,366.21,0.71,1.68,-0.26,-32.30
32732,756.36,761.82,759.55,758.86,759.15,124.02,-941.89,368.16,0.72,0.27,-1.44,-31.88
32766,756.36,761.82,759.54,758.81,759.13,133.30,-945.31,369.63,0.63,2.66,0.53,-31.44
32800,756.37,761.90,759.58,758.83,759.17,135.25,-922.36,358.89,1.18,3.33,1.76,-31.46
32834,756.32,761.88,759.53,758.89,759.15,125.49,-947.27,350.59,1.16,2.65,-0.94,-33.30
32868,756.34,761.84,759.57,758.88,759.16,129.39,-938.48,354.00,-0.62,2.59,2.48,-31.89
32903,756.34,761.87,759.50,758.81,759.13,147.46,-938.48,364.26,-0.63,1.51,1.98,-32.82
32937,756.36,761.85,759.56,758.86,759.16,126.95,-940.92,366.70,0.62,0.22,-0.70,-32.09
32971,756.37,761.79,759.50,758.84,759.12,136.23,-925.29,368.16,-0.95,-0.08,1.09,-32.68
33007,756.34,761.95,759.56,758.85,759.17,132.32,-949.22,363.28,-1.20,1.22,0.50,-32.62
33041,756.36,761.87,759.51,758.81,759.13,138.67,-940.92,360.84,2.67,-1.06,-0.81,-32.59
33075,756.36,761.90,759.55,758.83,759.16,137.70,-940.92,366.21,2.52,1.81,-0.51,-32.12
33109,756.39,761.89,759.52,758.84,759.16,145.51,-945.31,369.14,1.47,0.06,-3.34,-33.15
33143,756.30,761.82,759.49,758.86,759.12,129.39,-938.48,369.14,-1.50,1.66,-0.53,-33.37
33178,756.30,761.82,759.55,758.84,759.13,124.51,-940.92,373.05,1.85,1.73,1.60,-31.52
33212,756.36,761.79,759.56,758.86,759.14,117.68,-946.78,362.30,0.34,1.99,1.82,-31.47
33246,756.35,761.84,759.56,758.88,759.16,133.79,-932.13,377.93,-2.48,2.21,0.84,-32.12
33280,756.37,761.89,759.55,758.79,759.15,135.74,-950.68,369.14,-3.08,1.68,0.21,-31.45
33314,756.35,761.88,759.57,758.87,759.17,133.79,-938.48,354.00,-1.70,-0.37,-0.02,-32.03
33348,756.31,761.92,759.58,758.85,759.16,121.09,-942.38,356.45,-0.14,1.05,-0.69,-31.67
33383,756.32,761.78,759.53,758.82,759.12,140.62,-948.24,358.89,1.48,1.12,0.17,-31.63
33419,756.32,761.80,759.59,758.90,759.15,127.93,-930.66,373.54,3.15,2.18,3.07,-31.26
33452,756.33,761.88,759.52,758.83,759.14,142.09,-944.34,357.42,0.34,2.35,1.42,-32.70
33486,756.33,761.87,759.48,758.85,759.13,141.11,-934.08,362.30,1.27,1.05,0.63,-33.80
33519,756.30,761.89,759.58,758.86,759.16,127.93,-938.48,354.49,-0.88,0.31,0.15,-31.50
33553,756.34,761.85,759.50,758.90,759.15,137.21,-947.75,363.28,1.09,-0.27,2.76,-33.83
33587,756.34,761.94,759.55,758.88,759.18,122.56,-951.17,362.30,2.56,-2.07,1.35,-33.20
33620,756.41,761.81,759.59,758.84,759.16,123.54,-941.41,362.79,1.40,2.44,-0.18,-30.74
33656,756.38,761.87,759.58,758.86,759.17,144.04,-947.27,363.28,1.65,1.37,3.81,-31.66
33690,756.31,761.83,759.60,758.78,759.13,139.16,-945.80,351.07,0.34,1.31,-0.45,-29.40
33724,756.36,761.90,759.53,758.80,759.15,128.91,-946.29,367.68,0.29,0.00,-1.57,-32.44
33757,756.35,761.91,759.57,758.91,759.18,136.23,-936.52,365.72,0.21,1.60,0.27,-32.76
33793,756.35,761.95,759.58,758.91,759.20,128.42,-935.06,361.33,0.24,-0.11,0.94,-33.00
33827,756.37,761.85,759.56,758.85,759.16,137.21,-936.52,375.98,-1.44,-1.34,-1.27,-31.93
33861,756.32,761.78,759.53,758.89,759.13,134.28,-942.87,370.12,-0.87,2.39,0.63,-32.27
33895,756.34,761.81,759.57,758.87,759.15,114.75,-938.48,363.28,0.13,2.30,-2.10,-31.60
33929,756.25,761.79,759.53,758.90,759.12,134.28,-946.78,362.79,0.56,1.74,-0.66,-32.39
33963,756.44,761.83,759.54,758.85,759.17,110.84,-953.12,383.30,1.74,2.38,-1.49,-32.49
33997,756.42,761.80,759.52,758.94,759.17,114.75,-938.48,362.30,1.86,4.14,-0.14,-33.83
34032,756.38,761.84,759.50,758.87,759.15,138.18,-945.80,362.30,0.89,1.65,-0.57,-33.58
34066,756.39,761.84,759.56,758.91,759.18,125.00,-936.04,356.93,1.50,3.38,-0.19,-32.62
34100,756.43,761.87,759.56,758.97,759.21,127.93,-944.82,361.33,-0.15,2.98,-1.10,-33.94
34134,756.41,761.86,759.52,758.87,759.16,128.91,-955.08,367.68,0.36,0.10,-0.47,-33.41
34168,756.39,761.81,759.54,758.95,759.17,141.11,-941.41,358.89,1.22,1.16,1.56,-33.44
34204,756.43,761.85,759.53,758.96,759.19,136.72,-932.62,359.86,-0.03,0.85,-1.85,-34.22
34239,756.41,761.87,759.54,758.94,759.19,143.07,-945.31,377.44,0.45,0.52,2.22,-33.80
34273,756.36,761.81,759.56,758.89,759.16,125.49,-946.29,360.84,0.82,1.63,1.54,-31.96
34307,756.38,761.87,759.50,758.87,759.16,135.74,-930.66,360.35,0.63,0.98,-0.11,-33.81
34341,756.39,761.85,759.56,758.85,759.16,120.12,-942.87,365.23,-1.36,2.81,-0.47,-31.95
34375,756.41,761.88,759.53,758.78,759.15,144.04,-940.43,369.63,0.37,3.27,2.89,-32.01
34409,756.35,761.89,759.49,758.87,759.15,127.44,-944.82,359.37,0.38,1.46,-1.25,-34.06
34443,756.39,761.81,759.49,758.84,759.13,127.93,-946.29,375.00,-0.45,1.84,-0.04,-33.15
34478,756.39,761.83,759.57,758.90,759.17,133.30,-941.89,373.05,-0.54,2.16,1.06,-32.15
34512,756.45,761.92,759.53,758.82,759.18,140.62,-944.34,363.77,0.03,3.11,2.47,-33.10
34546,756.35,761.86,759.57,758.84,759.15,135.74,-927.73,367.68,1.12,0.18,2.29,-31.39
34580,756.33,761.85,759.54,758.98,759.17,126.46,-942.38,373.54,-0.33,2.37,0.11,-34.22
34618,756.33,761.83,759.46,758.86,759.12,127.44,-945.31,366.70,-1.14,3.03,1.68,-34.29
34652,756.40,761.85,759.51,758.85,759.15,136.23,-943.85,361.82,2.08,0.93,-0.33,-33.12
34686,756.38,761.86,759.54,758.77,759.14,134.77,-937.01,371.58,-0.70,0.27,1.30,-31.40
34720,756.37,761.82,759.46,758.87,759.13,129.39,-950.20,363.28,-2.88,2.56,2.21,-34.41
34754,756.39,761.85,759.51,758.93,759.17,129.88,-937.99,378.91,-0.35,2.59,1.35,-34.36
34788,756.36,761.84,759.52,758.84,759.14,123.54,-941.41,370.61,-1.38,1.36,2.52,-32.53
34822,756.39,761.81,759.52,758.90,759.15,123.54,-935.06,361.82,1.38,2.80,1.77,-33.38
34857,756.34,761.92,759.53,758.87,759.17,131.84,-940.43,366.21,0.83,0.20,-0.83,-33.24
34891,756.45,761.86,759.52,758.87,759.17,129.39,-931.64,367.68,0.82,2.71,2.73,-33.49
34925,756.34,761.86,759.49,758.84,759.13,129.39,-937.50,364.75,0.02,2.23,-0.12,-33.50
34959,756.35,761.88,759.55,758.84,759.15,133.79,-947.27,375.00,-0.95,4.72,0.24,-32.19
34993,756.37,761.82,759.50,758.81,759.12,125.00,-945.80,367.68,-1.59,1.70,-1.45,-32.36
35029,756.39,761.78,759.52,758.91,759.15,129.39,-940.92,376.95,0.63,1.37,1.04,-33.30
35063,756.45,761.83,759.55,758.88,759.18,136.23,-939.45,361.33,0.56,2.41,-0.37,-32.62
35096,756.31,761.79,759.57,758.91,759.15,128.91,-934.57,364.75,0.24,3.00,1.48,-31.85
35130,756.38,761.86,759.59,758.85,759.17,132.32,-942.87,377.93,1.51,0.51,2.07,-31.23
35164,756.35,761.90,759.51,758.89,759.16,122.07,-931.64,365.72,0.57,0.92,3.36,-33.88
35197,756.38,761.86,759.52,758.96,759.18,139.16,-937.99,370.12,1.76,1.49,0.35,-34.55
35231,756.39,761.83,759.55,758.92,759.17,124.51,-933.11,358.89,0.73,1.22,-1.24,-32.91
35265,756.37,761.89,759.53,758.91,759.18,125.49,-936.04,355.96,2.44,0.69,0.83,-33.87
35299,756.32,761.79,759.55,758.87,759.13,137.70,-939.45,360.35,2.22,0.71,2.19,-31.70
35333,756.30,761.86,759.52,758.89,759.14,133.79,-947.27,359.37,2.19,2.39,-0.48,-33.38
35367,756.31,761.77,759.57,758.86,759.13,131.35,-921.87,378.91,2.98,1.26,1.54,-30.81
35400,756.32,761.85,759.56,758.89,759.16,139.65,-935.06,372.56,0.37,2.18,-1.14,-32.27
35436,756.32,761.82,759.57,758.83,759.14,132.81,-930.66,377.93,0.05,2.57,2.13,-30.80
35470,756.22,761.78,759.50,758.98,759.12,136.23,-936.04,374.02,-0.93,0.35,0.89,-34.12
35504,756.24,761.70,759.51,758.87,759.08,118.65,-939.94,372.56,-0.25,2.26,1.71,-31.79
35538,756.26,761.84,759.57,758.94,759.15,127.44,-937.50,363.28,-2.71,1.18,0.84,-32.66
35574,756.26,761.78,759.52,758.83,759.10,123.05,-937.50,378.91,0.24,1.15,0.47,-31.74
35608,756.24,761.76,759.53,758.84,759.09,129.88,-933.11,365.72,0.40,2.48,1.00,-31.38
35642,756.27,761.78,759.51,758.89,759.12,120.12,-940.92,366.21,0.98,0.81,-2.21,-32.74
35676,756.25,761.83,759.51,758.84,759.11,132.32,-958.50,379.88,1.44,1.43,0.34,-32.45
35710,756.35,761.79,759.55,758.92,759.15,131.84,-937.99,361.33,0.73,1.90,0.58,-32.54
35745,756.26,761.81,759.49,758.85,759.10,133.30,-937.99,370.12,-0.91,1.40,1.93,-32.97
35779,756.23,761.80,759.52,758.80,759.09,122.07,-947.75,362.79,-1.61,-0.40,0.81,-31.16
35813,756.28,761.83,759.51,758.88,759.12,136.72,-943.36,383.79,0.24,-0.44,0.31,-33.00
35849,756.27,761.81,759.55,758.90,759.14,134.28,-949.22,370.12,1.99,1.87,0.75,-32.10
35883,756.34,761.84,759.54,758.91,759.16,123.05,-942.38,369.14,1.21,2.09,-2.15,-33.04
35917,756.27,761.78,759.57,758.88,759.12,126.95,-947.27,377.93,0.67,0.24,-2.09,-31.23
35951,756.28,761.82,759.59,758.86,759.14,131.35,-944.82,374.51,2.03,1.39,-0.82,-30.68
35986,756.33,761.92,759.55,758.92,759.18,129.39,-938.96,361.82,1.98,1.05,1.48,-33.55
36020,756.35,761.82,759.45,758.86,759.12,125.00,-943.36,360.84,0.56,1.07,-0.18,-34.41
36054,756.33,761.86,759.54,758.92,759.16,140.14,-934.08,375.49,1.79,0.09,0.66,-33.26
36088,756.35,761.86,759.54,758.97,759.18,126.95,-924.80,375.00,0.82,-0.63,0.82,-34.22
36122,756.36,761.86,759.52,758.91,759.16,139.65,-937.01,365.72,1.60,4.56,-0.30,-33.79
36156,756.39,761.90,759.53,758.97,759.20,124.02,-931.15,375.00,0.03,4.38,0.82,-34.86
36190,756.33,761.88,759.56,758.90,759.17,131.84,-935.55,360.84,0.76,0.05,-2.32,-32.60
36225,756.34,761.83,759.51,758.95,759.16,138.67,-938.48,375.98,1.05,0.58,1.27,-34.42
36261,756.37,761.84,759.54,758.87,759.15,119.14,-936.04,376.95,0.37,0.53,-0.05,-32.60
36295,756.35,761.87,759.55,758.93,759.17,143.55,-935.55,377.44,0.01,3.05,-1.90,-33.26
36329,756.36,761.82,759.47,758.87,759.13,129.88,-944.34,368.16,0.17,2.04,0.93,-34.09
36363,756.35,761.80,759.58,758.89,759.15,130.37,-932.13,373.54,3.81,1.95,0.23,-31.58
36397,756.31,761.80,759.54,758.89,759.14,125.49,-947.27,368.65,0.63,2.03,-0.55,-32.35
36431,756.33,761.86,759.54,758.98,759.18,145.02,-932.62,373.05,0.79,3.76,3.46,-34.17
36466,756.32,761.92,759.57,758.97,759.20,133.30,-934.08,382.81,1.06,-0.84,0.37,-33.86
36500,756.35,761.82,759.56,758.99,759.18,123.05,-936.52,375.49,-0.02,3.04,-1.29,-33.49
36535,756.33,761.92,759.56,758.87,759.17,136.23,-932.13,370.61,1.08,0.96,0.70,-32.55
36569,756.29,761.87,759.59,758.87,759.16,130.37,-937.01,370.61,-0.60,3.24,0.00,-31.30
36604,756.26,761.79,759.54,758.91,759.12,155.27,-938.48,381.35,1.96,0.40,-1.61,-32.42
36638,756.26,761.90,759.62,759.01,759.20,130.37,-936.52,377.44,0.66,2.50,1.69,-32.65
36677,756.37,761.82,759.54,759.01,759.19,119.63,-939.94,366.21,0.56,1.33,-0.16,-34.57
36711,756.33,761.84,759.54,758.96,759.17,136.72,-937.99,374.02,0.32,0.57,-0.39,-33.74
36745,756.36,761.84,759.53,758.98,759.18,130.86,-947.27,372.07,0.87,2.95,-1.48,-34.47
36778,756.34,761.83,759.51,758.96,759.16,129.88,-944.82,369.14,0.44,0.80,-1.07,-34.40
36812,756.33,761.87,759.51,759.04,759.19,132.81,-934.08,372.56,0.25,2.67,1.42,-36.11
36845,756.36,761.86,759.57,758.95,759.19,130.86,-935.55,363.77,1.34,-0.62,2.63,-33.18
36880,756.23,761.83,759.52,758.90,759.12,129.39,-932.13,372.07,-1.60,0.51,2.18,-32.81
36914,756.39,761.77,759.58,758.97,759.18,142.58,-933.11,380.86,0.32,2.34,-2.41,-32.61
36947,756.35,761.80,759.57,758.97,759.17,139.65,-937.01,392.09,1.21,-0.25,0.79,-33.00
36981,756.35,761.85,759.53,758.87,759.15,135.25,-941.41,380.37,-0.06,2.00,2.15,-32.90
37015,756.32,761.78,759.56,758.94,759.15,132.81,-935.55,367.19,0.22,-0.86,0.70,-32.43
37051,756.36,761.87,759.57,758.89,759.17,142.09,-947.75,366.21,-1.68,1.42,0.66,-32.43
37085,756.28,761.80,759.54,758.91,759.13,129.88,-928.22,361.82,-0.04,2.81,1.37,-32.45
37119,756.34,761.91,759.58,759.00,759.21,136.72,-937.99,372.07,1.18,2.18,2.35,-33.93
37153,756.31,761.85,759.56,759.01,759.18,117.19,-946.78,378.91,0.62,2.61,1.60,-33.91
37187,756.31,761.78,759.58,758.95,759.16,125.98,-942.38,379.39,0.61,3.41,0.37,-32.10
37221,756.31,761.80,759.57,758.98,759.16,130.86,-940.43,379.39,1.32,3.24,-0.06,-32.80
37255,756.34,761.78,759.51,758.96,759.15,135.74,-937.99,375.49,2.54,1.56,-0.60,-34.29
37290,756.39,761.92,759.55,758.98,759.21,137.21,-937.01,387.70,0.28,0.66,-0.23,-34.75
37324,756.43,761.81,759.57,758.96,759.19,126.46,-931.64,380.86,-0.27,1.07,0.44,-33.09
37358,756.37,761.81,759.56,759.02,759.19,148.44,-930.18,366.21,-1.08,1.34,-0.09,-34.03
37392,756.34,761.85,759.55,759.02,759.19,137.70,-929.20,373.54,0.51,2.38,-0.05,-34.66
37426,756.40,761.86,759.55,758.99,759.20,139.16,-931.64,369.14,-0.41,0.51,-1.47,-34.36
37462,756.33,761.81,759.58,759.00,759.18,130.86,-932.62,358.40,1.46,0.08,-1.21,-33.22
37498,756.32,761.87,759.60,758.99,759.20,134.28,-943.36,375.49,0.74,0.80,0.65,-32.87
37532,756.36,761.85,759.51,758.94,759.17,133.79,-939.94,364.75,-0.69,1.12,0.39,-34.46
37566,756.40,761.80,759.60,758.96,759.19,127.93,-935.55,372.07,3.22,1.52,-0.64,-32.36
37600,756.42,761.85,759.57,759.00,759.21,127.93,-931.64,375.49,0.75,1.31,-0.92,-34.08
37634,756.35,761.82,759.50,758.99,759.16,137.70,-933.11,372.07,0.36,2.72,-1.00,-35.16
37668,756.32,761.89,759.48,759.02,759.18,138.67,-925.29,375.00,2.01,0.87,0.42,-36.58
37703,756.39,761.80,759.49,758.97,759.16,135.74,-940.92,374.02,-0.98,-0.08,0.09,-34.95
37737,756.41,761.87,759.53,759.01,759.20,143.07,-932.13,379.88,0.09,2.09,0.77,-35.24
37771,756.37,761.85,759.54,759.05,759.20,134.77,-942.87,380.37,1.42,-0.22,1.04,-35.35
37805,756.37,761.87,759.59,759.05,759.22,126.46,-937.99,380.86,1.08,0.79,2.75,-34.25
37839,756.41,761.88,759.66,758.95,759.23,135.74,-935.06,361.33,0.72,4.18,-0.92,-31.18
37875,756.38,761.83,759.56,759.00,759.20,139.16,-944.34,378.91,-0.13,0.58,0.24,-33.91
37909,756.44,761.79,759.52,758.98,759.18,125.98,-934.57,374.51,0.68,3.79,0.35,-34.58
37943,756.39,761.85,759.55,758.96,759.19,115.72,-947.27,371.58,1.78,1.73,0.63,-33.85
37978,756.38,761.87,759.61,758.95,759.20,130.86,-942.87,375.98,-1.12,0.76,1.50,-32.15
38012,756.36,761.90,759.57,758.99,759.20,128.91,-938.48,366.21,0.20,2.54,0.34,-34.06
38046,756.35,761.92,759.58,758.96,759.20,131.84,-937.50,385.25,-0.28,0.30,-0.47,-33.41
38080,756.34,761.91,759.56,758.93,759.18,140.14,-954.10,380.86,0.56,3.18,-1.01,-33.31
38114,756.36,761.93,759.51,759.05,759.21,125.49,-934.08,362.79,0.66,0.08,1.61,-36.70
38148,756.43,761.98,759.58,758.94,759.23,130.37,-936.04,368.65,2.61,-2.01,2.29,-33.76
38183,756.41,761.90,759.53,758.92,759.19,126.95,-953.61,385.74,0.59,3.69,0.83,-34.21
38217,756.34,761.96,759.53,758.90,759.18,129.39,-942.38,369.14,0.72,2.92,-0.52,-33.94
38251,756.48,761.95,759.60,758.96,759.24,133.30,-929.69,373.54,-0.85,1.98,1.16,-33.60
38287,756.36,761.88,759.57,758.91,759.18,154.79,-945.80,373.05,-0.95,1.09,1.50,-32.62
38320,756.38,761.83,759.58,758.90,759.17,135.25,-938.48,369.63,0.55,-0.13,-0.24,-31.99
38354,756.35,761.87,759.55,758.97,759.18,125.49,-936.52,374.02,-0.79,0.18,-0.68,-33.80
38388,756.39,761.89,759.54,758.91,759.18,128.91,-924.80,373.54,1.29,0.08,1.98,-33.65
38421,756.42,761.88,759.53,758.90,759.18,120.61,-935.55,373.05,1.25,0.53,3.21,-33.67
38456,756.38,761.89,759.55,758.89,759.18,126.95,-918.46,368.65,1.34,0.63,1.81,-33.00
38490,756.39,761.86,759.54,758.92,759.18,118.65,-939.94,373.05,0.10,0.20,1.00,-33.52
38524,756.29,761.84,759.55,759.00,759.17,128.91,-936.52,373.54,0.71,0.82,1.94,-33.82
38558,756.37,761.83,759.56,758.90,759.17,128.42,-929.20,374.02,3.36,1.20,2.89,-32.37
38592,756.37,761.82,759.55,758.96,759.18,131.84,-940.92,374.02,1.83,0.08,0.11,-33.64
38626,756.42,761.91,759.50,758.93,759.19,128.91,-943.36,376.46,-0.35,-0.48,0.12,-35.12
38660,756.39,761.84,759.59,758.95,759.19,136.23,-933.59,371.09,1.89,1.47,1.41,-32.44
38695,756.42,761.85,759.58,758.97,759.20,140.62,-940.92,375.00,0.23,0.25,-1.42,-33.30
38729,756.41,761.90,759.56,758.96,759.21,126.95,-929.20,387.70,-0.37,-0.26,-0.85,-34.03
38763,756.43,761.99,759.56,759.00,759.25,134.28,-931.15,378.42,4.03,0.46,-0.73,-35.54
38797,756.54,761.87,759.56,759.00,759.24,136.23,-938.96,381.84,1.41,0.18,0.44,-34.77
38832,756.47,761.89,759.53,758.95,759.21,131.35,-946.78,374.02,-0.93,1.27,-1.42,-34.86
38866,756.56,761.93,759.59,758.97,759.26,136.23,-928.22,374.51,0.97,2.28,-1.74,-34.06
38900,756.49,761.96,759.60,758.94,759.25,122.07,-923.34,370.12,-2.63,0.26,-1.26,-33.53
38934,756.50,761.93,759.60,758.89,759.23,126.95,-940.92,381.84,0.17,-0.61,-0.87,-32.68
38968,756.50,761.92,759.59,758.93,759.23,131.35,-939.94,375.98,-1.19,3.85,-0.19,-33.29
39002,756.49,761.88,759.57,758.92,759.22,124.02,-934.08,371.09,-0.47,2.31,-1.63,-33.16
39036,756.50,761.91,759.61,758.95,759.24,133.79,-925.78,377.44,-0.12,1.04,0.41,-33.02
39071,756.47,761.88,759.54,758.94,759.21,130.86,-939.45,380.86,-0.90,2.18,2.82,-34.39
39107,756.50,761.87,759.53,758.88,759.19,137.21,-931.15,384.28,0.25,1.24,1.18,-33.56
39141,756.54,761.95,759.54,758.97,759.25,130.86,-933.11,375.49,0.36,1.67,-0.70,-35.56
39175,756.45,761.91,759.63,758.91,759.22,132.32,-933.11,380.37,-0.61,0.35,-1.07,-31.85
39209,756.40,761.90,759.57,758.96,759.21,129.88,-932.13,376.46,0.97,1.95,1.89,-33.79
39243,756.49,761.94,759.62,759.02,759.27,133.79,-939.94,372.07,1.31,2.28,1.47,-34.05
39277,756.47,761.89,759.58,758.97,759.23,121.58,-945.80,390.14,0.30,0.25,0.24,-33.82
39312,756.51,761.84,759.59,758.95,759.22,123.05,-947.75,374.51,1.76,0.08,-0.34,-32.83
39346,756.47,761.89,759.63,758.94,759.23,135.74,-931.64,364.26,-0.41,0.73,1.22,-32.12
39380,756.49,761.89,759.65,758.87,759.23,126.95,-929.69,364.75,1.63,0.37,1.50,-30.77
39416,756.49,761.86,759.62,758.96,759.23,117.19,-948.73,375.49,0.24,1.85,0.14,-32.53
39450,756.47,761.93,759.56,758.92,759.22,122.56,-933.59,376.95,-1.24,2.64,-1.91,-33.74
39484,756.47,761.94,759.62,758.93,759.24,123.54,-943.85,384.28,-0.15,1.73,1.58,-32.61
39520,756.54,761.88,759.60,758.90,759.23,129.88,-936.52,388.67,4.50,-0.52,0.52,-32.45
39554,756.53,761.97,759.57,758.97,759.26,131.35,-936.04,373.54,1.79,0.41,-2.34,-34.86
39588,756.61,761.92,759.59,758.98,759.28,120.12,-946.29,367.19,-0.24,2.76,0.85,-34.42
39622,756.56,762.03,759.60,758.93,759.28,123.54,-928.71,379.39,0.78,0.57,-0.02,-34.25
39656,756.54,762.02,759.55,759.00,759.28,131.35,-928.71,368.16,2.41,2.82,1.85,-36.28
39691,756.52,761.99,759.59,759.01,759.28,121.58,-941.41,368.65,0.99,3.64,-0.07,-35.01
39725,756.64,761.97,759.60,759.02,759.31,127.44,-936.52,383.30,-0.20,0.40,0.65,-35.18
39759,756.58,761.95,759.63,758.98,759.28,131.84,-934.57,369.63,1.69,1.47,-1.37,-33.56
39793,756.51,761.98,759.64,758.97,759.28,125.00,-927.25,391.11,0.89,1.58,0.38,-33.30
39827,756.60,761.99,759.57,758.97,759.28,125.98,-930.66,397.95,0.05,0.60,-0.09,-35.42
39861,756.64,761.97,759.62,758.95,759.30,130.37,-934.08,379.88,1.53,3.68,2.12,-33.68
39895,756.54,761.92,759.60,758.92,759.25,130.86,-936.04,381.84,-1.19,2.56,1.27,-33.05
39931,756.58,762.00,759.62,758.99,759.30,133.30,-933.59,374.51,1.08,-1.59,-1.47,-34.30
39965,756.61,762.02,759.54,758.99,759.29,133.79,-931.64,374.51,-0.89,3.59,1.68,-36.51
39998,756.56,762.04,759.54,759.00,759.29,147.95,-919.92,375.49,1.38,2.85,-0.46,-36.63
40032,756.64,761.97,759.56,759.05,759.30,138.67,-940.92,379.88,1.85,1.45,-0.18,-36.73
40065,756.67,762.02,759.61,758.97,759.32,123.05,-928.22,376.95,0.86,-0.76,-0.13,-34.75
40099,756.69,762.01,759.67,759.03,759.35,130.86,-932.13,376.95,1.67,0.47,-0.31,-34.12
40133,756.67,761.94,759.62,759.02,759.31,137.70,-928.22,388.67,2.49,2.34,0.46,-34.53
40167,756.74,761.96,759.62,759.05,759.34,136.23,-933.59,380.37,0.15,1.32,-0.74,-35.51
40201,756.78,762.08,759.66,759.12,759.41,124.02,-939.45,388.18,1.52,0.75,-1.01,-36.71
40235,756.76,762.05,759.62,759.11,759.39,138.67,-925.29,381.84,1.74,0.28,1.28,-37.04
40269,756.80,762.02,759.65,759.02,759.37,134.28,-937.01,394.04,-1.63,0.21,-0.18,-35.05
40304,756.81,762.14,759.54,759.08,759.39,125.98,-929.69,389.16,0.28,-0.09,0.50,-39.53
40338,756.88,762.06,759.62,759.05,759.40,133.30,-939.45,386.23,2.53,0.94,1.02,-36.87
40374,756.87,762.09,759.58,759.06,759.40,121.09,-934.08,398.93,2.63,0.01,0.98,-38.09
40408,756.81,762.09,759.63,759.00,759.38,125.49,-935.55,394.53,0.67,2.23,-0.79,-35.63
40442,756.87,762.16,759.65,759.03,759.43,132.81,-916.50,394.53,0.05,0.94,-0.72,-36.47
40476,756.85,762.08,759.62,759.09,759.41,135.25,-923.83,386.23,-2.42,0.11,0.07,-37.23
40510,756.87,762.07,759.63,759.11,759.42,127.93,-929.20,373.54,-1.19,0.15,0.34,-37.46
40545,756.86,762.05,759.60,759.05,759.39,134.28,-937.50,381.35,1.31,0.76,2.20,-37.11
40579,756.81,762.07,759.63,759.06,759.39,134.77,-937.99,396.48,-0.60,0.96,0.69,-36.61
40613,756.90,762.00,759.62,759.08,759.40,142.58,-928.71,385.74,-0.36,1.82,0.33,-36.78
40647,756.83,762.13,759.56,759.07,759.40,123.05,-930.66,391.11,-2.29,3.56,2.69,-38.81
40681,756.89,762.06,759.61,759.10,759.42,133.79,-934.08,381.84,-1.47,1.05,0.50,-37.64
40717,756.84,762.06,759.58,759.14,759.41,129.88,-929.20,392.09,-2.03,1.89,0.24,-38.87
40751,756.89,762.04,759.64,759.04,759.40,129.39,-928.22,380.37,-2.56,0.25,0.23,-35.95
40786,756.84,762.08,759.63,759.06,759.40,131.84,-934.08,385.74,-1.96,1.34,-1.82,-36.76
40820,756.88,762.08,759.61,758.92,759.37,132.32,-926.27,387.21,-2.21,0.29,0.75,-35.36
40854,756.84,762.00,759.52,758.92,759.32,135.25,-943.85,379.88,-0.16,1.83,2.01,-36.69
40888,756.81,762.00,759.60,758.93,759.33,134.28,-940.43,373.54,0.79,2.60,0.81,-34.85
40922,756.83,762.03,759.61,759.02,759.37,121.09,-939.94,380.86,-0.56,-0.47,-1.23,-36.19
40956,756.75,761.97,759.65,758.96,759.33,120.12,-930.18,387.70,-0.66,0.89,1.84,-33.63
40990,756.74,762.03,759.64,759.04,759.36,124.51,-930.66,386.72,-2.37,3.68,0.48,-35.33
41025,756.69,761.98,759.60,759.04,759.33,127.93,-935.55,377.44,0.21,2.11,1.70,-35.82
41059,756.71,761.90,759.66,758.96,759.31,119.63,-933.59,371.58,-2.47,-0.87,-0.26,-32.49
41093,756.69,761.94,759.54,758.94,759.28,125.98,-937.01,379.88,-1.35,-0.37,1.98,-35.49
41129,756.68,761.93,759.59,758.96,759.29,128.42,-946.78,372.07,-1.91,0.88,1.27,-34.52
41167,756.65,761.93,759.62,758.97,759.29,132.32,-936.04,372.56,-0.55,2.38,-0.14,-33.81
41201,756.67,761.95,759.56,758.98,759.29,143.55,-951.17,358.89,-1.29,0.63,0.71,-35.47
41235,756.64,761.84,759.62,758.89,759.25,128.42,-938.96,365.72,0.42,1.33,0.95,-31.83
41269,756.71,761.91,759.55,759.01,759.29,143.55,-945.31,363.28,2.69,0.28,1.93,-36.06
41303,756.62,761.86,759.62,758.93,759.26,130.37,-932.62,376.46,-0.34,1.76,-0.41,-32.48
41339,756.67,761.94,759.61,758.92,759.28,127.44,-936.52,379.39,-0.53,0.56,0.98,-33.37
41373,756.64,761.88,759.58,758.95,759.26,141.11,-920.90,368.16,-0.24,1.85,-1.46,-34.06
41407,756.68,761.89,759.64,758.96,759.29,135.74,-938.48,362.30,1.56,1.89,0.54,-32.94
41441,756.65,761.91,759.66,758.99,759.30,134.77,-934.08,373.05,-1.10,-0.41,0.15,-32.99
41476,756.55,761.81,759.58,759.02,759.24,129.88,-928.71,376.95,1.84,2.02,0.99,-34.25
41510,756.57,761.93,759.60,758.98,759.27,128.91,-936.04,373.54,0.77,2.37,0.95,-34.07
41545,756.63,761.89,759.56,758.99,759.27,131.35,-945.80,382.81,-0.29,1.80,2.52,-35.14
41579,756.62,761.95,759.59,759.05,759.30,127.93,-941.41,385.25,-1.59,1.95,1.89,-35.69
41612,756.72,761.93,759.52,758.94,759.28,139.16,-938.96,379.88,1.54,1.90,1.02,-36.05
41646,756.59,761.93,759.54,759.04,759.27,133.79,-926.27,369.14,0.18,-0.46,0.59,-36.59
41680,756.63,761.92,759.60,758.96,759.28,142.58,-937.99,377.93,0.48,1.47,-1.16,-33.83
41713,756.67,761.92,759.61,759.03,759.31,125.00,-918.95,367.68,-0.83,1.19,0.56,-34.83
41747,756.70,762.01,759.57,758.95,759.31,130.37,-942.87,365.23,1.40,-0.89,0.27,-35.56
41781,756.64,762.02,759.57,758.93,759.29,140.14,-939.94,384.28,-0.22,0.53,3.32,-35.24
41815,756.68,761.97,759.63,758.95,759.31,139.65,-942.38,368.16,-0.63,1.23,0.87,-33.60
41849,756.62,761.81,759.57,758.98,759.25,132.32,-934.57,378.91,-0.44,-0.11,0.77,-33.99
41883,756.67,761.92,759.58,758.96,759.28,141.11,-936.04,372.07,0.93,-0.84,1.67,-34.44
41917,756.65,761.98,759.61,759.03,759.32,137.70,-931.15,369.14,1.59,2.01,0.24,-35.09
41952,756.65,761.98,759.57,758.91,759.28,129.88,-931.15,363.28,1.98,1.11,1.40,-34.53
41987,756.66,761.92,759.58,759.01,759.29,137.70,-948.73,371.58,1.66,1.89,-0.48,-35.27
42021,756.64,761.93,759.61,758.95,759.28,130.37,-933.11,352.54,3.18,1.85,-1.34,-33.65
42055,756.70,761.89,759.56,759.03,759.30,137.70,-916.50,376.95,1.92,2.24,-1.66,-36.10
42089,756.70,761.94,759.58,759.06,759.32,131.84,-929.20,383.79,2.49,2.27,3.14,-36.16
42123,756.73,761.96,759.59,759.06,759.34,126.95,-928.71,370.12,4.31,-0.23,-1.16,-36.31
42157,756.68,762.01,759.65,759.06,759.35,130.86,-931.64,392.09,3.05,2.60,-0.15,-35.18
42191,756.70,762.00,759.59,759.06,759.34,114.26,-934.57,386.23,1.21,1.53,0.08,-36.63
42226,756.70,761.92,759.66,759.02,759.32,128.42,-937.01,393.07,-0.23,1.85,0.42,-33.55
42260,756.75,761.97,759.63,758.96,759.33,132.81,-932.62,382.32,1.44,1.18,1.05,-34.04
42295,756.69,761.97,759.62,759.08,759.34,130.37,-940.43,387.21,0.75,1.43,0.09,-35.85
42330,756.67,761.99,759.64,759.00,759.33,137.21,-944.34,378.42,0.77,3.71,-2.11,-34.26
42366,756.74,762.01,759.52,759.04,759.33,133.79,-929.69,378.42,0.97,1.34,0.15,-38.23
42400,756.74,761.96,759.57,759.07,759.34,120.12,-921.39,386.72,2.71,1.25,-1.69,-37.01
42434,756.66,761.97,759.60,758.98,759.30,133.30,-920.41,378.42,-1.23,4.02,-0.32,-34.74
42468,756.69,761.98,759.57,759.05,759.32,137.70,-927.73,377.93,-2.28,0.08,0.47,-36.77
42502,756.70,762.01,759.57,759.00,759.32,135.25,-934.08,386.72,-1.10,-1.69,-1.85,-36.12
42536,756.69,761.93,759.54,759.02,759.29,128.91,-943.85,373.05,0.29,1.08,2.69,-36.61
42571,756.62,761.90,759.61,758.97,759.28,129.88,-933.11,381.35,-0.03,0.60,1.74,-33.68
42605,756.62,761.93,759.59,759.06,759.30,136.72,-938.96,381.84,-1.15,0.46,-1.37,-35.56
42639,756.65,761.95,759.59,758.99,759.30,143.07,-945.31,402.34,0.30,1.08,0.43,-34.98
42673,756.63,761.90,759.64,759.04,759.30,135.25,-931.15,377.44,1.08,2.58,1.50,-34.02
42707,756.72,761.90,759.56,759.05,759.31,114.26,-930.66,377.93,-1.18,1.77,-0.88,-36.37
42741,756.63,761.90,759.64,758.99,759.29,131.84,-930.66,367.19,1.21,2.01,2.53,-33.11
42777,756.65,761.87,759.62,758.98,759.28,128.42,-931.15,375.00,-1.28,0.69,2.35,-33.52
42811,756.61,761.87,759.54,759.02,759.26,122.07,-932.62,384.28,1.38,0.66,-0.73,-35.75
42846,756.65,761.89,759.62,759.02,759.29,148.44,-940.92,372.56,-1.22,1.34,-0.44,-34.11
42880,756.59,761.97,759.63,758.99,759.30,120.12,-922.85,375.98,0.85,4.31,2.18,-33.91
42914,756.71,761.89,759.57,759.04,759.30,129.88,-931.64,377.44,1.91,1.88,-1.94,-36.05
42948,756.61,761.94,759.57,759.05,759.29,141.11,-932.62,372.07,0.76,0.53,-0.52,-36.14
42982,756.54,761.89,759.60,759.01,759.26,125.98,-928.22,371.58,0.52,1.47,1.01,-34.10
43016,756.60,761.92,759.58,758.97,759.27,126.95,-930.66,379.88,0.37,1.97,-3.18,-34.39
43050,756.67,761.85,759.53,758.97,759.26,128.91,-916.99,377.44,1.09,-0.92,0.42,-35.35
43085,756.63,761.93,759.68,759.02,759.31,125.00,-934.08,383.79,-1.06,0.75,0.08,-32.81
43119,756.61,761.96,759.63,758.96,759.29,127.93,-936.52,381.35,1.44,-0.88,0.18,-33.34
43152,756.55,761.93,759.59,759.02,759.27,148.44,-937.50,371.58,0.59,0.85,0.38,-34.67
43188,756.61,761.92,759.69,759.01,759.31,133.30,-933.59,378.91,0.80,3.98,2.05,-32.48
43221,756.59,761.86,759.60,759.03,759.27,126.95,-928.71,384.28,-0.50,1.48,-1.26,-34.51
43257,756.55,761.88,759.67,759.02,759.28,136.72,-932.13,383.79,0.56,2.21,-0.76,-32.60
43290,756.60,761.89,759.66,758.92,759.27,134.28,-931.15,384.77,0.02,2.31,0.07,-31.45
43324,756.56,761.89,759.62,759.04,759.28,124.51,-932.13,381.35,0.77,1.44,-3.05,-34.16
43358,756.59,761.92,759.64,758.95,759.28,134.28,-935.55,371.09,-0.59,2.11,0.71,-32.66
43392,756.50,761.87,759.64,758.98,759.25,133.79,-935.55,380.86,1.54,-0.11,0.03,-32.41
43426,756.57,762.04,759.57,759.00,759.29,126.95,-922.85,375.00,1.28,1.34,0.69,-35.82
43460,756.55,761.88,759.68,759.03,759.29,138.67,-940.43,379.39,-0.84,0.65,1.96,-32.40
43493,756.55,761.98,759.64,759.00,759.29,132.32,-943.85,385.74,-0.32,2.10,-0.83,-33.65
43527,756.64,761.86,759.57,758.99,759.27,130.86,-936.04,364.26,0.70,1.28,0.79,-34.69
43563,756.60,762.00,759.63,759.07,759.33,127.93,-937.01,384.28,0.76,2.08,1.25,-35.47
43597,756.62,762.00,759.63,759.09,759.34,136.23,-932.13,377.93,1.34,-0.67,-0.82,-35.65
43631,756.60,761.93,759.61,759.04,759.29,132.81,-938.96,367.68,1.25,0.72,3.07,-34.85
43665,756.63,761.92,759.54,759.00,759.27,138.18,-932.62,374.02,-1.52,1.76,-0.93,-36.02
43700,756.65,761.96,759.67,759.00,759.32,139.16,-931.15,376.95,-0.69,1.28,-0.24,-33.13
43734,756.66,761.95,759.62,759.06,759.32,126.46,-944.34,376.95,2.11,1.84,-1.53,-35.22
43768,756.51,761.92,759.67,759.02,759.28,137.70,-938.96,386.72,1.57,2.87,-0.33,-32.76
43802,756.63,761.94,759.64,759.01,759.31,134.77,-933.11,377.93,4.92,-0.75,-1.49,-33.86
43836,756.63,761.90,759.65,759.03,759.30,131.35,-928.71,359.86,1.53,2.98,0.35,-33.74
43870,756.64,761.85,759.75,759.13,759.34,142.58,-922.36,375.00,1.50,0.44,0.28,-32.28
43904,756.68,761.86,759.58,759.01,759.28,132.32,-936.04,383.30,-1.07,2.35,-0.47,-34.76
43939,756.72,761.99,759.61,759.11,759.36,135.25,-920.41,382.32,0.02,-0.21,0.56,-36.76
43975,756.67,761.99,759.64,759.07,759.34,131.35,-935.06,386.72,-1.15,1.31,3.27,-35.45
44009,756.67,761.97,759.70,759.07,759.35,125.49,-920.90,372.56,1.66,-1.18,0.99,-33.62
44043,756.67,761.92,759.60,758.98,759.29,126.46,-928.22,398.93,-0.58,2.49,-0.22,-34.24
44077,756.59,761.95,759.62,759.03,759.30,134.77,-938.48,380.86,2.21,0.19,2.27,-34.37
44111,756.52,762.01,759.67,759.05,759.31,127.93,-926.76,385.74,2.24,2.05,-0.89,-33.69
44145,756.53,761.90,759.61,759.12,759.29,132.32,-934.08,382.32,2.32,0.93,-0.33,-35.48
44180,756.59,761.96,759.65,759.09,759.32,132.32,-937.99,392.09,3.34,1.50,-0.66,-34.79
44215,756.53,762.03,759.64,759.11,759.33,119.63,-934.57,385.25,-0.42,4.51,-0.29,-35.59
44249,756.50,761.98,759.64,759.02,759.29,133.79,-920.90,392.09,2.58,3.02,0.04,-33.90
44284,756.53,761.98,759.76,759.07,759.33,135.25,-932.13,401.37,-1.04,2.99,0.63,-31.68
44318,756.49,762.00,759.73,759.05,759.32,143.55,-932.13,396.48,-3.75,1.98,-0.69,-32.29
44352,756.46,762.03,759.68,759.12,759.32,128.42,-936.04,386.23,-0.55,-0.76,0.72,-34.64
44388,756.49,762.02,759.71,759.04,759.31,135.74,-923.83,388.18,-1.14,-2.41,-1.81,-32.70
44422,756.53,762.00,759.71,759.00,759.31,127.44,-939.45,393.07,-0.17,3.14,1.55,-32.20
44456,756.58,762.04,759.67,759.05,759.33,134.28,-931.64,384.28,0.01,2.50,0.10,-34.37
44490,756.51,762.04,759.69,758.97,759.30,140.62,-938.96,383.79,2.01,2.53,1.47,-32.58
44525,756.55,761.94,759.67,759.11,759.32,134.77,-946.29,391.60,0.43,0.50,1.05,-34.40
44559,756.54,761.94,759.68,759.09,759.31,122.07,-912.11,387.70,0.64,2.88,0.59,-33.70
44593,756.50,761.92,759.70,759.02,759.29,134.28,-926.27,387.21,-0.75,0.71,-2.66,-31.89
44627,756.55,761.99,759.63,759.07,759.31,145.51,-933.11,396.97,0.26,0.91,2.34,-35.02
44661,756.60,761.89,759.66,759.04,759.30,135.25,-923.34,391.11,-1.42,2.81,2.56,-33.30
44695,756.56,761.94,759.60,759.04,759.28,137.70,-936.52,380.86,0.34,0.94,-1.02,-35.01
44729,756.62,761.92,759.61,759.08,759.31,125.49,-925.78,390.62,-1.57,-0.26,0.30,-35.36
44763,756.59,761.96,759.62,759.06,759.31,136.72,-927.25,384.77,-1.69,0.89,-0.24,-35.00
44798,756.64,762.00,759.61,759.09,759.33,138.18,-930.18,388.67,-1.31,2.85,1.76,-36.26
44832,756.60,762.01,759.62,759.02,759.31,137.70,-920.41,391.11,-1.35,2.03,1.67,-34.84
44866,756.63,761.99,759.62,759.01,759.31,134.28,-923.83,385.25,-0.38,-0.32,-1.01,-34.58
44899,756.63,762.04,759.65,759.09,759.35,134.77,-929.20,389.65,0.11,1.88,-1.73,-35.47
44933,756.64,761.99,759.65,759.08,759.34,137.21,-922.36,382.32,-1.32,1.66,-0.54,-34.89
44967,756.61,761.98,759.62,759.03,759.31,141.11,-929.20,386.72,-0.97,3.65,0.00,-34.93
45001,756.63,762.00,759.62,759.08,759.33,125.00,-938.48,382.32,-0.11,-0.45,-1.11,-36.00
45035,756.60,761.97,759.58,758.99,759.29,133.30,-921.87,376.95,-1.17,3.24,1.36,-35.00
45069,756.53,761.95,759.61,759.11,759.30,134.28,-936.52,375.00,-1.06,-0.95,1.46,-35.81
45103,756.64,761.99,759.66,759.07,759.34,138.18,-940.92,380.86,-1.10,1.99,-0.94,-34.80
45136,756.64,761.98,759.68,759.13,759.36,130.37,-927.73,388.18,0.35,1.29,1.14,-34.78
45172,756.64,762.00,759.62,759.08,759.34,129.88,-938.48,382.81,-0.32,1.79,1.24,-35.80
45208,756.64,761.99,759.65,759.01,759.32,132.81,-923.83,385.25,0.73,0.90,1.10,-33.98
45242,756.64,761.97,759.70,759.09,759.35,135.25,-936.52,392.58,0.85,-2.04,0.70,-33.75
45276,756.66,761.95,759.72,759.04,759.34,127.93,-933.11,388.67,-1.59,0.37,-1.28,-32.51
45310,756.63,761.90,759.65,759.11,759.33,138.18,-929.69,386.72,-0.63,1.35,-1.01,-34.87
45344,756.63,761.97,759.66,759.00,759.32,123.54,-935.06,375.98,-0.68,1.08,-1.03,-33.62
45379,756.59,762.00,759.70,759.02,759.33,120.12,-957.03,391.11,-0.31,1.44,-0.28,-32.90
45413,756.64,761.96,759.66,759.04,759.32,130.86,-938.48,367.68,1.51,-2.15,-0.08,-34.08
45447,756.61,762.02,759.69,759.03,759.34,141.11,-939.45,375.00,0.73,2.40,0.98,-33.54
45481,756.69,761.94,759.63,759.09,759.34,135.25,-937.01,389.65,0.92,1.71,0.73,-35.42
45515,756.66,761.99,759.66,759.02,759.33,128.91,-928.71,387.70,-0.37,2.52,1.30,-33.94
45549,756.67,762.01,759.59,759.11,759.34,135.25,-944.34,390.14,0.92,1.64,-0.73,-37.32
45583,756.72,761.99,759.65,759.04,759.35,134.77,-922.36,398.93,1.63,-1.30,-0.28,-34.64
45623,756.69,761.98,759.64,759.10,759.35,122.07,-934.08,375.00,0.00,4.18,-0.20,-35.64
45657,756.69,762.00,759.62,759.10,759.35,127.93,-934.08,387.21,-2.56,0.82,-0.95,-36.34
45691,756.68,761.95,759.62,759.05,759.33,111.82,-930.18,386.23,-2.89,0.51,1.00,-35.15
45726,756.74,761.98,759.65,759.06,759.36,123.05,-932.62,396.00,-0.95,2.21,-1.04,-34.98
45760,756.66,761.92,759.63,759.02,759.31,124.51,-937.50,379.39,-1.46,2.68,0.63,-34.27
45794,756.60,761.95,759.62,759.02,759.30,128.91,-928.71,385.74,-0.42,2.18,0.05,-34.36
45828,756.67,761.95,759.56,759.09,759.32,127.93,-923.83,370.61,0.83,2.69,-0.91,-37.16
45862,756.62,761.98,759.59,758.97,759.29,136.23,-937.01,404.30,-2.03,2.78,-0.15,-34.86
45896,756.56,761.94,759.66,759.01,759.29,127.93,-927.25,391.11,-0.15,2.32,0.44,-33.20
45931,756.73,761.90,759.64,759.14,759.35,128.42,-925.78,400.39,-1.11,0.77,-0.79,-35.77
45965,756.60,761.98,759.65,759.08,759.33,125.98,-937.99,380.86,-0.66,1.92,0.39,-34.75
45999,756.65,762.04,759.64,758.99,759.33,126.95,-928.71,379.88,-0.79,0.45,1.53,-34.53
46035,756.65,761.99,759.63,759.02,759.32,131.35,-929.69,372.56,1.14,0.37,3.05,-34.59
46069,756.66,761.92,759.65,759.08,759.33,131.35,-919.92,373.05,0.97,2.06,-0.94,-34.45
46103,756.59,761.99,759.64,759.06,759.32,129.88,-943.36,385.74,-0.81,1.50,1.60,-34.82
46139,756.68,762.02,759.61,759.11,759.36,128.91,-927.25,386.72,0.81,1.66,-1.17,-36.83
46173,756.64,762.00,759.61,759.01,759.31,139.16,-933.11,391.11,2.06,-0.94,0.76,-35.08
46207,756.59,762.02,759.62,759.08,759.33,119.14,-931.15,384.28,1.73,1.27,1.27,-35.74
46241,756.61,762.03,759.64,759.13,759.35,134.77,-928.71,379.39,-1.21,1.69,-1.23,-36.22
46275,756.60,761.97,759.66,759.07,759.33,127.44,-940.92,391.11,-1.37,0.22,-1.44,-34.32
46310,756.61,761.99,759.69,758.98,759.32,129.39,-937.99,388.67,0.64,2.15,-1.37,-32.58
46344,756.60,761.93,759.65,759.09,759.32,136.23,-935.55,377.44,-1.77,2.94,1.45,-34.47
46377,756.52,761.93,759.68,759.01,759.29,126.95,-942.87,400.88,-0.50,-0.41,-1.06,-32.29
46411,756.56,762.04,759.69,759.08,759.34,129.88,-939.45,368.65,-1.06,2.93,0.00,-33.98
46446,756.56,761.97,759.70,759.08,759.32,143.07,-925.78,383.30,0.27,-0.29,0.75,-33.35
46480,756.57,761.99,759.63,758.98,759.29,120.12,-931.64,392.09,0.79,0.64,0.81,-33.78
46514,756.51,761.91,759.70,758.98,759.28,132.32,-932.62,390.14,-1.47,2.62,0.89,-31.36
46547,756.51,761.95,759.68,759.07,759.30,134.28,-925.29,373.54,0.69,2.89,-0.73,-33.22
46581,756.53,761.98,759.63,759.02,759.29,132.32,-919.43,384.77,1.27,2.72,0.50,-34.06
46615,756.54,761.91,759.68,758.99,759.28,117.68,-932.62,391.60,-0.18,2.40,2.32,-32.14
46649,756.52,761.92,759.66,759.04,759.29,117.68,-931.64,387.70,0.08,2.34,0.97,-33.22
46683,756.55,761.97,759.63,759.01,759.29,124.02,-931.15,377.93,1.80,2.35,-0.25,-33.91
46717,756.54,761.88,759.65,759.02,759.27,124.02,-924.80,385.25,1.11,-1.44,2.24,-32.89
46751,756.55,761.92,759.66,758.98,759.28,134.77,-930.66,377.93,0.48,-0.81,1.08,-32.51
46784,756.60,761.97,759.67,759.03,759.32,141.11,-937.01,376.95,-2.33,0.15,-0.97,-33.49
46820,756.56,761.87,759.67,758.97,759.27,120.12,-937.50,384.28,-1.69,3.49,-1.85,-31.68
46855,756.60,761.96,759.71,759.06,759.34,121.58,-926.76,387.21,1.02,-1.56,2.27,-32.83
46889,756.63,762.03,759.72,759.02,759.35,122.56,-937.50,388.67,2.08,1.16,-1.19,-32.84
46923,756.64,761.97,759.61,759.09,759.33,136.23,-920.41,386.23,3.34,-0.64,2.41,-35.97
46957,756.67,761.93,759.70,759.10,759.35,136.72,-929.69,387.70,1.63,-0.66,-0.85,-33.76
46991,756.63,761.97,759.62,759.13,759.33,131.84,-940.92,382.81,1.68,-2.00,-0.27,-36.29
47025,756.59,761.95,759.61,759.10,759.31,141.60,-940.43,384.28,1.15,1.07,1.33,-35.85
47060,756.57,761.92,759.66,759.03,759.30,124.02,-925.78,380.37,0.24,1.00,0.63,-33.26
47095,756.62,762.02,759.70,759.02,759.34,125.00,-928.71,381.84,0.69,1.27,1.42,-33.12
47129,756.69,762.01,759.70,758.99,759.35,129.39,-940.92,390.14,0.19,1.40,-0.33,-32.65
47164,756.64,761.97,759.76,759.01,759.35,137.70,-931.15,387.21,-0.05,1.19,1.99,-31.00
47198,756.65,762.03,759.66,759.03,759.34,123.54,-929.20,382.32,0.55,1.34,-0.66,-34.56
47234,756.64,762.06,759.68,758.98,759.34,135.74,-919.43,375.98,1.76,2.19,0.38,-33.27
47268,756.64,761.98,759.63,759.04,759.32,132.32,-941.41,386.23,0.42,2.11,-1.36,-34.93
47302,756.63,761.99,759.67,759.02,759.33,131.84,-935.55,393.55,-0.93,1.38,0.00,-33.54
47336,756.59,761.95,759.57,758.95,759.26,133.30,-946.29,386.72,0.69,1.47,1.08,-34.74
47370,756.63,762.02,759.63,758.98,759.31,134.28,-931.15,387.70,-0.76,-1.25,-2.10,-34.24
47405,756.64,761.97,759.68,759.03,759.33,140.14,-934.57,390.14,1.98,-1.41,0.83,-33.35
47439,756.63,761.96,759.64,759.06,759.32,138.18,-925.78,389.65,-1.47,1.44,0.44,-34.77
47473,756.67,762.00,759.70,759.07,759.36,130.37,-932.13,378.91,1.24,0.37,-1.62,-33.90
47507,756.62,762.00,759.67,759.09,759.35,132.81,-931.15,384.28,-0.51,2.36,-0.37,-34.69
47541,756.66,762.01,759.66,759.12,759.36,136.23,-932.62,383.79,1.46,3.05,-0.60,-35.41
