currTime,s1,s2,s3,s4,s,AccX,AccY,AccZ,GyroX,GyroY,GyroZ,Amplified_Sensor
0,14.49,14.47,14.64,14.5,14.53,-70.8,-910.64,467.77,0.05,0.56,0.56,129.52178633975473
0,14.49,14.47,14.64,14.5,14.53,-70.31,-914.55,462.4,-0.16,-1.15,0.02,129.52178633975473
0,14.49,14.47,14.64,14.5,14.53,-70.8,-931.64,458.98,0.11,0.47,-0.94,129.52178633975473
0,14.49,14.48,14.64,14.5,14.53,-70.31,-914.06,454.59,-0.63,0.55,0.26,129.52178633975473
0,14.49,14.47,14.64,14.5,14.53,-70.8,-918.46,456.54,-0.85,0.02,-2.04,129.52178633975473
0,14.49,14.47,14.64,14.5,14.53,-70.8,-908.2,465.33,0.25,0.83,-1.28,129.52178633975473
0,14.49,14.47,14.64,14.5,14.53,-58.11,-920.9,468.26,-1.08,1.21,2.24,129.52178633975473
0,14.49,14.47,14.64,14.5,14.53,-70.31,-928.22,459.47,-0.93,-1.02,-1.09,129.52178633975473
0,14.49,14.47,14.64,14.5,14.53,-71.78,-909.67,455.08,2.19,-1.15,-0.5,129.52178633975473
0,14.49,14.47,14.64,14.5,14.53,-51.27,-911.13,458.98,-0.95,2.4,-0.52,129.52178633975473
0,14.49,14.47,14.64,14.5,14.53,-68.85,-916.02,458.98,1.27,1.73,2.19,129.52178633975473
0,14.49,14.47,14.64,14.5,14.53,-67.38,-925.29,450.2,0.9,0.68,0.02,129.52178633975473
0,14.49,14.47,14.64,14.5,14.53,-61.04,-918.95,462.89,0.53,-1.81,1.62,129.52178633975473
0,14.49,14.47,14.64,14.5,14.53,-67.38,-920.41,459.47,1.01,-0.36,-1.22,129.52178633975473
0,14.49,14.48,14.64,14.5,14.53,-72.27,-921.39,458.01,-3.54,-2.43,-2.24,129.52178633975473
0,14.49,14.47,14.64,14.5,14.53,-58.11,-917.97,453.12,0.1,0.22,-1.64,129.52178633975473
0,14.49,14.47,14.64,14.5,14.53,-64.45,-931.64,461.43,-0.31,-1.15,0.08,129.52178633975473
0,14.49,14.47,14.64,14.5,14.53,-62.5,-917.48,458.01,0.66,3.27,0.13,129.52178633975473
0,14.49,14.47,14.64,14.5,14.53,-77.64,-921.87,444.82,1.26,3.14,0.08,129.52178633975473
0,14.49,14.48,14.64,14.5,14.53,-78.12,-910.64,444.82,-1.05,-0.79,0.53,129.52178633975473
0,14.49,14.47,14.64,14.5,14.53,-63.48,-917.97,471.19,2.32,-0.94,0.19,129.52178633975473
0,14.49,14.47,14.64,14.5,14.53,-60.55,-919.92,467.77,0.79,-2.56,-0.13,129.52178633975473
0,14.49,14.47,14.64,14.5,14.53,-72.27,-935.06,460.45,0.15,0.13,-2.66,129.52178633975473
0,14.49,14.47,14.64,14.5,14.53,-73.24,-910.64,462.89,-2.08,-2.44,-0.25,129.52178633975473
0,14.49,14.47,14.64,14.5,14.53,-69.82,-915.53,454.59,0.31,1.73,-2.6,129.52178633975473
0,14.49,14.48,14.64,14.5,14.53,-71.29,-909.67,464.36,1.43,-0.21,-0.34,129.52178633975473
0,14.49,14.47,14.64,14.5,14.53,-59.57,-901.86,469.73,0.06,2.32,-0.16,129.52178633975473
0,14.49,14.47,14.64,14.5,14.53,-61.52,-916.99,464.36,0.05,0.27,0.16,129.52178633975473
0,14.49,14.48,14.64,14.5,14.53,-67.87,-920.41,459.96,-1.28,2.23,-0.4,129.52178633975473
0,14.49,14.48,14.64,14.5,14.53,-63.96,-918.46,460.94,-0.42,1.43,1.76,129.52178633975473
0,14.49,14.47,14.64,14.5,14.53,-60.55,-926.27,458.5,-1.59,0.77,-2.96,129.52178633975473
0,14.49,14.47,14.64,14.5,14.53,-63.96,-926.27,463.38,0.6,2.7,-0.83,129.52178633975473
0,14.49,14.47,14.64,14.5,14.53,-82.03,-915.53,469.73,-0.33,0.88,1.08,129.52178633975473
0,14.49,14.47,14.64,14.5,14.53,-69.82,-918.95,451.17,-0.11,0.52,0.77,129.52178633975473
0,14.49,14.48,14.64,14.5,14.53,-60.55,-914.06,460.45,1.18,0.46,-1.11,129.52178633975473
0,14.49,14.48,14.64,14.5,14.53,-58.59,-919.43,455.57,1.98,0.15,-0.82,129.52178633975473
0,14.49,14.47,14.64,14.5,14.53,-63.48,-913.57,459.96,-0.74,0.11,-0.37,129.52178633975473
0,14.49,14.48,14.64,14.5,14.53,-61.04,-916.5,463.87,-0.1,-1.1,-2.4,129.52178633975473
0,14.49,14.47,14.64,14.5,14.53,-73.24,-908.69,463.38,-0.36,-0.47,0.85,129.52178633975473
0,14.49,14.47,14.64,14.5,14.53,-56.64,-930.66,456.05,-1.06,-0.24,0.98,129.52178633975473
0,14.49,14.47,14.64,14.5,14.53,-72.27,-919.43,461.91,-0.82,2.63,-0.38,129.52178633975473
0,14.49,14.47,14.64,14.5,14.53,-58.59,-917.97,462.4,-1.05,-2.98,0.4,129.52178633975473
0,14.49,14.48,14.64,14.5,14.53,-79.59,-912.11,458.01,0.44,0.35,2.13,129.52178633975473
0,14.49,14.47,14.64,14.5,14.53,-73.24,-919.92,453.12,-0.76,0.5,-0.88,129.52178633975473
0,14.49,14.47,14.64,14.5,14.53,-68.85,-930.18,460.45,0.49,-0.21,-0.7,129.52178633975473
0,14.49,14.47,14.64,14.5,14.53,-68.36,-918.46,452.64,0.34,-0.15,0.69,129.52178633975473
0,14.49,14.48,14.64,14.5,14.53,-64.94,-923.34,455.08,-1.46,-0.27,-3.61,129.52178633975473
0,14.49,14.47,14.64,14.5,14.53,-62.99,-906.74,462.4,0.75,1.51,-2.99,129.52178633975473
0,14.49,14.47,14.64,14.5,14.53,-56.64,-910.16,445.31,-0.66,1.51,1.74,129.52178633975473
0,14.49,14.47,14.64,14.5,14.53,-75.68,-927.73,457.03,0.63,1.25,-3.08,129.52178633975473
0,14.49,14.47,14.64,14.5,14.53,-52.73,-911.62,457.52,-1.66,-1.13,-0.46,129.52178633975473
0,14.49,14.47,14.64,14.5,14.53,-68.85,-918.95,470.21,1.11,-1.82,-0.6,129.52178633975473
0,14.49,14.47,14.64,14.5,14.53,-64.45,-911.62,460.45,0.39,1.27,0.5,129.52178633975473
0,14.49,14.47,14.64,14.5,14.53,-64.94,-923.83,466.8,0.18,1.31,-0.63,129.52178633975473
0,14.49,14.47,14.64,14.5,14.53,-63.48,-920.9,452.15,0.61,-1.81,-0.82,129.52178633975473
0,14.49,14.47,14.64,14.5,14.53,-66.41,-904.3,461.43,-1.38,-1.58,-0.29,129.52178633975473
0,14.49,14.48,14.64,14.5,14.53,-62.5,-920.9,465.33,-0.9,-0.73,-1.83,129.52178633975473
0,14.49,14.47,14.64,14.5,14.52,-49.8,-909.18,462.4,-1.6,1.68,-1.02,128.52178633975475
0,14.49,14.47,14.64,14.49,14.52,-70.8,-937.01,443.36,-1.0,-1.69,0.62,128.52178633975475
0,14.49,14.47,14.64,14.49,14.52,-65.43,-916.02,447.75,2.2,0.56,0.52,128.52178633975475
0,14.49,14.48,14.64,14.49,14.52,-57.62,-921.39,453.61,1.8,-2.92,0.01,128.52178633975475
0,14.49,14.47,14.64,14.49,14.52,-66.41,-919.43,463.87,7.61,-4.74,-2.11,128.52178633975475
0,14.49,14.47,14.64,14.49,14.52,-66.41,-917.97,469.73,5.71,-3.89,-0.05,128.52178633975475
0,14.49,14.48,14.64,14.49,14.52,-52.73,-901.37,487.3,6.1,-3.6,-0.6,128.52178633975475
0,14.49,14.47,14.64,14.49,14.52,-62.5,-901.37,482.42,3.08,-0.91,-1.59,128.52178633975475
0,14.5,14.48,14.64,14.49,14.53,-61.52,-913.09,468.75,2.87,-2.71,0.76,129.52178633975473
0,14.5,14.47,14.64,14.49,14.53,-62.5,-897.46,468.26,5.86,0.05,-2.75,129.52178633975473
0,14.5,14.48,14.64,14.49,14.53,-51.27,-888.67,495.12,1.6,-3.49,-1.13,129.52178633975473
0,14.5,14.48,14.64,14.49,14.53,-57.13,-902.34,471.68,0.92,1.6,-2.83,129.52178633975473
0,14.5,14.48,14.64,14.49,14.53,-59.08,-923.83,461.43,4.81,-2.0,-1.37,129.52178633975473
0,14.5,14.48,14.64,14.49,14.53,-51.76,-901.37,486.33,4.53,-2.31,-2.26,129.52178633975473
0,14.5,14.48,14.64,14.5,14.53,-47.36,-913.09,488.28,10.92,2.15,-1.23,129.52178633975473
0,14.5,14.48,14.64,14.5,14.53,-58.11,-914.06,490.23,4.99,0.88,-2.05,129.52178633975473
0,14.51,14.48,14.65,14.5,14.53,-58.59,-890.62,495.61,7.74,-1.03,-1.26,129.52178633975473
0,14.51,14.48,14.65,14.51,14.54,-66.41,-898.44,492.19,10.21,-3.36,-0.05,130.5217863397547
0,14.51,14.48,14.65,14.51,14.54,-53.22,-898.93,499.51,6.54,-2.63,-2.85,130.5217863397547
0,14.51,14.48,14.65,14.51,14.54,-63.48,-885.74,497.07,3.18,1.14,-0.02,130.5217863397547
0,14.51,14.48,14.65,14.52,14.54,-60.06,-890.14,509.28,2.92,-1.22,0.89,130.5217863397547
0,14.51,14.48,14.65,14.52,14.54,-56.64,-888.67,510.74,0.69,-1.28,0.57,130.5217863397547
0,14.52,14.48,14.66,14.52,14.54,-57.62,-872.07,504.88,-2.31,1.05,-0.27,130.5217863397547
0,14.52,14.48,14.66,14.52,14.54,-44.43,-904.3,493.16,0.79,0.11,-1.22,130.5217863397547
0,14.52,14.48,14.66,14.52,14.54,-54.69,-895.02,501.46,1.63,2.21,-2.6,130.5217863397547
0,14.52,14.48,14.66,14.52,14.55,-50.78,-888.67,511.72,1.11,-0.95,0.96,131.52178633975487
0,14.52,14.48,14.66,14.53,14.55,-51.27,-888.67,505.37,3.19,-0.08,0.02,131.52178633975487
0,14.52,14.48,14.66,14.52,14.55,-61.04,-885.25,520.51,3.85,0.1,-1.38,131.52178633975487
0,14.52,14.48,14.66,14.52,14.55,-39.06,-882.81,523.93,-0.69,-0.42,-1.9,131.52178633975487
0,14.52,14.48,14.66,14.52,14.55,-50.29,-895.51,526.86,1.37,-4.63,0.45,131.52178633975487
0,14.52,14.48,14.66,14.52,14.55,-45.9,-904.3,501.46,2.34,1.11,-2.05,131.52178633975487
0,14.53,14.48,14.66,14.52,14.55,-51.76,-892.58,506.84,1.69,0.11,-2.37,131.52178633975487
0,14.52,14.48,14.66,14.52,14.54,-45.9,-903.81,530.76,0.35,-0.08,-0.31,130.5217863397547
0,14.52,14.48,14.66,14.52,14.55,-49.32,-876.46,519.04,1.8,-0.15,0.21,131.52178633975487
0,14.52,14.48,14.66,14.52,14.54,-53.71,-895.02,492.68,0.51,-0.73,0.04,130.5217863397547
0,14.52,14.48,14.66,14.51,14.54,-43.46,-887.21,520.02,-1.22,-1.08,-2.18,130.5217863397547
0,14.53,14.48,14.66,14.51,14.54,-44.43,-880.37,518.55,0.44,-0.5,0.36,130.5217863397547
0,14.53,14.48,14.66,14.51,14.54,-41.5,-896.48,506.84,0.87,-1.5,-2.23,130.5217863397547
0,14.53,14.48,14.66,14.51,14.54,-40.53,-890.14,508.79,-1.93,-1.25,-1.36,130.5217863397547
0,14.53,14.48,14.65,14.51,14.54,-60.06,-862.3,501.46,3.78,-1.11,0.15,130.5217863397547
0,14.53,14.48,14.65,14.51,14.54,-69.82,-890.62,491.7,-0.59,0.69,-0.7,130.5217863397547
0,14.53,14.48,14.65,14.51,14.54,-58.11,-887.21,514.16,-1.4,0.89,-0.42,130.5217863397547
0,14.53,14.48,14.65,14.51,14.54,-47.85,-879.88,515.62,-0.05,-0.58,-1.76,130.5217863397547
0,14.53,14.48,14.65,14.51,14.54,-45.41,-896.97,523.44,-1.51,-1.44,-0.76,130.5217863397547
0,14.53,14.48,14.65,14.51,14.54,-62.99,-878.91,517.09,-0.51,-2.44,-0.44,130.5217863397547
0,14.53,14.48,14.65,14.51,14.54,-45.41,-896.48,519.53,0.89,1.1,0.2,130.5217863397547
0,14.53,14.48,14.65,14.51,14.54,-48.34,-897.46,509.77,-0.87,-1.85,-1.96,130.5217863397547
0,14.53,14.48,14.65,14.51,14.54,-35.16,-888.18,502.44,-0.46,2.25,-0.63,130.5217863397547
0,14.53,14.48,14.65,14.51,14.54,-51.76,-893.07,514.16,-0.22,-2.18,0.15,130.5217863397547
0,14.53,14.48,14.65,14.51,14.54,-48.83,-915.53,577.15,-3.08,-6.95,-2.82,130.5217863397547
0,14.53,14.48,14.65,14.51,14.54,-33.2,-897.46,519.04,0.73,1.16,-1.11,130.5217863397547
0,14.53,14.48,14.65,14.51,14.54,-34.67,-879.88,501.46,1.23,-1.45,-0.27,130.5217863397547
0,14.53,14.48,14.65,14.51,14.54,-55.66,-889.65,519.53,0.59,2.6,-0.16,130.5217863397547
0,14.53,14.48,14.65,14.51,14.54,-50.78,-890.14,539.06,-3.13,-0.46,-2.08,130.5217863397547
0,14.53,14.48,14.65,14.51,14.54,-45.41,-897.46,512.7,-0.19,-0.4,1.35,130.5217863397547
0,14.53,14.48,14.65,14.51,14.55,125.49,-1080.57,605.96,-21.74,-27.35,0.9,131.52178633975487
0,14.53,14.48,14.65,14.51,14.54,185.06,-1036.13,434.08,-10.11,10.69,2.83,130.5217863397547
0,14.53,14.48,14.65,14.51,14.54,-100.59,-883.79,546.39,6.31,2.5,-1.34,130.5217863397547
0,14.53,14.48,14.65,14.51,14.54,-61.52,-883.3,497.07,1.08,0.05,-1.69,130.5217863397547
0,14.53,14.48,14.65,14.51,14.54,-52.73,-896.0,519.04,-1.48,-1.49,-2.15,130.5217863397547
0,14.53,14.48,14.65,14.51,14.54,-40.04,-886.72,502.93,-0.62,-0.37,-1.56,130.5217863397547
0,14.53,14.48,14.65,14.51,14.54,-36.13,-893.07,510.74,-1.87,1.78,2.53,130.5217863397547
0,14.53,14.48,14.65,14.5,14.54,-45.9,-876.95,520.51,0.38,0.67,0.07,130.5217863397547
0,14.53,14.48,14.65,14.5,14.54,-50.78,-889.65,521.0,-1.16,0.08,0.09,130.5217863397547
0,14.53,14.48,14.65,14.5,14.54,-60.06,-897.46,520.02,-0.46,-0.85,0.35,130.5217863397547
0,14.53,14.48,14.65,14.5,14.54,-55.18,-879.88,514.65,-2.57,0.49,-1.56,130.5217863397547
0,14.53,14.48,14.65,14.49,14.54,-62.01,-903.81,496.58,-4.33,2.48,-1.73,130.5217863397547
0,14.52,14.48,14.65,14.49,14.54,-52.25,-889.16,507.81,-0.64,-2.62,-2.22,130.5217863397547
0,14.53,14.48,14.65,14.48,14.53,-59.57,-896.0,503.42,-1.63,-1.1,-3.77,129.52178633975473
0,14.53,14.48,14.65,14.47,14.53,-53.22,-911.13,503.42,-3.83,2.32,-4.33,129.52178633975473
0,14.53,14.49,14.65,14.46,14.53,-41.99,-877.44,523.93,1.12,0.22,-1.13,129.52178633975473
0,14.53,14.48,14.65,14.46,14.53,-30.76,-879.88,504.39,1.79,0.18,-4.08,129.52178633975473
0,14.52,14.48,14.65,14.46,14.53,-48.83,-891.11,507.81,1.28,-0.79,-3.31,129.52178633975473
0,14.53,14.49,14.65,14.46,14.53,-36.13,-880.37,503.42,-1.34,0.25,-1.56,129.52178633975473
0,14.53,14.49,14.65,14.46,14.53,-25.39,-875.0,523.93,0.31,-1.2,-3.05,129.52178633975473
0,14.53,14.49,14.65,14.46,14.53,-34.18,-886.23,501.95,-2.02,-3.44,-0.52,129.52178633975473
0,14.53,14.49,14.65,14.46,14.53,-52.25,-920.9,500.0,3.81,-2.23,-2.31,129.52178633975473
0,14.53,14.49,14.65,14.45,14.53,-47.36,-919.43,504.39,17.89,0.26,-6.7,129.52178633975473
0,14.53,14.5,14.66,14.45,14.53,-18.07,-897.46,503.91,8.95,3.6,-9.07,129.52178633975473
0,14.53,14.5,14.66,14.45,14.53,-38.57,-903.81,540.53,1.87,9.4,-7.16,129.52178633975473
0,14.53,14.5,14.66,14.45,14.54,-19.04,-861.33,504.88,7.05,7.21,-5.48,130.5217863397547
0,14.53,14.5,14.66,14.45,14.54,-41.99,-918.95,533.2,1.14,8.37,-6.34,130.5217863397547
0,14.53,14.51,14.66,14.44,14.54,-37.11,-916.99,517.09,4.39,7.56,-9.74,130.5217863397547
0,14.54,14.52,14.66,14.44,14.54,-23.93,-913.09,536.62,3.99,13.72,-11.82,130.5217863397547
0,14.55,14.52,14.66,14.44,14.54,-41.5,-938.96,477.54,18.8,15.8,-16.27,130.5217863397547
0,14.55,14.53,14.66,14.44,14.55,-27.34,-891.11,501.95,19.46,18.15,-21.43,131.52178633975487
0,14.56,14.55,14.66,14.43,14.55,-44.43,-906.25,557.13,14.75,23.83,-25.75,131.52178633975487
0,14.56,14.55,14.66,14.43,14.55,3.91,-935.06,574.71,11.08,16.91,-23.17,131.52178633975487
0,14.56,14.56,14.66,14.43,14.55,8.3,-855.47,477.54,24.14,17.79,-27.43,131.52178633975487
0,14.56,14.56,14.66,14.43,14.56,73.24,-812.5,453.61,20.43,38.48,-27.45,132.52178633975484
0,14.57,14.57,14.66,14.43,14.56,13.67,-984.86,532.23,7.68,60.53,-30.92,132.52178633975484
0,14.57,14.57,14.67,14.44,14.56,-100.59,-771.48,741.21,21.42,47.68,-32.9,132.52178633975484
0,14.56,14.58,14.67,14.44,14.56,-63.96,-666.5,729.49,31.63,25.94,-22.61,132.52178633975484
0,14.57,14.58,14.67,14.44,14.57,-72.27,-653.32,834.96,21.49,6.61,-8.85,133.5217863397548
0,14.58,14.59,14.66,14.45,14.57,35.64,-753.42,627.93,-12.73,-2.96,6.03,133.5217863397548
0,14.59,14.58,14.66,14.47,14.57,-36.13,-878.91,581.05,10.79,-2.22,7.98,133.5217863397548
0,14.59,14.58,14.66,14.47,14.58,-19.04,-790.04,643.55,-5.69,-1.29,1.24,134.5217863397548
0,14.6,14.57,14.65,14.48,14.58,20.02,-737.79,625.98,-14.67,1.21,6.53,134.5217863397548
0,14.6,14.56,14.64,14.5,14.58,20.02,-829.1,575.2,-27.12,5.24,15.6,134.5217863397548
0,14.6,14.55,14.63,14.51,14.57,-92.29,-976.07,569.34,-25.69,8.12,16.58,133.5217863397548
0,14.6,14.54,14.63,14.5,14.57,-55.18,-947.27,577.15,6.54,6.92,-5.98,133.5217863397548
0,14.6,14.53,14.63,14.5,14.57,-17.09,-736.33,650.88,-4.06,4.88,-2.5,133.5217863397548
0,14.6,14.52,14.63,14.5,14.57,-59.08,-888.67,532.71,-2.48,8.05,-0.13,133.5217863397548
0,14.59,14.52,14.63,14.52,14.57,-2.93,-829.59,600.59,-5.56,3.21,-1.32,133.5217863397548
0,14.56,14.51,14.64,14.58,14.57,15.14,-805.18,655.27,-11.88,9.4,9.43,133.5217863397548
0,14.54,14.5,14.64,14.61,14.57,-114.75,-883.79,445.8,-11.07,3.31,6.11,133.5217863397548
0,14.52,14.49,14.64,14.64,14.57,-11.23,-853.03,606.93,-17.33,3.03,6.64,133.5217863397548
0,14.51,14.49,14.64,14.66,14.57,-63.96,-879.88,530.27,-13.19,2.82,4.46,133.5217863397548
0,14.51,14.49,14.64,14.67,14.58,-65.43,-854.98,541.99,-18.11,-4.47,5.53,134.5217863397548
0,14.5,14.48,14.64,14.67,14.57,-83.98,-858.89,543.46,-13.15,-11.64,7.55,133.5217863397548
0,14.5,14.48,14.64,14.67,14.57,-73.24,-883.79,546.39,-14.37,-26.76,18.16,133.5217863397548
0,14.5,14.48,14.64,14.67,14.57,-49.32,-889.16,516.11,-18.19,-42.4,28.24,133.5217863397548
0,14.49,14.48,14.64,14.67,14.57,-15.14,-883.3,527.34,-8.24,-32.07,26.18,133.5217863397548
0,14.49,14.48,14.64,14.67,14.57,-52.25,-850.1,564.45,-8.62,4.27,3.15,133.5217863397548
0,14.49,14.48,14.64,14.69,14.58,-89.84,-930.66,437.01,17.31,-5.51,-3.98,134.5217863397548
0,14.49,14.48,14.64,14.71,14.58,-24.41,-867.19,571.78,10.61,0.91,-0.43,134.5217863397548
0,14.49,14.48,14.64,14.78,14.6,-92.29,-863.77,522.95,12.98,-3.28,-1.09,136.52178633975475
0,14.49,14.48,14.65,14.87,14.62,-78.12,-889.16,512.7,23.95,-3.01,-9.27,138.52178633975473
0,14.49,14.48,14.65,15.0,14.66,-61.52,-859.86,545.9,20.3,-3.67,-6.09,142.5217863397548
0,14.5,14.48,14.66,15.16,14.7,-44.92,-869.63,526.37,22.34,-1.95,-5.7,146.52178633975473
0,14.5,14.48,14.67,15.31,14.74,-48.34,-841.8,590.82,15.72,-3.33,-2.53,150.5217863397548
0,14.5,14.49,14.68,15.4,14.76,-41.5,-843.75,583.98,8.95,-3.02,-2.5,152.52178633975478
0,14.5,14.49,14.68,15.43,14.77,-44.43,-847.66,597.66,0.38,1.88,-2.82,153.52178633975475
0,14.49,14.49,14.68,15.47,14.78,-41.5,-843.75,572.27,5.24,-3.58,-1.22,154.52178633975473
0,14.49,14.49,14.68,15.46,14.78,-34.18,-838.38,598.63,-1.18,-2.56,-0.63,154.52178633975473
0,14.49,14.49,14.68,15.42,14.77,-33.2,-875.0,560.55,-0.71,-0.69,-1.44,153.52178633975475
0,14.49,14.49,14.68,15.35,14.75,-36.62,-860.35,567.38,-5.0,-2.45,0.9,151.52178633975478
0,14.49,14.48,14.67,15.24,14.72,-38.57,-845.7,586.43,-11.06,-0.88,6.44,148.52178633975487
0,14.49,14.48,14.66,15.08,14.68,-41.5,-850.1,569.82,-21.56,-1.44,13.15,144.52178633975475
0,14.49,14.48,14.64,14.89,14.63,-74.71,-934.57,614.75,-12.42,21.03,55.61,139.52178633975487
0,14.48,14.48,14.64,14.7,14.57,-275.39,-1082.52,470.7,-10.69,0.54,80.48,133.5217863397548
0,14.48,14.48,14.63,14.56,14.54,-399.41,-1130.37,224.61,9.34,-62.15,130.99,130.5217863397547
0,14.48,14.48,14.63,14.48,14.52,-498.05,-1546.88,106.93,80.37,-146.23,123.37,128.52178633975475
0,14.48,14.47,14.63,14.46,14.51,-411.13,-1136.72,51.27,140.05,-221.55,133.43,127.52178633975477
0,14.48,14.48,14.63,14.45,14.51,-374.51,-1059.57,-34.18,-32.15,-200.48,113.34,127.52178633975477
0,14.48,14.47,14.63,14.45,14.51,-262.7,-1062.5,-89.36,-39.13,-250.14,76.59,127.52178633975477
0,14.48,14.47,14.63,14.45,14.51,-144.53,-1095.7,90.82,-115.75,-250.14,72.08,127.52178633975477
0,14.48,14.48,14.63,14.45,14.51,53.71,-836.91,296.87,-122.6,-239.46,81.69,127.52178633975477
0,14.48,14.47,14.63,14.45,14.51,72.27,-1060.06,687.01,-122.69,-130.32,44.02,127.52178633975477
0,14.48,14.48,14.63,14.44,14.51,-47.36,-916.02,669.92,-27.88,-51.42,24.06,127.52178633975477
0,14.48,14.47,14.63,14.44,14.51,-206.05,-830.08,474.12,-3.42,11.2,16.18,127.52178633975477
0,14.48,14.47,14.63,14.44,14.51,-290.04,-744.14,382.81,-13.23,20.98,12.67,127.52178633975477
0,14.48,14.47,14.63,14.44,14.51,-299.32,-823.24,454.59,-34.08,11.02,33.87,127.52178633975477
0,14.48,14.47,14.63,14.44,14.51,-210.94,-829.59,486.82,-38.3,3.01,68.95,127.52178633975477
0,14.48,14.47,14.63,14.44,14.51,-113.28,-856.93,521.0,-40.63,13.21,73.17,127.52178633975477
0,14.48,14.48,14.63,14.44,14.5,-79.59,-998.54,555.18,-25.91,25.02,53.18,126.5217863397548
0,14.48,14.48,14.62,14.44,14.51,-16.6,-979.49,566.89,-16.71,38.89,35.34,127.52178633975477
0,14.49,14.48,14.62,14.43,14.5,41.02,-923.83,570.8,-38.18,63.08,15.82,126.5217863397548
0,14.49,14.47,14.62,14.43,14.5,52.25,-1029.79,630.37,-57.1,81.1,-3.6,126.5217863397548
0,14.49,14.47,14.62,14.43,14.5,119.63,-971.19,684.57,-43.16,87.77,-13.56,126.5217863397548
0,14.49,14.47,14.62,14.43,14.51,107.42,-982.91,813.96,-18.51,102.65,-7.24,127.52178633975477
0,14.49,14.47,14.62,14.43,14.5,67.38,-751.95,824.71,4.83,104.47,8.95,126.5217863397548
0,14.49,14.48,14.62,14.43,14.5,-56.64,-891.11,773.93,18.74,98.69,6.89,126.5217863397548
0,14.49,14.47,14.62,14.43,14.51,-63.96,-796.39,681.15,48.81,75.44,-6.97,127.52178633975477
0,14.49,14.47,14.63,14.43,14.51,4.39,-851.56,545.41,40.63,60.37,-4.49,127.52178633975477
0,14.49,14.48,14.63,14.43,14.51,111.33,-855.47,520.51,46.08,58.37,15.69,127.52178633975477
0,14.49,14.48,14.63,14.43,14.51,186.52,-806.15,508.79,23.02,72.91,21.56,127.52178633975477
0,14.49,14.48,14.63,14.45,14.51,293.46,-835.94,497.56,28.52,79.29,10.99,127.52178633975477
0,14.49,14.47,14.63,14.5,14.52,871.58,-392.58,11.72,41.23,15.43,-86.05,128.52178633975475
0,14.48,14.47,14.64,14.8,14.6,-80.57,-618.16,561.52,15.18,-21.96,-133.5,136.52178633975475
0,14.48,14.48,14.65,15.15,14.69,492.19,-2000.0,851.56,111.88,-166.53,-120.66,145.52178633975475
0,14.48,14.48,14.66,15.5,14.78,-244.14,-850.59,670.41,113.28,-40.53,-56.37,154.52178633975473
0,14.49,14.48,14.67,15.84,14.87,-37.11,-741.7,1045.41,104.91,-9.81,-7.32,163.5217863397547
0,14.52,14.49,14.67,16.0,14.92,17.58,-742.68,792.48,54.69,-13.21,-0.1,168.52178633975478
0,14.54,14.49,14.67,16.04,14.94,12.7,-761.72,684.08,15.99,-3.55,0.82,170.52178633975473
0,14.56,14.5,14.66,16.06,14.94,-39.06,-791.02,646.0,9.88,-3.39,2.23,170.52178633975473
0,14.58,14.5,14.66,16.04,14.95,-38.09,-791.02,650.88,7.38,-0.61,-0.07,171.52178633975473
0,14.6,14.5,14.66,16.0,14.94,-22.46,-801.76,656.74,9.79,-6.15,1.44,170.52178633975473
0,14.64,14.5,14.66,15.93,14.93,-13.18,-756.84,669.43,3.25,-4.84,2.44,169.52178633975478
0,14.66,14.5,14.66,15.88,14.93,-23.44,-793.95,662.6,0.53,2.24,0.33,169.52178633975478
0,14.68,14.51,14.66,15.83,14.92,-25.88,-801.76,633.3,-0.86,-2.88,-0.49,168.52178633975478
0,14.69,14.51,14.66,15.81,14.92,-33.2,-800.78,656.25,0.15,1.04,-1.7,168.52178633975478
0,14.7,14.51,14.66,15.8,14.92,-27.83,-799.8,647.95,-2.2,2.53,-0.59,168.52178633975478
0,14.71,14.51,14.67,15.79,14.92,-32.71,-782.71,654.79,0.15,1.25,-0.76,168.52178633975478
0,14.73,14.51,14.67,15.75,14.91,-42.48,-773.93,645.51,0.03,3.38,-2.22,167.52178633975484
0,14.74,14.51,14.68,15.69,14.91,-38.09,-791.99,648.44,3.41,-1.2,-4.17,167.52178633975484
0,14.77,14.51,14.68,15.61,14.89,-57.62,-780.76,658.2,2.75,-0.93,-2.23,165.52178633975487
0,14.8,14.52,14.69,15.52,14.88,-21.0,-803.22,661.62,3.6,-1.57,-5.44,164.52178633975484
0,14.84,14.52,14.69,15.37,14.85,-51.76,-773.93,646.48,-2.71,-6.27,-2.47,161.52178633975473
0,14.89,14.53,14.69,15.16,14.82,-14.65,-817.87,583.5,-4.37,-8.5,-7.59,158.5217863397548
0,14.97,14.54,14.69,14.93,14.78,-48.34,-827.64,665.53,3.79,-13.37,-13.31,154.52178633975473
0,15.09,14.57,14.7,14.66,14.75,-50.78,-904.79,692.38,32.5,-16.47,-36.32,151.52178633975478
0,15.19,14.59,14.71,14.48,14.74,102.54,-804.69,585.94,4.77,-23.7,-44.94,150.5217863397548
0,15.2,14.6,14.7,14.45,14.74,-25.39,-918.46,799.8,-58.77,52.25,-75.05,150.5217863397548
0,15.04,14.6,14.7,14.44,14.69,-522.46,-1957.03,997.07,-41.96,10.02,-160.66,145.52178633975475
0,14.81,14.59,14.68,14.43,14.63,-176.76,-1208.98,751.46,-4.6,-46.94,-231.9,139.52178633975487
0,14.65,14.55,14.66,14.43,14.57,176.27,-1596.19,716.8,-46.62,-10.13,-250.14,133.5217863397548
0,14.57,14.51,14.65,14.42,14.54,-68.85,-1173.83,579.1,13.96,3.08,-250.14,130.5217863397547
0,14.52,14.48,14.64,14.43,14.52,-160.16,-962.89,540.53,61.54,0.47,-250.14,128.52178633975475
0,14.5,14.48,14.64,14.43,14.51,-461.43,-653.32,351.56,-27.37,33.65,-136.81,127.52178633975477
0,14.5,14.48,14.63,14.43,14.51,-672.85,-721.19,274.41,-46.67,16.11,-1.08,127.52178633975477
0,14.5,14.48,14.63,14.43,14.51,-466.8,-530.76,384.77,-67.22,13.37,93.3,127.52178633975477
0,14.5,14.48,14.63,14.43,14.51,-323.24,-560.55,478.03,-52.82,14.02,159.84,127.52178633975477
0,14.5,14.48,14.63,14.43,14.51,-54.69,-503.91,589.36,-61.7,39.29,141.27,127.52178633975477
0,14.5,14.48,14.63,14.43,14.51,-46.88,-810.55,667.48,-26.63,71.27,115.73,127.52178633975477
0,14.5,14.48,14.63,14.42,14.51,-88.87,-838.87,673.34,-30.19,89.2,129.69,127.52178633975477
0,14.5,14.48,14.63,14.42,14.51,-243.65,-1120.12,771.0,-52.03,93.85,158.29,127.52178633975477
0,14.5,14.48,14.63,14.42,14.51,-37.11,-1025.39,834.47,-65.95,72.2,159.57,127.52178633975477
0,14.5,14.48,14.63,14.42,14.51,50.29,-1100.1,867.19,-67.73,56.53,137.53,127.52178633975477
0,14.5,14.48,14.63,14.42,14.51,111.82,-1289.06,876.46,-44.15,47.76,101.96,127.52178633975477
0,14.5,14.48,14.63,14.42,14.51,295.9,-1246.09,850.59,-31.28,70.43,105.93,127.52178633975477
0,14.49,14.48,14.63,14.42,14.51,284.18,-1142.09,714.84,-25.18,91.04,126.21,127.52178633975477
0,14.49,14.48,14.63,14.42,14.51,349.61,-1268.07,648.93,-45.76,81.63,89.17,127.52178633975477
0,14.49,14.48,14.63,14.43,14.51,677.73,-891.6,656.25,-51.23,47.95,45.41,127.52178633975477
0,14.49,14.48,14.63,14.45,14.51,768.55,-832.52,677.73,-20.92,-7.25,11.74,127.52178633975477
0,14.49,14.48,14.63,14.51,14.53,794.43,-732.91,604.0,61.15,-100.82,-35.59,129.52178633975473
0,14.49,14.48,14.63,14.78,14.59,509.77,-795.41,582.52,41.2,-158.51,-113.51,135.52178633975478
0,14.49,14.48,14.63,15.13,14.68,100.1,-719.73,1177.73,25.72,-165.7,-88.66,144.52178633975475
0,14.49,14.48,14.65,15.54,14.79,213.87,-707.03,1001.95,171.76,-59.34,-95.3,155.5217863397547
0,14.53,14.49,14.66,15.82,14.88,88.87,-950.68,718.75,64.56,-10.18,-4.7,164.52178633975484
0,14.58,14.5,14.67,16.01,14.94,-36.13,-801.27,466.8,28.32,-1.64,-2.59,170.52178633975473
0,14.62,14.5,14.67,16.08,14.97,-34.67,-812.5,678.22,9.92,-0.12,-0.36,173.52178633975484
0,14.64,14.51,14.67,16.05,14.97,-50.29,-811.52,608.89,1.73,-2.98,-0.93,173.52178633975484
0,14.65,14.51,14.67,16.0,14.96,-38.57,-820.8,609.86,4.04,2.88,-0.69,172.5217863397549
0,14.66,14.51,14.67,15.95,14.95,-26.37,-827.15,594.24,11.56,-2.49,1.05,171.52178633975473
0,14.68,14.51,14.67,15.89,14.94,-40.04,-782.23,658.2,8.61,-4.57,-0.24,170.52178633975473
0,14.72,14.52,14.67,15.8,14.93,-34.18,-812.99,637.7,-0.21,0.31,-2.91,169.52178633975478
0,14.76,14.53,14.67,15.74,14.93,-23.93,-823.24,622.56,1.06,-1.99,-2.83,169.52178633975478
0,14.8,14.53,14.68,15.68,14.92,-29.3,-791.5,642.09,1.56,-0.89,-0.9,168.52178633975478
0,14.82,14.54,14.68,15.64,14.92,-31.74,-800.29,636.23,3.53,1.38,-1.41,168.52178633975478
0,14.84,14.54,14.68,15.62,14.92,-21.97,-804.69,642.09,4.15,0.43,-1.4,168.52178633975478
0,14.85,14.54,14.68,15.63,14.92,-24.9,-796.87,641.6,1.41,4.27,-1.14,168.52178633975478
0,14.85,14.54,14.68,15.62,14.92,-31.74,-779.79,650.39,1.11,0.79,-2.85,168.52178633975478
0,14.84,14.54,14.68,15.62,14.92,-33.69,-794.43,648.44,-0.44,2.39,-2.11,168.52178633975478
0,14.82,14.54,14.68,15.66,14.93,-22.46,-803.71,647.95,-1.09,3.3,-2.47,169.52178633975478
0,14.79,14.54,14.68,15.64,14.91,-50.29,-786.62,650.88,-6.09,10.2,-3.15,167.52178633975484
0,14.79,14.53,14.68,15.55,14.89,-36.62,-815.92,622.07,-9.84,-0.02,1.56,165.52178633975487
0,14.78,14.53,14.68,15.48,14.87,-24.41,-817.87,635.74,-0.23,-4.51,2.25,163.5217863397547
0,14.75,14.52,14.67,15.38,14.83,-25.88,-781.74,663.09,-6.89,0.54,0.83,159.5217863397548
0,14.68,14.51,14.67,15.16,14.75,-48.83,-792.48,653.32,-24.41,6.12,2.46,151.52178633975478
0,14.61,14.5,14.66,14.88,14.66,-62.99,-829.59,606.93,-36.32,4.97,2.99,142.5217863397548
0,14.56,14.49,14.65,14.66,14.59,-71.78,-890.62,583.98,-43.58,4.37,-4.82,135.52178633975478
0,14.52,14.49,14.64,14.52,14.54,-59.08,-901.37,570.31,-57.39,-3.38,-4.08,130.5217863397547
0,14.51,14.48,14.64,14.48,14.53,-83.98,-838.87,380.86,-44.15,38.34,-14.14,129.52178633975473
0,14.5,14.48,14.64,14.48,14.52,-650.88,-1047.85,396.48,-0.56,49.0,-35.18,128.52178633975475
0,14.49,14.48,14.64,14.47,14.52,-455.08,-761.23,450.2,19.15,43.04,-8.69,128.52178633975475
0,14.49,14.48,14.63,14.46,14.52,-320.8,-876.95,459.47,-0.67,27.88,25.69,128.52178633975475
0,14.49,14.48,14.63,14.46,14.52,-200.68,-765.62,522.46,-9.12,4.31,32.39,128.52178633975475
0,14.49,14.48,14.63,14.46,14.51,-102.54,-754.39,593.26,-19.1,1.21,22.55,127.52178633975477
0,14.49,14.48,14.63,14.46,14.52,93.75,-872.56,633.3,-13.85,25.98,2.69,128.52178633975475
0,14.49,14.48,14.63,14.48,14.52,300.29,-864.26,648.93,-0.05,45.29,-7.9,128.52178633975475
0,14.49,14.48,14.63,14.5,14.52,345.7,-861.82,697.27,3.68,7.58,-45.86,128.52178633975475
0,14.49,14.48,14.63,14.6,14.55,-162.11,-721.19,430.66,73.18,-75.88,-63.31,131.52178633975487
0,14.5,14.48,14.64,14.8,14.6,161.62,-960.45,877.44,41.19,40.44,-2.73,136.52178633975475
0,14.51,14.48,14.64,14.98,14.65,20.02,-756.35,726.56,51.33,-16.57,-4.95,141.52178633975484
0,14.52,14.48,14.65,15.13,14.7,-68.85,-797.85,616.7,11.14,-1.42,-6.29,146.52178633975473
0,14.54,14.49,14.65,15.24,14.73,-67.38,-833.01,604.49,3.57,5.9,-5.55,149.52178633975484
0,14.55,14.49,14.66,15.36,14.76,-45.9,-813.96,601.07,4.21,-1.19,-1.23,152.52178633975478
0,14.56,14.49,14.66,15.53,14.81,-54.69,-823.73,611.33,8.93,0.47,-1.61,157.52178633975484
0,14.57,14.49,14.66,15.65,14.84,-45.41,-808.59,637.21,10.53,0.76,-2.11,160.52178633975478
0,14.58,14.49,14.67,15.73,14.87,-46.88,-791.02,636.23,2.12,2.05,-3.44,163.5217863397547
0,14.59,14.49,14.67,15.8,14.89,-44.43,-787.11,647.95,-0.69,2.4,-0.89,165.52178633975487
0,14.58,14.5,14.67,15.84,14.9,-59.57,-836.91,615.23,-5.29,2.56,-1.69,166.5217863397548
0,14.58,14.5,14.68,15.86,14.9,-49.8,-812.5,638.18,-4.06,0.89,-2.94,166.5217863397548
0,14.58,14.5,14.68,15.85,14.9,-35.16,-802.73,635.25,-5.96,4.09,-4.45,166.5217863397548
0,14.58,14.5,14.68,15.81,14.89,-55.66,-813.96,622.07,-8.47,3.42,-0.29,165.52178633975487
0,14.57,14.49,14.68,15.73,14.87,-62.5,-812.99,604.49,-8.84,2.56,-0.77,163.5217863397547
0,14.56,14.49,14.67,15.57,14.83,-48.83,-820.31,625.0,-8.56,1.97,1.25,159.5217863397548
0,14.55,14.49,14.67,15.31,14.76,-46.88,-810.55,617.19,-18.37,-2.45,1.34,152.52178633975478
0,14.54,14.49,14.66,14.83,14.63,-90.33,-824.71,602.05,-30.55,0.97,-0.41,139.52178633975487
0,14.54,14.49,14.65,14.48,14.54,-196.78,-1025.39,500.0,-81.65,-1.94,-15.24,130.5217863397547
0,14.54,14.49,14.64,14.45,14.53,-170.9,-1518.55,1016.6,-0.19,8.78,-66.41,129.52178633975473
0,14.51,14.48,14.63,14.44,14.52,-415.04,-1583.5,822.27,-40.73,-33.95,-130.56,128.52178633975475
0,14.5,14.48,14.64,14.45,14.51,-698.73,-264.65,424.32,-7.45,5.91,-134.66,127.52178633975477
0,14.49,14.48,14.64,14.44,14.51,-889.65,-1189.45,422.85,9.6,-10.15,-21.5,127.52178633975477
0,14.49,14.48,14.64,14.44,14.51,-592.77,-624.02,405.76,-21.04,37.91,7.36,127.52178633975477
0,14.49,14.48,14.63,14.44,14.51,-551.76,-801.27,430.18,3.56,71.76,32.56,127.52178633975477
0,14.49,14.48,14.63,14.44,14.51,-447.27,-704.1,359.86,4.26,66.95,58.27,127.52178633975477
0,14.49,14.48,14.63,14.44,14.51,-346.68,-657.71,363.77,-5.32,41.78,50.53,127.52178633975477
0,14.49,14.48,14.63,14.44,14.51,-160.64,-700.2,424.32,-18.96,10.68,42.27,127.52178633975477
0,14.49,14.48,14.63,14.43,14.51,-61.52,-946.78,461.91,-43.14,19.4,104.64,127.52178633975477
0,14.49,14.48,14.63,14.44,14.51,67.87,-833.98,457.03,-41.56,19.02,128.53,127.52178633975477
0,14.49,14.48,14.63,14.43,14.51,108.89,-832.03,462.89,-34.83,8.43,94.15,127.52178633975477
0,14.49,14.48,14.63,14.43,14.51,175.29,-829.1,451.66,-45.53,-12.15,46.21,127.52178633975477
0,14.49,14.48,14.63,14.43,14.51,205.57,-983.89,425.78,-46.73,-26.92,10.45,127.52178633975477
0,14.49,14.48,14.63,14.43,14.51,247.56,-993.65,420.41,-30.99,-28.28,22.47,127.52178633975477
0,14.49,14.48,14.62,14.43,14.51,255.86,-932.62,435.06,-34.5,-10.07,41.85,127.52178633975477
0,14.49,14.48,14.62,14.43,14.5,255.86,-993.65,444.34,-14.43,-3.22,42.73,126.5217863397548
0,14.49,14.48,14.62,14.43,14.5,229.0,-923.83,401.37,18.25,6.21,25.84,126.5217863397548
0,14.49,14.48,14.62,14.43,14.51,118.65,-953.12,370.61,13.42,17.44,4.9,127.52178633975477
0,14.49,14.48,14.63,14.43,14.51,-57.13,-924.8,327.64,15.02,9.63,-5.08,127.52178633975477
0,14.49,14.48,14.62,14.43,14.5,-153.32,-883.3,328.12,6.84,-5.68,-4.18,126.5217863397548
0,14.49,14.47,14.62,14.43,14.5,-162.6,-830.08,321.29,-8.76,-17.59,2.65,126.5217863397548
0,14.49,14.47,14.62,14.46,14.51,-26.86,-885.25,384.77,-13.33,-26.29,-3.12,127.52178633975477
0,14.49,14.47,14.63,14.52,14.53,-31.74,-2000.0,-412.11,45.35,-13.24,-97.74,129.52178633975473
0,14.48,14.47,14.63,14.63,14.55,10.74,-580.57,1283.2,84.5,-79.47,-72.1,131.52178633975487
0,14.49,14.48,14.63,14.73,14.58,-50.78,-1102.54,311.04,2.08,-45.66,-55.97,134.5217863397548
0,14.49,14.47,14.64,14.94,14.63,-120.12,-1002.93,475.1,80.4,-68.91,-59.97,139.52178633975487
0,14.5,14.48,14.65,15.27,14.72,210.45,-833.5,654.79,83.6,9.33,-6.24,148.52178633975487
0,14.5,14.48,14.66,15.53,14.79,-126.46,-829.1,639.16,42.2,-12.66,-3.24,155.5217863397547
0,14.52,14.49,14.66,15.83,14.88,-111.82,-861.33,531.25,36.84,-5.11,0.29,164.52178633975484
0,14.57,14.5,14.66,16.0,14.93,-20.02,-731.45,738.77,24.21,-13.83,2.78,169.52178633975478
0,14.6,14.5,14.66,16.07,14.96,-48.34,-803.71,656.25,4.51,0.47,-1.08,172.5217863397549
0,14.63,14.5,14.66,16.06,14.96,-40.04,-782.23,630.37,-3.72,1.39,-4.12,172.5217863397549
0,14.66,14.51,14.66,16.0,14.96,-45.9,-803.71,643.07,-11.99,2.98,-1.24,172.5217863397549
0,14.7,14.52,14.67,15.94,14.96,-21.97,-833.5,636.23,-12.47,3.53,-1.21,172.5217863397549
0,14.71,14.52,14.67,15.85,14.94,-40.53,-808.11,630.37,-10.76,4.78,-1.26,170.52178633975473
0,14.73,14.52,14.67,15.73,14.91,-40.04,-819.82,618.65,-9.01,3.43,-1.09,167.52178633975484
0,14.74,14.53,14.68,15.64,14.9,-60.55,-850.1,573.73,-5.75,1.85,-1.75,166.5217863397548
0,14.76,14.53,14.68,15.62,14.9,-33.69,-809.08,612.3,0.32,-1.62,-2.44,166.5217863397548
0,14.77,14.53,14.68,15.66,14.91,-12.7,-822.75,609.37,5.91,0.61,-1.57,167.52178633975484
0,14.77,14.53,14.69,15.68,14.92,-39.55,-776.86,643.07,-2.27,4.83,-0.72,168.52178633975478
0,14.78,14.54,14.7,15.67,14.92,-33.2,-827.15,600.59,-2.9,6.12,-4.43,168.52178633975478
0,14.79,14.54,14.71,15.66,14.93,-23.93,-843.26,634.77,1.72,2.85,-2.54,169.52178633975478
0,14.8,14.54,14.71,15.69,14.93,-33.2,-839.36,606.93,3.54,1.32,-2.24,169.52178633975478
0,14.79,14.54,14.71,15.71,14.94,-33.2,-818.85,616.7,2.27,5.95,-1.03,170.52178633975473
0,14.78,14.54,14.71,15.67,14.93,-55.18,-860.35,562.01,5.48,-3.14,-2.05,169.52178633975478
0,14.79,14.54,14.71,15.65,14.92,-43.46,-826.66,604.0,11.3,-5.76,-0.93,168.52178633975478
0,14.8,14.54,14.71,15.65,14.93,-14.65,-772.46,684.08,9.89,-0.73,-1.27,169.52178633975478
0,14.8,14.54,14.71,15.67,14.93,-19.53,-815.92,619.14,3.24,-1.51,-1.24,169.52178633975478
0,14.78,14.54,14.7,15.71,14.93,-57.13,-827.64,585.45,5.08,-2.24,2.02,169.52178633975478
0,14.77,14.53,14.7,15.71,14.93,-62.99,-819.34,604.49,6.47,-1.79,-1.4,169.52178633975478
0,14.78,14.53,14.7,15.69,14.93,-46.88,-790.53,649.41,3.0,-3.01,2.31,169.52178633975478
0,14.77,14.53,14.69,15.68,14.92,-34.67,-793.95,657.71,-1.37,-1.97,2.11,168.52178633975478
0,14.75,14.52,14.68,15.63,14.89,-36.62,-779.3,671.39,-5.22,2.28,-0.45,165.52178633975487
0,14.7,14.52,14.68,15.56,14.86,-34.67,-839.84,604.49,-12.11,1.07,-0.13,162.52178633975475
0,14.66,14.51,14.68,15.52,14.84,-48.34,-797.36,634.77,-5.98,4.47,1.34,160.52178633975478
0,14.63,14.51,14.67,15.49,14.83,-36.13,-827.64,629.39,-8.26,3.73,0.95,159.5217863397548
0,14.61,14.5,14.67,15.48,14.82,-52.73,-818.36,599.61,-3.44,1.79,0.94,158.5217863397548
0,14.61,14.5,14.67,15.47,14.81,-50.29,-824.22,625.49,0.47,-2.11,2.08,157.52178633975484
0,14.6,14.5,14.67,15.45,14.81,-43.95,-790.04,634.28,-0.82,0.17,-1.54,157.52178633975484
0,14.6,14.5,14.67,15.41,14.79,-39.06,-818.36,621.58,-1.48,0.88,2.09,155.5217863397547
0,14.6,14.5,14.67,15.36,14.78,-27.34,-829.59,611.82,0.94,-0.46,2.88,154.52178633975473
0,14.6,14.5,14.67,15.32,14.77,-56.64,-818.36,615.72,0.05,-3.49,3.1,153.52178633975475
0,14.6,14.5,14.67,15.29,14.76,-35.16,-813.48,644.04,-4.28,3.07,-1.43,152.52178633975478
0,14.61,14.5,14.67,15.23,14.75,-36.13,-817.87,632.32,1.07,-2.63,-0.56,151.52178633975478
0,14.61,14.5,14.67,15.18,14.74,-32.23,-808.11,626.95,-1.63,-0.14,0.11,150.5217863397548
0,14.61,14.5,14.66,15.14,14.73,-45.41,-817.87,621.58,-2.73,2.02,-2.92,149.52178633975484
0,14.61,14.5,14.66,15.11,14.72,-38.09,-811.52,620.61,0.13,-0.08,-1.5,148.52178633975487
0,14.61,14.5,14.67,15.1,14.72,-47.85,-824.22,598.14,-0.47,-2.59,0.52,148.52178633975487
0,14.62,14.51,14.67,15.08,14.72,-32.23,-811.52,630.86,-0.67,0.08,-1.21,148.52178633975487
0,14.62,14.5,14.67,15.06,14.71,-41.99,-818.85,622.56,-2.66,1.97,-1.31,147.52178633975487
0,14.62,14.5,14.67,15.06,14.71,-37.6,-834.96,615.72,-0.68,-0.88,0.31,147.52178633975487
0,14.63,14.51,14.67,15.06,14.71,-52.25,-825.2,613.77,2.19,0.29,1.87,147.52178633975487
0,14.64,14.51,14.67,15.06,14.72,-40.53,-807.13,623.54,-0.18,1.88,-2.57,148.52178633975487
0,14.64,14.51,14.67,15.08,14.72,-38.57,-822.75,623.05,1.74,4.08,1.23,148.52178633975487
0,14.65,14.51,14.67,15.11,14.73,-36.62,-816.89,617.19,-0.42,0.8,-0.4,149.52178633975484
0,14.66,14.51,14.67,15.14,14.75,-53.71,-815.43,620.12,1.49,2.11,-0.94,151.52178633975478
0,14.67,14.52,14.67,15.15,14.75,-51.27,-829.1,628.91,-0.37,-0.46,-2.82,151.52178633975478
0,14.67,14.52,14.67,15.18,14.76,-33.2,-807.62,642.58,2.37,1.27,0.04,152.52178633975478
0,14.68,14.52,14.68,15.21,14.77,-40.04,-812.5,634.28,-0.16,2.56,-1.23,153.52178633975475
0,14.68,14.52,14.68,15.24,14.78,-50.78,-820.31,615.72,-0.15,2.8,0.21,154.52178633975473
0,14.67,14.51,14.68,15.27,14.78,-37.11,-804.69,611.33,-0.05,2.42,-0.95,154.52178633975473
0,14.67,14.51,14.68,15.3,14.79,-27.34,-821.78,633.79,-1.69,0.37,1.34,155.5217863397547
0,14.66,14.51,14.68,15.31,14.79,-45.9,-836.91,630.37,-0.99,3.31,-0.69,155.5217863397547
0,14.65,14.51,14.67,15.32,14.79,-38.09,-835.45,625.0,-1.89,4.78,-1.31,155.5217863397547
0,14.64,14.51,14.67,15.33,14.79,-35.64,-820.31,613.28,-0.47,-1.36,-0.24,155.5217863397547
0,14.63,14.51,14.67,15.33,14.79,-34.67,-821.29,638.18,0.82,2.5,0.23,155.5217863397547
0,14.62,14.51,14.67,15.34,14.78,-27.34,-815.92,624.02,-1.86,-0.23,-1.19,154.52178633975473
0,14.61,14.5,14.67,15.33,14.78,-40.04,-817.87,618.65,-1.02,0.6,-1.09,154.52178633975473
0,14.6,14.5,14.67,15.3,14.77,-51.27,-814.94,626.46,-1.7,-2.92,-0.95,153.52178633975475
0,14.57,14.5,14.67,15.23,14.74,-32.71,-812.99,629.88,-9.15,-1.44,-1.14,150.5217863397548
0,14.52,14.49,14.67,15.09,14.69,-45.41,-772.95,662.11,-30.79,11.6,1.99,145.52178633975475
0,14.49,14.48,14.66,14.87,14.63,-41.99,-820.8,636.72,-77.96,18.83,2.05,139.52178633975487
0,14.49,14.48,14.65,14.66,14.57,76.66,-1015.14,686.04,-94.8,58.35,47.55,133.5217863397548
0,14.49,14.48,14.65,14.53,14.54,173.34,-1195.8,563.96,18.35,86.93,60.92,130.5217863397547
0,14.48,14.48,14.64,14.48,14.52,-43.46,-963.38,725.59,42.31,123.51,45.82,128.52178633975475
0,14.48,14.48,14.64,14.47,14.52,310.55,-879.39,552.73,72.0,72.31,-4.0,128.52178633975475
0,14.48,14.48,14.64,14.47,14.52,326.66,-904.79,706.05,21.3,33.88,-31.28,128.52178633975475
0,14.48,14.48,14.64,14.47,14.52,478.03,-892.58,809.57,24.21,-36.47,-58.36,128.52178633975475
0,14.48,14.48,14.64,14.47,14.52,486.82,-941.41,752.93,18.2,-75.0,-83.13,128.52178633975475
0,14.48,14.48,14.64,14.46,14.52,319.82,-833.01,714.84,10.63,-94.37,-90.56,128.52178633975475
0,14.49,14.48,14.63,14.46,14.52,162.6,-685.06,605.47,13.5,-105.75,-114.8,128.52178633975475
0,14.48,14.48,14.63,14.46,14.51,59.08,-630.86,462.4,5.08,-112.24,-135.13,127.52178633975477
0,14.48,14.48,14.63,14.46,14.51,0.98,-605.96,365.23,-6.48,-119.56,-132.18,127.52178633975477
0,14.48,14.47,14.63,14.46,14.51,60.06,-605.47,348.63,-47.92,-115.69,-113.04,127.52178633975477
0,14.49,14.48,14.63,14.46,14.51,71.29,-712.89,341.8,-51.72,-105.21,-85.29,127.52178633975477
0,14.49,14.48,14.63,14.46,14.51,115.72,-750.0,370.61,-38.19,-97.54,-90.28,127.52178633975477
0,14.49,14.48,14.62,14.46,14.51,152.83,-942.87,449.71,-2.63,-77.44,-79.26,127.52178633975477
0,14.49,14.48,14.63,14.46,14.51,153.32,-837.4,475.1,24.12,-39.05,-37.65,127.52178633975477
0,14.49,14.48,14.63,14.45,14.51,-13.67,-807.13,469.24,30.73,21.89,1.44,127.52178633975477
0,14.49,14.48,14.62,14.45,14.51,-651.86,-1481.93,559.08,-20.33,64.53,77.28,127.52178633975477
0,14.49,14.48,14.62,14.43,14.51,292.97,-809.57,549.8,-12.42,86.72,128.03,127.52178633975477
0,14.5,14.51,14.63,14.43,14.52,68.36,-850.1,497.07,-44.02,85.3,69.79,128.52178633975475
0,14.51,14.53,14.63,14.42,14.52,367.68,-470.21,578.61,5.56,71.18,109.86,128.52178633975475
0,14.53,14.56,14.63,14.42,14.54,-10.74,-1227.05,515.14,28.82,52.66,124.63,130.5217863397547
0,14.58,14.58,14.64,14.42,14.56,26.86,-460.94,59.57,73.39,48.53,111.4,132.52178633975484
0,14.69,14.61,14.64,14.42,14.59,94.24,-1278.32,951.66,35.95,45.31,110.08,135.52178633975478
0,14.84,14.63,14.65,14.42,14.63,-157.71,-1041.5,599.12,63.56,58.15,83.91,139.52178633975487
0,15.0,14.63,14.66,14.6,14.72,-710.45,-458.5,801.27,164.43,22.4,34.98,148.52178633975487
0,15.05,14.62,14.68,14.75,14.78,249.02,-862.79,730.96,89.79,4.3,13.21,154.52178633975473
0,15.03,14.62,14.69,14.79,14.78,-23.44,-760.74,728.52,8.73,-1.56,-4.11,154.52178633975473
0,15.01,14.62,14.69,14.92,14.81,38.57,-783.2,607.91,6.83,5.64,-2.62,157.52178633975484
0,14.98,14.61,14.69,15.0,14.82,2.44,-758.3,682.62,-0.83,3.28,2.69,158.5217863397548
0,14.93,14.6,14.7,15.06,14.82,-41.5,-791.5,626.46,-18.56,7.97,-1.11,158.5217863397548
0,14.9,14.59,14.7,15.13,14.83,-35.64,-827.64,600.1,-7.55,3.89,-0.95,159.5217863397548
0,14.89,14.59,14.7,15.17,14.84,-35.64,-794.43,642.09,-4.02,-1.41,2.52,160.52178633975478
0,14.88,14.58,14.7,15.2,14.84,-36.13,-806.64,636.23,-4.82,3.08,1.82,160.52178633975478
0,14.87,14.58,14.7,15.26,14.85,-37.11,-797.36,641.11,-5.29,0.79,2.2,161.52178633975473
0,14.86,14.57,14.7,15.34,14.87,-35.64,-815.92,632.81,-5.37,3.33,-1.05,163.5217863397547
0,14.85,14.57,14.7,15.41,14.88,-59.08,-816.89,619.63,-7.85,2.21,-1.21,164.52178633975484
0,14.83,14.57,14.71,15.47,14.89,-43.46,-838.87,613.77,-11.69,2.35,-1.2,165.52178633975487
0,14.81,14.56,14.72,15.51,14.9,-62.01,-845.7,590.82,-6.91,3.37,-1.52,166.5217863397548
0,14.8,14.56,14.72,15.53,14.9,-41.02,-833.5,604.0,-0.84,-2.04,0.84,166.5217863397548
0,14.8,14.56,14.71,15.56,14.91,-45.9,-815.92,590.82,5.84,1.89,1.29,167.52178633975484
0,14.8,14.56,14.71,15.57,14.91,-54.69,-827.64,627.93,9.35,-3.5,1.49,167.52178633975484
0,14.81,14.56,14.7,15.59,14.91,-32.23,-809.08,636.23,10.93,-3.82,0.22,167.52178633975484
0,14.81,14.56,14.7,15.61,14.92,-39.06,-801.76,635.74,7.85,-2.97,1.12,168.52178633975478
0,14.8,14.56,14.69,15.66,14.93,-31.74,-802.25,640.62,4.81,-1.55,0.38,169.52178633975478
0,14.79,14.55,14.69,15.69,14.93,-56.15,-829.59,607.91,5.83,-2.74,1.37,169.52178633975478
0,14.79,14.55,14.69,15.7,14.93,-48.34,-825.68,614.26,9.39,-8.31,2.27,169.52178633975478
0,14.79,14.54,14.68,15.7,14.93,-38.09,-815.92,648.93,8.56,-2.49,2.29,169.52178633975478
0,14.79,14.53,14.68,15.68,14.92,-49.32,-791.5,662.6,2.36,0.84,-0.53,168.52178633975478
0,14.77,14.53,14.67,15.65,14.91,-46.39,-794.43,633.79,0.97,-1.89,1.82,167.52178633975484
0,14.76,14.52,14.67,15.55,14.87,-54.69,-788.57,653.32,-3.46,3.06,0.83,163.5217863397547
0,14.73,14.52,14.67,15.44,14.84,-49.8,-818.85,629.88,-11.91,3.42,-0.27,160.52178633975478
0,14.7,14.51,14.66,15.38,14.81,-29.79,-793.46,657.71,-6.21,2.16,-0.38,157.52178633975484
0,14.67,14.51,14.66,15.35,14.8,-64.94,-796.39,651.37,-4.8,3.27,-0.8,156.52178633975487
0,14.66,14.51,14.66,15.33,14.79,-30.76,-824.71,613.77,-3.85,1.75,-0.82,155.5217863397547
0,14.65,14.51,14.66,15.31,14.78,-63.48,-821.78,621.09,-2.62,2.08,0.85,154.52178633975473
0,14.64,14.5,14.66,15.3,14.77,-35.16,-816.89,645.51,-2.47,2.08,-0.6,153.52178633975475
0,14.63,14.5,14.66,15.27,14.77,-45.41,-800.29,619.63,-4.98,0.72,0.08,153.52178633975475
0,14.62,14.5,14.66,15.24,14.76,-55.18,-811.52,618.16,-3.36,-2.0,-0.24,152.52178633975478
0,14.62,14.5,14.66,15.23,14.75,-18.55,-808.59,624.51,-1.04,1.38,-1.11,151.52178633975478
0,14.61,14.5,14.66,15.22,14.75,-56.15,-825.2,622.07,-0.52,-0.36,0.26,151.52178633975478
0,14.61,14.5,14.66,15.21,14.75,-53.71,-811.52,626.95,-1.55,1.29,-2.07,151.52178633975478
0,14.62,14.5,14.66,15.2,14.75,-56.15,-820.31,626.46,2.81,-0.26,3.47,151.52178633975478
0,14.62,14.5,14.66,15.21,14.75,-32.23,-808.59,631.35,0.61,0.2,-2.19,151.52178633975478
0,14.63,14.5,14.66,15.22,14.75,-53.71,-819.34,628.91,0.82,1.25,-1.53,151.52178633975478
0,14.64,14.5,14.66,15.22,14.76,-53.22,-817.38,629.39,0.02,-0.12,-1.27,152.52178633975478
0,14.64,14.51,14.66,15.23,14.76,-49.32,-804.69,631.35,-0.33,1.27,-2.56,152.52178633975478
0,14.65,14.51,14.66,15.25,14.77,-36.13,-805.18,627.44,0.8,-0.64,-1.84,153.52178633975475
0,14.65,14.51,14.66,15.25,14.77,-51.27,-818.85,620.12,-2.78,-0.06,-1.13,153.52178633975475
0,14.66,14.51,14.66,15.25,14.77,-42.97,-799.8,620.12,0.72,-1.12,-0.54,153.52178633975475
0,14.66,14.51,14.67,15.25,14.77,-40.53,-806.15,621.58,-0.27,1.21,-1.75,153.52178633975475
0,14.66,14.51,14.67,15.26,14.77,-46.39,-794.92,647.46,-0.89,2.44,-0.92,153.52178633975475
0,14.66,14.51,14.67,15.26,14.78,-39.55,-818.85,611.33,-3.08,4.71,0.98,154.52178633975473
0,14.67,14.51,14.67,15.27,14.78,-29.3,-801.76,640.62,3.44,1.73,-0.87,154.52178633975473
0,14.67,14.51,14.67,15.29,14.78,-28.81,-809.57,626.95,-1.63,2.19,-1.91,154.52178633975473
0,14.67,14.51,14.67,15.29,14.79,-49.8,-790.53,634.77,2.18,0.85,0.5,155.5217863397547
0,14.67,14.51,14.67,15.3,14.79,-38.57,-827.64,619.63,-1.08,-1.6,-0.38,155.5217863397547
0,14.67,14.51,14.67,15.31,14.79,-42.48,-808.11,611.33,-1.44,0.32,0.52,155.5217863397547
0,14.67,14.51,14.67,15.29,14.79,-52.25,-826.17,618.65,-0.96,3.28,-0.57,155.5217863397547
0,14.67,14.51,14.67,15.27,14.78,-53.71,-807.62,633.3,-1.7,0.2,-0.11,154.52178633975473
0,14.66,14.51,14.67,15.25,14.77,-45.41,-820.31,608.4,-0.3,-0.32,-1.85,153.52178633975475
0,14.66,14.51,14.67,15.21,14.76,-39.55,-812.01,625.49,-1.55,0.63,-0.2,152.52178633975478
0,14.65,14.51,14.67,15.16,14.75,-46.88,-821.29,621.09,-0.84,-1.34,-0.24,151.52178633975478
0,14.65,14.51,14.67,15.12,14.74,-42.97,-807.13,619.63,-3.53,-1.2,0.4,150.5217863397548
0,14.64,14.51,14.66,15.08,14.72,-48.83,-813.96,606.93,-3.03,-0.98,1.88,148.52178633975487
0,14.63,14.5,14.66,15.03,14.71,-43.95,-810.06,617.19,-3.76,1.64,0.01,147.52178633975487
0,14.61,14.5,14.66,14.99,14.69,-26.86,-807.62,636.23,-5.81,1.86,2.45,145.52178633975475
0,14.6,14.5,14.66,14.96,14.68,-58.11,-840.33,610.35,-7.3,2.81,2.56,144.52178633975475
0,14.58,14.5,14.66,14.94,14.67,-44.43,-831.05,625.98,-3.4,-0.18,0.82,143.52178633975478
0,14.57,14.5,14.65,14.91,14.66,-63.48,-799.8,617.19,-4.02,0.66,-0.11,142.5217863397548
0,14.57,14.5,14.65,14.89,14.65,-47.36,-821.29,613.28,-6.1,3.79,-0.24,141.52178633975484
0,14.56,14.5,14.65,14.86,14.64,-56.64,-808.59,616.21,-6.34,1.5,0.43,140.52178633975484
0,14.55,14.5,14.65,14.79,14.62,-70.8,-853.03,572.75,-12.84,3.82,-2.05,138.52178633975473
0,14.54,14.49,14.65,14.72,14.6,-76.66,-834.47,600.1,-13.05,1.07,-1.22,136.52178633975475
0,14.53,14.49,14.65,14.64,14.58,-46.88,-825.2,602.54,-18.93,3.21,-0.63,134.5217863397548
0,14.52,14.49,14.64,14.58,14.56,-87.89,-876.95,557.13,-25.8,-0.65,-1.36,132.52178633975484
0,14.52,14.49,14.64,14.53,14.54,-52.25,-867.68,577.15,-26.0,2.06,-6.75,130.5217863397547
0,14.52,14.49,14.64,14.49,14.53,-37.6,-871.58,559.57,-25.66,0.63,-4.56,129.52178633975473
0,14.52,14.49,14.64,14.48,14.53,-82.03,-892.09,604.0,-7.9,-5.15,-13.56,129.52178633975473
0,14.52,14.49,14.64,14.47,14.53,109.37,-771.48,489.75,-2.48,3.56,-4.75,129.52178633975473
0,14.52,14.49,14.63,14.47,14.53,-49.32,-755.86,530.76,3.84,4.91,6.74,129.52178633975473
0,14.52,14.49,14.63,14.48,14.53,-32.71,-959.47,618.16,9.05,-3.4,9.21,129.52178633975473
0,14.52,14.49,14.63,14.49,14.53,-80.08,-867.68,564.94,14.15,-1.67,1.51,129.52178633975473
0,14.52,14.49,14.63,14.5,14.53,-28.32,-875.49,558.11,6.34,-0.37,1.5,129.52178633975473
0,14.52,14.49,14.63,14.51,14.54,-74.71,-874.02,547.85,4.4,-1.3,3.77,130.5217863397547
0,14.52,14.49,14.63,14.51,14.54,-44.92,-839.84,577.15,-0.15,1.75,0.71,130.5217863397547
0,14.52,14.49,14.64,14.52,14.54,-35.16,-862.79,563.48,0.61,0.82,2.5,130.5217863397547
0,14.52,14.49,14.64,14.52,14.54,-81.05,-872.07,542.48,3.97,3.48,-1.86,130.5217863397547
0,14.52,14.49,14.64,14.5,14.54,-83.5,-862.3,551.27,-13.7,1.1,-4.4,130.5217863397547
0,14.52,14.49,14.64,14.47,14.53,-64.45,-870.12,586.43,-26.13,-0.44,-10.01,129.52178633975473
0,14.53,14.49,14.64,14.44,14.52,-98.14,-911.62,566.41,-51.98,-5.22,-14.33,128.52178633975475
0,14.53,14.49,14.64,14.43,14.52,-228.03,-1124.02,647.46,-25.41,-32.0,-40.06,128.52178633975475
0,14.53,14.49,14.63,14.42,14.52,-126.46,-1183.11,564.94,-26.37,-36.29,-78.09,128.52178633975475
0,14.52,14.49,14.63,14.42,14.51,-204.59,-1708.98,600.1,-28.38,-35.6,-102.95,127.52178633975477
0,14.51,14.48,14.63,14.42,14.51,-43.95,-926.27,483.4,-31.17,-13.85,-130.92,127.52178633975477
0,14.5,14.48,14.63,14.43,14.51,-386.23,-1431.64,355.96,-39.37,5.69,-100.16,127.52178633975477
0,14.5,14.48,14.63,14.42,14.51,-445.31,-905.27,434.08,6.37,4.83,-15.36,127.52178633975477
0,14.5,14.48,14.63,14.42,14.51,-440.43,-763.67,406.74,-10.27,40.89,14.94,127.52178633975477
0,14.49,14.48,14.63,14.42,14.51,-449.71,-757.32,399.9,4.2,61.66,48.4,127.52178633975477
0,14.49,14.48,14.63,14.42,14.51,-433.59,-679.69,358.4,8.09,61.9,77.35,127.52178633975477
0,14.49,14.48,14.63,14.42,14.51,-349.12,-677.73,327.64,-3.55,45.21,91.53,127.52178633975477
0,14.49,14.48,14.63,14.42,14.5,-235.84,-698.73,326.66,-18.24,20.01,95.63,126.5217863397548
0,14.5,14.48,14.63,14.42,14.51,-110.84,-797.85,375.0,-27.82,-2.44,94.48,127.52178633975477
0,14.5,14.48,14.63,14.42,14.5,51.27,-896.48,433.59,-17.54,-14.77,95.46,126.5217863397548
0,14.49,14.48,14.63,14.42,14.5,176.27,-920.41,458.5,-20.02,-3.26,112.66,126.5217863397548
0,14.49,14.48,14.62,14.42,14.5,217.77,-1027.83,483.89,-16.48,11.12,115.73,126.5217863397548
0,14.49,14.48,14.63,14.42,14.5,281.74,-998.54,461.91,-1.11,3.46,92.4,126.5217863397548
0,14.49,14.48,14.63,14.42,14.5,356.93,-1090.33,506.84,-5.21,5.81,57.18,126.5217863397548
0,14.5,14.48,14.63,14.42,14.5,307.13,-1041.5,469.24,-0.63,11.44,42.66,126.5217863397548
0,14.49,14.48,14.63,14.42,14.5,126.95,-893.07,412.6,8.95,18.77,21.46,126.5217863397548
0,14.49,14.48,14.63,14.42,14.5,-19.04,-947.75,424.8,-3.55,17.07,-7.41,126.5217863397548
0,14.5,14.48,14.63,14.43,14.51,-96.68,-905.76,424.8,10.56,-2.93,-10.96,127.52178633975477
0,14.49,14.48,14.62,14.45,14.51,408.69,-952.64,326.17,-1.11,-36.37,-81.53,127.52178633975477
0,14.49,14.48,14.63,14.48,14.52,-278.32,-941.89,594.24,52.77,-58.75,-68.39,128.52178633975475
0,14.49,14.48,14.63,14.53,14.53,-176.76,-728.52,702.15,47.27,-40.69,-61.29,129.52178633975473
0,14.49,14.48,14.63,14.56,14.54,-65.43,-942.38,539.55,9.12,-39.63,-52.01,130.5217863397547
0,14.49,14.48,14.63,14.6,14.55,-38.57,-977.05,575.2,2.82,-22.08,-34.24,131.52178633975487
0,14.49,14.48,14.63,14.66,14.56,-108.4,-938.48,464.36,22.55,-27.02,-19.96,132.52178633975484
0,14.49,14.48,14.63,14.76,14.59,-117.19,-902.83,537.11,46.95,-39.08,-36.66,135.52178633975478
0,14.49,14.48,14.64,14.9,14.63,-62.5,-869.14,520.02,79.6,-38.27,-30.13,139.52178633975487
0,14.5,14.48,14.64,15.05,14.67,-67.87,-857.42,596.19,45.42,-7.24,-5.23,143.52178633975478
0,14.53,14.49,14.64,15.13,14.7,-17.58,-809.08,577.15,21.76,-7.39,-3.44,146.52178633975473
0,14.59,14.51,14.65,15.33,14.77,-11.23,-805.18,583.01,26.85,-7.77,-1.05,153.52178633975475
0,14.66,14.52,14.66,15.47,14.83,-19.04,-765.62,744.63,12.31,-0.19,-3.44,159.5217863397548
0,14.7,14.53,14.66,15.47,14.84,-52.73,-834.96,594.73,0.83,1.22,-3.49,160.52178633975478
0,14.76,14.55,14.66,15.42,14.85,-52.73,-870.12,567.87,3.56,-9.18,0.72,161.52178633975473
0,14.83,14.57,14.66,15.39,14.86,-37.11,-803.71,648.44,3.52,-9.26,2.97,162.52178633975475
0,14.85,14.58,14.66,15.36,14.86,-35.64,-804.2,632.81,0.95,-4.73,0.67,162.52178633975475
0,14.85,14.59,14.66,15.33,14.86,-40.04,-805.18,656.25,0.82,-6.93,1.19,162.52178633975475
0,14.85,14.6,14.65,15.3,14.85,-33.2,-786.62,649.41,2.17,-3.46,1.05,161.52178633975473
0,14.85,14.61,14.66,15.25,14.84,-37.6,-777.34,665.53,-1.19,3.23,-2.3,160.52178633975478
0,14.86,14.61,14.66,15.21,14.83,-42.48,-820.8,624.51,-2.35,0.98,-2.76,159.5217863397548
0,14.86,14.62,14.66,15.18,14.83,-33.69,-794.92,641.6,-1.45,2.29,-1.11,159.5217863397548
0,14.86,14.63,14.66,15.17,14.83,-36.13,-811.04,621.58,0.01,6.03,-3.73,159.5217863397548
0,14.85,14.63,14.66,15.18,14.83,-38.57,-804.69,633.79,-0.46,6.11,-2.95,159.5217863397548
0,14.85,14.63,14.67,15.2,14.84,-27.83,-802.25,629.88,2.33,8.13,-3.59,160.52178633975478
0,14.85,14.63,14.67,15.2,14.84,-18.55,-795.9,642.58,1.69,2.92,-4.04,160.52178633975478
0,14.85,14.63,14.68,15.22,14.85,-23.44,-812.01,643.07,0.94,3.5,-2.2,161.52178633975473
0,14.84,14.63,14.68,15.25,14.85,-33.69,-816.89,631.84,1.83,5.05,-2.91,161.52178633975473
0,14.84,14.63,14.68,15.23,14.84,-46.88,-811.04,635.25,-0.01,0.4,-1.95,160.52178633975478
0,14.85,14.62,14.68,15.21,14.84,-34.67,-819.34,622.56,1.7,-3.79,-0.75,160.52178633975478
0,14.87,14.62,14.68,15.21,14.85,-42.48,-809.57,626.46,3.9,0.01,-1.43,161.52178633975473
0,14.88,14.62,14.68,15.21,14.85,-20.02,-802.25,667.97,3.54,-3.05,0.85,161.52178633975473
0,14.89,14.62,14.68,15.22,14.85,-25.88,-802.73,637.21,1.85,0.79,2.2,161.52178633975473
0,14.89,14.61,14.68,15.23,14.85,-26.86,-784.67,655.76,1.66,0.47,-0.34,161.52178633975473
0,14.89,14.6,14.68,15.22,14.85,-44.92,-814.94,603.03,-0.61,0.17,1.13,161.52178633975473
0,14.9,14.6,14.68,15.19,14.84,-43.95,-807.13,624.02,2.66,-1.52,0.23,160.52178633975478
0,14.92,14.59,14.67,15.12,14.82,-34.18,-794.43,650.88,-2.4,-0.79,-0.53,158.5217863397548
0,14.92,14.58,14.67,15.04,14.8,-27.83,-811.52,631.84,-5.04,-1.9,-0.18,156.52178633975487
0,14.91,14.57,14.67,15.0,14.79,-26.37,-811.04,638.67,-2.98,-3.49,-0.47,155.5217863397547
0,14.91,14.57,14.67,15.0,14.79,-30.76,-820.31,646.0,-0.4,-2.45,2.54,155.5217863397547
0,14.89,14.56,14.67,15.02,14.78,-19.53,-779.3,668.46,-0.18,2.33,-0.47,154.52178633975473
0,14.86,14.55,14.66,15.01,14.77,-49.32,-802.73,648.93,-1.02,1.84,0.2,153.52178633975475
0,14.85,14.55,14.66,14.99,14.76,-41.02,-789.55,640.62,0.4,-1.56,-2.13,152.52178633975478
0,14.84,14.55,14.66,14.98,14.76,-43.46,-802.73,628.42,-3.49,-0.38,0.56,152.52178633975478
0,14.81,14.54,14.66,15.0,14.75,-8.3,-789.06,678.71,1.66,4.4,0.13,151.52178633975478
0,14.8,14.54,14.66,14.97,14.74,-37.11,-804.69,647.95,-1.78,-2.89,-0.82,150.5217863397548
0,14.8,14.53,14.66,14.95,14.74,-49.32,-801.27,645.02,-0.65,-1.11,-1.38,150.5217863397548
0,14.79,14.53,14.66,14.95,14.73,-39.06,-812.01,640.14,1.32,-1.04,-0.09,149.52178633975484
0,14.77,14.53,14.66,14.98,14.73,-22.95,-793.46,652.34,-1.73,5.53,1.05,149.52178633975484
0,14.74,14.52,14.66,14.99,14.73,-39.06,-818.85,624.51,-0.4,1.88,1.88,149.52178633975484
0,14.72,14.52,14.66,14.99,14.72,-31.25,-793.95,644.53,-1.99,-2.55,1.73,148.52178633975487
0,14.71,14.52,14.66,15.01,14.72,-39.06,-798.34,648.93,-0.6,1.59,-1.67,148.52178633975487
0,14.68,14.51,14.66,15.02,14.72,-38.09,-806.64,633.79,-3.4,2.53,-0.81,148.52178633975487
0,14.68,14.51,14.66,15.0,14.71,-13.67,-836.43,623.05,-1.58,2.24,-1.97,147.52178633975487
0,14.69,14.51,14.66,15.0,14.71,-18.07,-785.64,649.41,-1.4,1.47,-3.79,147.52178633975487
0,14.69,14.51,14.66,15.01,14.72,-22.46,-793.46,643.07,-1.62,5.37,-1.01,148.52178633975487
0,14.68,14.51,14.66,15.01,14.72,-55.66,-796.87,645.02,-1.9,1.46,1.02,148.52178633975487
0,14.68,14.51,14.66,15.01,14.71,-40.04,-807.13,633.3,-0.66,3.95,-2.14,147.52178633975487
0,14.68,14.51,14.66,15.01,14.71,-30.27,-816.89,638.67,-0.96,0.49,-0.37,147.52178633975487
0,14.68,14.51,14.66,15.01,14.71,-19.53,-812.01,642.58,0.25,0.96,-1.62,147.52178633975487
0,14.67,14.51,14.66,15.01,14.71,-49.8,-825.2,618.16,0.51,0.01,0.53,147.52178633975487
0,14.68,14.51,14.66,15.01,14.71,-42.97,-814.45,624.51,-2.33,0.67,-1.72,147.52178633975487
0,14.68,14.51,14.66,15.0,14.71,-45.9,-830.57,623.05,-1.49,2.37,-3.07,147.52178633975487
0,14.68,14.51,14.66,15.0,14.71,-38.09,-808.59,651.37,2.53,-0.34,-1.49,147.52178633975487
0,14.69,14.52,14.66,15.0,14.72,-30.76,-792.48,650.39,-1.3,2.4,0.17,148.52178633975487
0,14.7,14.51,14.66,15.0,14.72,-37.6,-809.08,626.46,-1.59,-0.74,0.25,148.52178633975487
0,14.7,14.52,14.66,15.0,14.72,-41.99,-812.99,645.02,-2.42,-0.82,-0.93,148.52178633975487
0,14.7,14.52,14.66,15.0,14.72,-31.25,-805.66,643.07,-1.7,3.48,-4.0,148.52178633975487
0,14.7,14.52,14.66,15.0,14.72,-36.13,-812.01,625.0,-0.03,-0.59,-0.5,148.52178633975487
0,14.7,14.52,14.66,15.01,14.72,-34.67,-815.92,627.93,-0.84,-2.24,1.11,148.52178633975487
0,14.7,14.52,14.66,15.0,14.72,-31.74,-811.04,633.3,-0.35,0.69,-2.63,148.52178633975487
0,14.7,14.52,14.66,15.01,14.72,-37.6,-811.52,635.25,-2.15,0.16,-2.27,148.52178633975487
0,14.7,14.52,14.66,15.01,14.72,-32.71,-808.59,628.42,-0.09,1.42,-1.27,148.52178633975487
0,14.7,14.52,14.66,15.01,14.72,-45.41,-810.06,627.44,0.0,-0.5,-0.6,148.52178633975487
0,14.7,14.52,14.66,15.02,14.72,-48.83,-810.55,635.25,0.6,-0.96,0.47,148.52178633975487
0,14.71,14.52,14.66,15.02,14.73,-42.48,-817.38,629.39,1.44,-1.66,-1.3,149.52178633975484
0,14.71,14.52,14.66,15.02,14.73,-46.39,-793.95,632.81,0.16,-1.77,0.04,149.52178633975484
0,14.71,14.52,14.66,15.02,14.73,-30.76,-808.11,617.68,-0.11,1.13,-0.53,149.52178633975484
0,14.71,14.52,14.66,15.02,14.73,-49.8,-814.45,644.04,-0.16,1.24,-0.21,149.52178633975484
0,14.72,14.52,14.66,15.02,14.73,-46.88,-809.57,627.93,0.22,0.69,-0.44,149.52178633975484
0,14.72,14.52,14.66,15.03,14.73,-28.81,-811.52,629.88,-0.21,1.26,-0.22,149.52178633975484
0,14.72,14.52,14.66,15.03,14.73,-42.97,-803.71,639.16,-0.72,1.31,3.75,149.52178633975484
0,14.71,14.52,14.66,15.03,14.73,-47.85,-814.94,625.0,-1.28,-3.1,0.14,149.52178633975484
0,14.71,14.52,14.66,15.02,14.73,-49.8,-818.85,627.93,0.2,-0.73,0.76,149.52178633975484
0,14.71,14.52,14.66,15.0,14.72,-44.43,-815.43,629.88,-1.93,-2.03,0.08,148.52178633975487
0,14.7,14.52,14.66,14.99,14.72,-41.02,-813.48,633.3,-1.63,-0.31,0.76,148.52178633975487
0,14.7,14.52,14.66,14.98,14.71,-31.25,-806.15,643.55,-0.31,-2.29,0.32,147.52178633975487
0,14.7,14.52,14.66,14.97,14.71,-45.41,-808.59,635.74,-3.08,0.66,-0.4,147.52178633975487
0,14.69,14.52,14.66,14.96,14.71,-40.04,-805.66,628.42,-2.31,-2.08,-0.31,147.52178633975487
0,14.69,14.52,14.66,14.96,14.71,-43.95,-796.87,633.3,-0.37,-1.22,0.26,147.52178633975487
0,14.69,14.51,14.66,14.97,14.71,-40.53,-813.48,629.39,2.24,-0.38,0.46,147.52178633975487
0,14.69,14.52,14.66,14.98,14.71,-41.02,-818.36,646.0,1.17,1.31,-1.36,147.52178633975487
0,14.68,14.51,14.66,14.98,14.71,-33.69,-809.57,638.18,0.37,1.19,1.04,147.52178633975487
0,14.68,14.51,14.66,14.98,14.71,-48.34,-799.8,639.65,0.44,0.3,-2.5,147.52178633975487
0,14.68,14.51,14.66,14.97,14.71,-49.32,-805.66,655.27,-1.54,2.92,-0.4,147.52178633975487
0,14.69,14.52,14.66,14.94,14.7,-49.8,-811.52,622.56,-4.1,-0.6,-0.96,146.52178633975473
0,14.71,14.52,14.66,14.92,14.7,-40.53,-827.15,616.7,0.97,-3.27,-5.24,146.52178633975473
0,14.75,14.53,14.66,14.94,14.72,-40.53,-798.34,643.55,8.59,-1.94,-5.53,148.52178633975487
0,14.78,14.54,14.66,14.99,14.75,-23.44,-791.02,648.44,7.49,1.85,-3.95,151.52178633975478
0,14.81,14.55,14.67,15.07,14.77,-53.71,-810.06,610.35,2.46,-0.44,-1.49,153.52178633975475
0,14.83,14.55,14.67,15.21,14.81,-20.51,-801.76,665.53,11.34,-0.56,2.13,157.52178633975484
0,14.85,14.55,14.67,15.36,14.86,-12.7,-781.74,640.14,7.76,-1.69,1.88,162.52178633975475
0,14.86,14.55,14.67,15.5,14.89,-33.2,-793.46,660.16,4.44,-3.32,1.5,165.52178633975487
0,14.87,14.55,14.67,15.53,14.91,-50.29,-793.46,661.13,-2.3,0.0,0.65,167.52178633975484
0,14.87,14.55,14.67,15.52,14.9,-21.48,-794.43,647.95,-3.99,-4.9,-0.72,166.5217863397548
0,14.87,14.55,14.67,15.53,14.91,-13.67,-778.81,669.92,-0.8,-2.4,1.97,167.52178633975484
0,14.87,14.55,14.67,15.57,14.91,-22.95,-778.81,661.13,-2.91,-0.62,-0.92,167.52178633975484
0,14.85,14.55,14.66,15.63,14.92,-32.71,-792.48,659.18,-5.05,2.34,-1.23,168.52178633975478
0,14.82,14.54,14.67,15.71,14.93,-29.79,-793.95,658.2,-4.66,4.24,-0.94,169.52178633975478
0,14.79,14.54,14.67,15.73,14.93,-49.32,-839.84,605.96,-0.31,-1.93,-0.35,169.52178633975478
0,14.77,14.54,14.66,15.76,14.93,-47.85,-793.46,649.41,0.84,-0.13,0.4,169.52178633975478
0,14.75,14.53,14.67,15.79,14.94,-24.41,-796.39,657.23,1.12,-1.3,0.05,170.52178633975473
0,14.72,14.53,14.67,15.82,14.93,-33.2,-807.62,636.72,-0.34,0.93,-0.82,169.52178633975478
0,14.7,14.52,14.67,15.86,14.94,-30.27,-791.99,659.67,1.19,1.69,-1.57,170.52178633975473
0,14.68,14.52,14.67,15.85,14.93,-29.79,-778.81,647.46,-2.04,0.69,0.02,169.52178633975478
0,14.67,14.52,14.67,15.85,14.93,-34.67,-818.36,610.84,-2.45,-0.08,-0.96,169.52178633975478
0,14.66,14.52,14.67,15.86,14.93,-33.69,-778.32,676.27,-1.66,2.05,0.63,169.52178633975478
0,14.64,14.52,14.67,15.83,14.91,-33.69,-798.83,643.55,-5.79,4.07,-4.21,167.52178633975484
0,14.62,14.51,14.67,15.82,14.91,-55.18,-808.59,621.58,-3.94,-1.23,1.43,167.52178633975484
0,14.61,14.51,14.67,15.8,14.9,-36.13,-788.57,670.41,-5.65,0.42,1.35,166.5217863397548
0,14.58,14.51,14.67,15.76,14.88,-47.85,-813.48,611.33,-6.59,1.98,0.56,164.52178633975484
0,14.55,14.5,14.67,15.7,14.86,-31.25,-791.02,667.97,-10.54,2.72,0.21,162.52178633975475
0,14.51,14.5,14.67,15.6,14.82,-35.64,-810.55,633.79,-27.31,9.42,1.5,158.5217863397548
0,14.5,14.49,14.66,15.4,14.76,40.53,-768.07,737.79,-56.08,18.12,13.53,152.52178633975478
0,14.49,14.49,14.64,15.1,14.68,36.13,-971.68,712.89,-102.79,77.31,76.79,144.52178633975475
0,14.5,14.48,14.64,14.91,14.63,94.73,-1253.91,633.79,-51.3,87.58,104.48,139.52178633975487
0,14.49,14.48,14.63,14.76,14.59,-176.27,-927.25,802.25,-10.42,104.16,138.15,135.52178633975478
0,14.49,14.48,14.63,14.63,14.56,-214.36,-972.17,607.42,-40.32,100.71,150.21,132.52178633975484
0,14.49,14.48,14.63,14.49,14.52,-239.26,-790.53,466.31,-43.95,102.04,153.41,128.52178633975475
0,14.49,14.48,14.63,14.46,14.51,-73.24,-994.63,591.8,-72.88,97.44,123.76,127.52178633975477
0,14.49,14.48,14.63,14.46,14.51,-11.23,-938.48,518.55,12.16,-3.39,-6.73,127.52178633975477
0,14.49,14.48,14.63,14.46,14.51,121.58,-723.63,425.78,9.18,-14.36,-24.59,127.52178633975477
0,14.49,14.48,14.63,14.45,14.51,-59.08,-735.84,404.79,-10.14,-12.31,-34.35,127.52178633975477
0,14.49,14.48,14.63,14.45,14.51,-110.35,-678.22,387.21,5.82,-16.53,-91.45,127.52178633975477
0,14.49,14.48,14.62,14.45,14.51,-69.34,-867.68,458.01,25.28,-15.06,-130.63,127.52178633975477
0,14.49,14.48,14.62,14.45,14.51,-49.8,-831.54,367.19,24.15,-6.72,-91.55,127.52178633975477
0,14.49,14.48,14.62,14.45,14.51,-145.02,-800.78,360.84,2.75,-5.27,-91.36,127.52178633975477
0,14.49,14.48,14.62,14.44,14.51,-233.4,-867.68,396.48,-2.79,-12.94,-116.21,127.52178633975477
0,14.49,14.48,14.62,14.44,14.51,-287.11,-1132.81,519.04,9.95,-21.23,-118.06,127.52178633975477
0,14.49,14.48,14.62,14.44,14.51,-359.86,-1010.74,467.77,29.63,-32.61,-87.62,127.52178633975477
0,14.49,14.48,14.62,14.44,14.51,-442.38,-894.04,353.52,31.58,-49.63,-83.18,127.52178633975477
0,14.49,14.48,14.62,14.44,14.51,-368.65,-894.53,360.35,13.87,-54.12,-78.73,127.52178633975477
0,14.49,14.48,14.62,14.44,14.51,-211.91,-985.35,445.31,-2.6,-48.85,-68.28,127.52178633975477
0,14.49,14.48,14.62,14.44,14.51,-267.09,-1007.32,440.92,12.85,-37.34,-35.73,127.52178633975477
0,14.49,14.48,14.62,14.44,14.51,-260.74,-907.23,419.92,14.44,-25.34,-25.78,127.52178633975477
0,14.49,14.48,14.62,14.44,14.51,-211.91,-887.21,457.52,3.7,-31.63,-27.05,127.52178633975477
0,14.49,14.48,14.62,14.44,14.51,-194.34,-1008.3,470.7,13.4,-44.66,-7.72,127.52178633975477
0,14.49,14.48,14.62,14.44,14.51,-255.86,-908.69,480.96,10.24,-47.49,34.22,127.52178633975477
0,14.49,14.48,14.62,14.44,14.5,-324.22,-942.87,443.36,11.68,-63.01,35.84,126.5217863397548
0,14.49,14.48,14.61,14.44,14.5,-265.62,-1221.68,322.27,-2.54,-71.98,45.87,126.5217863397548
0,14.49,14.48,14.61,14.43,14.5,-190.43,-147.46,159.18,-2.98,2.75,73.05,126.5217863397548
0,14.5,14.49,14.61,14.43,14.51,103.03,-1269.53,595.21,7.02,0.3,40.44,127.52178633975477
0,14.53,14.5,14.62,14.42,14.52,-113.28,-1416.02,774.41,16.37,41.12,39.26,128.52178633975475
0,14.55,14.51,14.63,14.42,14.53,-74.22,-1097.17,592.77,28.35,27.46,34.59,129.52178633975473
0,14.59,14.53,14.64,14.43,14.55,-71.29,-962.4,430.18,49.43,19.04,26.0,131.52178633975487
0,14.64,14.54,14.65,14.5,14.58,-202.64,-783.69,714.36,62.79,-33.69,10.73,134.5217863397548
0,14.68,14.55,14.65,14.57,14.61,59.08,-643.07,721.68,28.53,21.51,9.98,137.52178633975473
0,14.69,14.56,14.66,14.62,14.63,-16.6,-859.37,579.59,11.2,-5.89,7.52,139.52178633975487
0,14.7,14.56,14.66,14.68,14.65,-66.41,-885.74,561.52,16.73,-3.6,2.51,141.52178633975484
0,14.71,14.57,14.66,14.78,14.68,-42.97,-831.54,634.28,11.68,-3.0,1.4,144.52178633975475
0,14.71,14.56,14.66,14.91,14.71,-51.27,-801.27,637.21,10.5,-1.73,1.47,147.52178633975487
0,14.71,14.57,14.66,14.95,14.72,-70.31,-818.36,596.19,5.9,-3.66,0.17,148.52178633975487
0,14.72,14.57,14.66,14.99,14.73,-30.76,-807.13,646.0,8.73,-6.23,0.48,149.52178633975484
0,14.72,14.57,14.66,15.05,14.75,-43.95,-808.59,635.74,6.27,-4.99,3.76,151.52178633975478
0,14.73,14.57,14.66,15.12,14.77,-33.69,-776.86,673.34,5.3,-3.4,0.28,153.52178633975475
0,14.73,14.56,14.66,15.17,14.78,-41.99,-791.02,678.22,3.9,0.1,0.74,154.52178633975473
0,14.73,14.56,14.66,15.22,14.79,-40.53,-804.69,629.39,2.54,-5.05,-0.87,155.5217863397547
0,14.73,14.55,14.66,15.26,14.8,-50.29,-800.78,650.39,4.77,-1.38,-0.08,156.52178633975487
0,14.73,14.55,14.66,15.24,14.79,-49.8,-789.06,658.2,3.04,-2.06,-1.51,155.5217863397547
0,14.73,14.54,14.66,15.18,14.78,-42.48,-802.25,638.18,-3.34,0.31,-3.45,154.52178633975473
0,14.71,14.54,14.65,15.15,14.76,-40.04,-789.06,653.32,-1.76,3.08,-0.52,152.52178633975478
0,14.7,14.53,14.66,15.16,14.76,-38.09,-798.34,658.2,-4.9,3.41,-0.02,152.52178633975478
0,14.69,14.53,14.65,15.15,14.76,-38.57,-799.32,636.23,-1.72,1.74,-1.82,152.52178633975478
0,14.68,14.53,14.65,15.13,14.75,-45.41,-801.76,640.62,-4.14,1.89,-2.79,151.52178633975478
0,14.67,14.52,14.66,15.11,14.74,-41.02,-796.87,628.91,-3.28,3.57,-2.9,150.5217863397548
0,14.67,14.52,14.66,15.1,14.74,-39.55,-805.18,628.42,-1.67,0.15,-0.5,150.5217863397548
0,14.67,14.52,14.66,15.09,14.73,-39.55,-805.18,639.65,-0.38,1.04,-2.26,149.52178633975484
0,14.67,14.52,14.66,15.08,14.73,-54.2,-816.41,641.6,-0.08,-0.02,0.64,149.52178633975484
0,14.67,14.52,14.66,15.07,14.73,-54.69,-786.62,653.32,-0.12,1.24,-2.56,149.52178633975484
0,14.67,14.52,14.66,15.07,14.73,-44.43,-810.55,641.6,-0.67,3.39,-0.3,149.52178633975484
0,14.66,14.52,14.66,15.07,14.73,-46.88,-801.76,640.62,-0.83,-0.29,-0.97,149.52178633975484
0,14.65,14.52,14.65,15.07,14.72,-47.36,-799.8,643.07,-1.61,-0.65,-1.05,148.52178633975487
0,14.65,14.52,14.65,15.05,14.72,-40.04,-801.76,641.11,-2.63,-0.47,0.3,148.52178633975487
0,14.64,14.51,14.65,15.05,14.71,-46.39,-810.55,627.44,-5.21,2.12,-0.67,147.52178633975487
0,14.64,14.51,14.66,15.06,14.72,-40.04,-809.57,621.58,0.28,1.03,-2.18,148.52178633975487
0,14.63,14.51,14.65,15.07,14.72,-46.88,-817.87,649.41,-0.18,2.06,-3.06,148.52178633975487
0,14.63,14.51,14.65,15.07,14.72,-47.85,-817.38,639.16,-0.4,0.06,-1.0,148.52178633975487
0,14.63,14.51,14.66,15.07,14.72,-59.08,-794.43,635.25,0.13,1.05,-1.74,148.52178633975487
0,14.63,14.51,14.65,15.07,14.71,-41.5,-803.71,633.3,3.11,-0.32,0.27,147.52178633975487
0,14.62,14.51,14.65,15.08,14.72,-37.11,-812.5,641.6,0.93,0.06,-0.61,148.52178633975487
0,14.62,14.51,14.66,15.09,14.72,-41.99,-801.27,637.21,0.6,-0.43,1.36,148.52178633975487
0,14.62,14.51,14.65,15.1,14.72,-46.39,-814.94,623.54,-2.57,1.56,-0.98,148.52178633975487
0,14.62,14.51,14.66,15.13,14.73,-65.92,-821.29,644.53,-2.76,3.27,1.26,149.52178633975484
0,14.61,14.51,14.65,15.15,14.73,-78.61,-813.96,625.0,-2.99,1.4,0.31,149.52178633975484
0,14.62,14.51,14.65,15.18,14.74,-48.34,-806.64,628.42,-0.84,4.17,-1.4,150.5217863397548
0,14.62,14.51,14.66,15.2,14.75,-54.69,-800.29,636.23,-0.69,3.92,-0.88,151.52178633975478
0,14.61,14.51,14.66,15.24,14.75,-42.97,-808.59,658.2,-0.66,4.15,-4.72,151.52178633975478
0,14.61,14.51,14.66,15.27,14.76,-64.45,-811.04,628.42,-2.43,6.07,-1.4,152.52178633975478
0,14.61,14.51,14.66,15.29,14.76,-53.22,-812.01,643.55,-2.5,1.17,-1.04,152.52178633975478
0,14.6,14.51,14.66,15.29,14.76,-45.41,-799.32,630.37,-3.45,3.56,-2.18,152.52178633975478
0,14.6,14.51,14.66,15.28,14.76,-43.46,-800.78,633.3,-2.37,2.07,-0.45,152.52178633975478
0,14.6,14.51,14.66,15.26,14.75,-38.57,-793.95,638.67,-1.15,2.63,-2.24,151.52178633975478
0,14.58,14.5,14.65,15.17,14.73,-42.97,-803.22,639.65,-9.13,3.34,-0.49,149.52178633975484
0,14.56,14.5,14.65,14.97,14.67,-98.63,-822.75,646.48,-21.23,6.43,0.77,143.52178633975478
0,14.54,14.49,14.64,14.61,14.57,-98.14,-807.62,576.17,-56.75,8.76,-4.99,133.5217863397548
0,14.51,14.49,14.63,14.45,14.52,-293.46,-1125.49,450.68,-133.24,-1.11,-25.1,128.52178633975475
0,14.5,14.48,14.63,14.44,14.51,-483.4,-1316.41,811.52,-65.97,41.11,-108.4,127.52178633975477
0,14.49,14.48,14.63,14.45,14.51,-907.71,-816.89,346.19,42.18,4.32,-139.05,127.52178633975477
0,14.49,14.48,14.63,14.44,14.51,-993.65,-922.36,414.55,-26.54,46.18,-47.13,127.52178633975477
0,14.49,14.48,14.63,14.44,14.51,-838.87,-752.93,445.8,-12.79,68.31,0.22,127.52178633975477
0,14.49,14.48,14.63,14.44,14.51,-659.18,-767.09,493.65,-18.71,99.76,21.23,127.52178633975477
0,14.49,14.48,14.63,14.44,14.51,-600.1,-822.27,469.24,-6.85,84.08,41.67,127.52178633975477
0,14.49,14.48,14.63,14.43,14.51,-425.29,-764.16,409.67,-23.24,50.71,58.72,127.52178633975477
0,14.49,14.48,14.63,14.43,14.51,-255.37,-884.77,446.78,-53.47,34.81,84.78,127.52178633975477
0,14.49,14.48,14.62,14.43,14.51,-128.42,-896.48,473.14,-51.89,21.11,97.99,127.52178633975477
0,14.49,14.48,14.62,14.43,14.51,-43.95,-922.85,487.3,-41.6,5.36,83.57,127.52178633975477
0,14.49,14.48,14.62,14.43,14.51,69.82,-998.54,502.93,-23.73,-14.93,68.84,127.52178633975477
0,14.49,14.48,14.62,14.43,14.51,221.19,-951.17,459.96,-23.76,-15.02,71.29,127.52178633975477
0,14.49,14.48,14.62,14.43,14.5,256.84,-972.66,493.16,-20.2,-6.9,70.69,126.5217863397548
0,14.49,14.48,14.62,14.43,14.5,246.58,-970.21,464.36,-6.22,2.43,56.02,126.5217863397548
0,14.49,14.48,14.62,14.43,14.51,209.47,-888.67,424.8,6.6,0.84,40.24,127.52178633975477
0,14.49,14.48,14.62,14.43,14.5,132.81,-859.86,391.11,6.51,-12.66,22.45,126.5217863397548
0,14.49,14.48,14.62,14.43,14.5,118.65,-873.54,353.52,4.86,-25.12,15.71,126.5217863397548
0,14.49,14.48,14.62,14.43,14.51,62.5,-815.43,368.65,-5.76,-28.02,9.42,127.52178633975477
0,14.49,14.48,14.62,14.43,14.51,-83.5,-850.59,409.67,-9.84,-31.57,-11.08,127.52178633975477
0,14.49,14.48,14.62,14.43,14.51,-90.82,-884.28,424.8,-3.85,-27.93,-21.73,127.52178633975477
0,14.49,14.48,14.62,14.5,14.52,-366.21,-2000.0,1169.43,-80.05,-22.39,-50.45,128.52178633975475
0,14.48,14.48,14.63,14.56,14.54,-729.98,-1071.29,501.95,250.13,-100.89,-109.15,130.5217863397547
0,14.49,14.48,14.63,14.72,14.58,-85.94,-876.95,475.1,39.6,-60.82,-83.53,134.5217863397548
0,14.49,14.48,14.63,14.82,14.61,-33.69,-1027.83,549.32,5.11,-29.05,-59.62,137.52178633975473
0,14.49,14.48,14.64,15.06,14.67,-213.38,-889.16,480.96,25.56,-61.41,-54.95,143.52178633975478
0,14.49,14.48,14.65,15.33,14.74,104.98,-1037.11,590.82,54.27,-26.85,-58.3,150.5217863397548
0,14.49,14.49,14.66,15.62,14.81,-94.73,-885.25,553.22,77.15,-40.31,-48.08,157.52178633975484
0,14.49,14.49,14.66,15.87,14.88,-95.21,-721.19,469.73,47.47,-16.6,-6.26,164.52178633975484
0,14.51,14.5,14.66,15.99,14.91,-33.2,-803.22,701.17,18.87,-4.37,-0.04,167.52178633975484
0,14.53,14.51,14.66,16.13,14.96,-52.25,-817.38,600.59,24.48,-9.93,1.31,172.5217863397549
0,14.56,14.51,14.66,16.25,15.0,-10.25,-779.79,689.94,15.87,-4.15,-0.57,176.5217863397548
0,14.58,14.51,14.66,16.29,15.01,-40.04,-813.48,633.79,-1.78,-0.05,-1.5,177.52178633975475
0,14.57,14.51,14.67,16.27,15.0,-43.46,-816.41,634.77,-25.44,5.89,-2.08,176.5217863397548
0,14.56,14.5,14.67,16.22,14.99,-46.88,-835.94,613.77,-25.7,10.56,-2.02,175.52178633975478
0,14.55,14.5,14.68,16.18,14.98,-64.94,-869.14,544.92,-31.95,6.99,-1.2,174.52178633975484
0,14.54,14.5,14.7,16.13,14.97,-66.89,-837.89,561.52,-41.44,8.66,-0.34,173.52178633975484
0,14.53,14.5,14.71,16.09,14.96,-56.15,-877.44,545.41,-29.6,8.12,-3.3,172.5217863397549
0,14.53,14.5,14.73,16.05,14.95,-74.71,-893.55,524.9,-15.95,6.18,-1.42,171.52178633975473
0,14.54,14.5,14.73,16.04,14.95,-68.85,-897.46,508.3,1.68,2.27,-0.88,171.52178633975473
0,14.56,14.51,14.75,16.04,14.96,-41.5,-828.12,590.33,0.0,2.87,-2.92,172.5217863397549
0,14.56,14.51,14.77,16.03,14.97,-56.15,-885.74,538.57,-6.99,1.88,-1.87,173.52178633975484
0,14.56,14.51,14.77,16.05,14.97,-60.55,-903.32,503.42,11.53,3.26,-3.91,173.52178633975484
0,14.57,14.51,14.76,16.07,14.98,-63.96,-881.84,509.77,34.02,-4.49,-0.87,174.52178633975484
0,14.6,14.52,14.76,16.07,14.99,-26.86,-807.13,654.79,18.79,-0.98,0.07,175.52178633975478
0,14.61,14.52,14.76,16.02,14.98,-51.76,-856.45,572.75,2.96,0.33,0.02,174.52178633975484
0,14.63,14.52,14.75,16.01,14.98,-46.88,-873.54,560.06,14.76,-3.51,-0.63,174.52178633975484
0,14.65,14.52,14.75,15.99,14.98,-45.41,-818.85,619.63,12.5,-0.66,1.06,174.52178633975484
0,14.66,14.52,14.75,15.94,14.97,-43.46,-840.33,577.15,7.89,-2.57,0.69,173.52178633975484
0,14.67,14.53,14.74,15.9,14.96,-33.2,-855.96,568.36,15.76,-4.75,2.15,172.5217863397549
0,14.69,14.53,14.73,15.91,14.96,-34.18,-847.66,596.19,23.69,-8.23,0.26,172.5217863397549
0,14.7,14.53,14.73,15.93,14.97,-55.18,-802.73,600.59,12.73,-2.75,-0.76,173.52178633975484
0,14.71,14.53,14.73,15.93,14.97,-56.64,-842.29,602.54,6.15,-0.31,-1.13,173.52178633975484
0,14.71,14.53,14.72,15.95,14.98,-41.5,-844.73,617.19,10.0,-3.54,1.38,174.52178633975484
0,14.7,14.52,14.71,15.92,14.97,-72.75,-828.12,594.24,5.7,-4.42,-0.58,173.52178633975484
0,14.7,14.52,14.7,15.85,14.94,-34.18,-815.43,631.35,7.24,-1.63,1.16,170.52178633975473
0,14.69,14.52,14.7,15.78,14.92,-37.6,-807.62,626.46,8.43,-5.53,0.79,168.52178633975478
0,14.68,14.52,14.69,15.72,14.9,-50.78,-812.99,634.28,5.82,-4.27,1.05,166.5217863397548
0,14.67,14.52,14.69,15.66,14.88,-36.62,-790.53,645.02,1.45,-3.29,2.6,164.52178633975484
0,14.67,14.52,14.68,15.59,14.87,-41.5,-807.13,646.97,3.15,-2.71,2.51,163.5217863397547
0,14.66,14.52,14.68,15.52,14.84,-30.27,-783.69,648.44,-0.6,-0.4,0.5,160.52178633975478
0,14.66,14.52,14.68,15.44,14.82,-37.6,-816.89,624.51,-1.39,-0.13,-0.59,158.5217863397548
0,14.65,14.52,14.68,15.39,14.81,-34.67,-797.36,646.48,-2.27,-1.6,-0.54,157.52178633975484
0,14.64,14.51,14.68,15.35,14.8,-42.97,-802.25,611.33,-3.88,2.55,2.18,156.52178633975487
0,14.64,14.51,14.68,15.33,14.79,-20.51,-803.22,642.58,-2.68,-0.98,-0.79,155.5217863397547
0,14.64,14.51,14.67,15.3,14.78,-63.48,-830.57,614.26,-1.21,-0.09,-2.79,154.52178633975473
0,14.64,14.51,14.67,15.26,14.77,-56.64,-812.99,636.23,-1.99,-0.34,-0.33,153.52178633975475
0,14.64,14.51,14.67,15.24,14.77,-38.09,-813.48,633.3,-0.09,-1.18,-0.5,153.52178633975475
0,14.64,14.51,14.67,15.21,14.76,-37.6,-801.76,609.37,-1.69,-2.51,-1.4,152.52178633975478
0,14.64,14.51,14.67,15.19,14.76,-29.79,-821.29,645.02,-1.56,-2.66,0.94,152.52178633975478
0,14.65,14.51,14.67,15.18,14.75,-37.6,-800.78,632.81,-1.63,-0.8,1.34,151.52178633975478
0,14.64,14.51,14.67,15.17,14.75,-32.71,-816.41,619.63,-2.73,0.66,-2.94,151.52178633975478
0,14.65,14.52,14.67,15.15,14.75,-37.11,-819.82,629.39,-0.8,-1.37,-1.83,151.52178633975478
0,14.65,14.52,14.67,15.15,14.75,-25.88,-814.94,619.14,-0.18,0.77,-2.03,151.52178633975478
0,14.65,14.52,14.67,15.14,14.74,-29.3,-806.64,625.98,1.47,0.65,1.18,150.5217863397548
0,14.65,14.52,14.67,15.13,14.74,-46.88,-791.5,643.55,0.37,1.5,-2.92,150.5217863397548
0,14.65,14.52,14.67,15.13,14.74,-35.16,-807.13,631.35,-1.31,-0.04,0.98,150.5217863397548
0,14.66,14.52,14.67,15.14,14.75,-25.39,-814.94,620.12,-0.73,1.89,0.65,151.52178633975478
0,14.65,14.52,14.67,15.15,14.75,-22.95,-792.97,633.79,1.53,-0.1,0.37,151.52178633975478
0,14.65,14.52,14.67,15.16,14.75,-37.6,-807.62,627.44,-2.08,1.81,-0.11,151.52178633975478
0,14.65,14.52,14.67,15.17,14.75,-21.0,-805.66,638.18,-0.97,-0.19,-1.65,151.52178633975478
0,14.65,14.52,14.67,15.18,14.75,-32.23,-806.64,631.84,0.02,1.25,0.3,151.52178633975478
0,14.64,14.51,14.67,15.2,14.76,-45.41,-802.73,628.91,-1.02,1.65,-0.08,152.52178633975478
0,14.64,14.51,14.67,15.2,14.76,-50.78,-815.92,631.35,0.18,-1.44,0.69,152.52178633975478
0,14.64,14.51,14.67,15.21,14.76,-35.16,-813.48,644.53,-1.83,-2.32,-0.44,152.52178633975478
0,14.64,14.51,14.67,15.22,14.76,-45.41,-804.2,624.02,-2.07,0.54,0.55,152.52178633975478
0,14.63,14.51,14.67,15.22,14.76,-31.74,-802.73,625.98,0.4,0.61,0.61,152.52178633975478
0,14.63,14.51,14.67,15.23,14.76,-48.83,-806.15,640.14,2.62,-2.24,0.21,152.52178633975478
0,14.63,14.51,14.67,15.24,14.76,-38.57,-804.69,635.25,-0.55,-1.14,0.79,152.52178633975478
0,14.63,14.51,14.67,15.25,14.77,-37.11,-811.52,629.88,0.06,3.0,0.11,153.52178633975475
0,14.63,14.51,14.67,15.25,14.76,-39.55,-795.9,618.65,-0.84,3.46,-0.98,152.52178633975478
0,14.63,14.51,14.67,15.25,14.76,-32.71,-800.78,625.49,-1.37,1.07,-1.07,152.52178633975478
0,14.62,14.51,14.67,15.24,14.76,-41.02,-814.94,619.63,-1.34,0.11,-3.17,152.52178633975478
0,14.62,14.51,14.67,15.24,14.76,-36.13,-811.04,644.04,-0.61,1.15,0.56,152.52178633975478
0,14.62,14.51,14.67,15.24,14.76,-42.48,-807.13,629.39,-0.94,1.5,0.09,152.52178633975478
0,14.62,14.51,14.67,15.23,14.76,-45.9,-811.04,618.65,-0.18,-0.11,1.46,152.52178633975478
0,14.62,14.51,14.67,15.23,14.76,-32.23,-812.99,644.04,2.23,-1.78,-0.32,152.52178633975478
0,14.62,14.51,14.67,15.23,14.76,-37.11,-799.8,646.97,-1.54,-1.47,-0.64,152.52178633975478
0,14.63,14.51,14.67,15.24,14.76,-38.09,-815.92,630.86,0.02,-0.81,-1.69,152.52178633975478
0,14.62,14.51,14.67,15.25,14.76,-40.53,-815.43,626.95,0.97,-0.5,-0.51,152.52178633975478
0,14.63,14.51,14.67,15.25,14.77,-38.09,-802.25,642.58,-0.16,-1.53,-0.03,153.52178633975475
0,14.63,14.51,14.67,15.26,14.77,-41.02,-805.66,617.19,0.37,-0.47,0.54,153.52178633975475
0,14.63,14.51,14.67,15.26,14.77,-30.76,-801.76,637.7,0.93,0.16,0.64,153.52178633975475
0,14.63,14.51,14.67,15.26,14.77,-39.55,-815.43,641.11,0.62,0.87,-0.59,153.52178633975475
0,14.63,14.51,14.67,15.25,14.77,-43.95,-789.55,622.56,-0.47,-1.2,1.31,153.52178633975475
0,14.63,14.51,14.67,15.24,14.76,-31.25,-798.83,645.51,-0.21,0.63,-0.79,152.52178633975478
0,14.64,14.51,14.67,15.23,14.76,-36.13,-808.11,632.81,0.21,1.89,1.11,152.52178633975478
0,14.64,14.51,14.67,15.2,14.76,-46.39,-812.99,633.79,2.41,-0.08,-0.47,152.52178633975478
0,14.65,14.51,14.67,15.18,14.75,-34.18,-798.34,629.39,1.47,-1.59,-2.47,151.52178633975478
0,14.65,14.51,14.67,15.14,14.75,-36.13,-818.36,627.44,0.91,-3.89,0.32,151.52178633975478
0,14.66,14.52,14.67,15.12,14.74,-26.86,-814.45,618.16,2.41,-1.05,0.75,150.5217863397548
0,14.67,14.51,14.67,15.09,14.74,-38.09,-794.92,644.53,-0.16,-2.51,-1.66,150.5217863397548
0,14.68,14.52,14.67,15.06,14.73,-34.18,-805.18,637.7,0.47,-1.6,0.13,149.52178633975484
0,14.68,14.52,14.67,15.05,14.73,-48.83,-811.52,602.05,0.15,-0.63,-0.74,149.52178633975484
0,14.69,14.52,14.67,15.05,14.73,-26.37,-802.25,640.14,-1.37,-1.36,-1.47,149.52178633975484
0,14.69,14.52,14.67,15.06,14.73,-33.2,-802.73,638.18,0.11,2.95,-0.59,149.52178633975484
0,14.69,14.52,14.67,15.07,14.74,-41.02,-804.2,633.3,0.19,0.13,-0.34,150.5217863397548
0,14.69,14.52,14.67,15.08,14.74,-45.41,-798.83,638.18,1.76,0.84,0.71,150.5217863397548
0,14.69,14.52,14.67,15.1,14.74,-36.62,-812.5,629.39,0.41,-1.79,1.0,150.5217863397548
0,14.69,14.52,14.67,15.15,14.76,-33.69,-800.29,638.67,1.47,0.03,-0.3,152.52178633975478
0,14.7,14.52,14.67,15.23,14.78,-14.16,-793.95,658.2,1.85,2.46,-0.85,154.52178633975473
0,14.71,14.52,14.67,15.33,14.81,-37.6,-785.16,635.74,2.37,2.19,0.31,157.52178633975484
0,14.72,14.52,14.68,15.44,14.84,-32.71,-770.51,639.16,4.41,-0.43,-0.76,160.52178633975478
0,14.74,14.53,14.68,15.53,14.87,-31.74,-808.59,625.0,3.34,-0.71,-0.44,163.5217863397547
0,14.75,14.53,14.68,15.65,14.9,-36.62,-802.73,648.93,2.26,-0.58,-2.44,166.5217863397548
0,14.77,14.53,14.68,15.73,14.93,-43.95,-794.43,652.83,0.89,-0.53,2.09,169.52178633975478
0,14.77,14.53,14.68,15.78,14.94,-35.64,-795.9,651.86,-2.06,1.41,-1.6,170.52178633975473
0,14.77,14.53,14.68,15.8,14.95,-32.23,-792.48,645.51,-3.85,4.06,-1.32,171.52178633975473
0,14.76,14.53,14.68,15.8,14.94,-28.81,-790.04,648.44,-6.08,3.29,-1.53,170.52178633975473
0,14.76,14.53,14.68,15.78,14.94,-37.6,-795.9,649.41,-4.76,-1.17,2.47,170.52178633975473
0,14.76,14.53,14.68,15.76,14.94,-36.13,-813.48,621.09,-0.68,-2.33,-0.87,170.52178633975473
0,14.77,14.53,14.68,15.74,14.93,-41.99,-806.15,645.02,-0.97,-1.33,0.44,169.52178633975478
0,14.78,14.54,14.68,15.73,14.93,-24.9,-803.71,632.81,3.05,-4.54,2.41,169.52178633975478
0,14.79,14.54,14.68,15.71,14.93,-45.9,-799.32,641.6,3.9,-1.02,-2.91,169.52178633975478
0,14.8,14.54,14.68,15.67,14.92,-35.16,-808.11,635.25,1.33,-4.24,1.35,168.52178633975478
0,14.81,14.54,14.67,15.64,14.92,-39.55,-814.45,637.21,3.32,-5.72,-0.33,168.52178633975478
0,14.82,14.54,14.67,15.61,14.91,-32.23,-790.04,678.71,5.01,-2.83,1.16,167.52178633975484
0,14.82,14.55,14.67,15.57,14.9,-40.53,-812.99,642.58,-0.94,-3.97,-0.09,166.5217863397548
0,14.83,14.55,14.67,15.55,14.9,-13.67,-784.67,656.25,4.12,-3.1,2.95,166.5217863397548
0,14.83,14.55,14.67,15.5,14.89,-45.9,-783.2,661.13,2.06,-0.66,-0.62,165.52178633975487
0,14.84,14.55,14.67,15.47,14.88,-29.3,-817.38,639.16,2.12,-5.46,3.42,164.52178633975484
0,14.86,14.55,14.67,15.45,14.88,-27.34,-787.11,666.5,2.0,-4.06,-0.02,164.52178633975484
0,14.87,14.56,14.67,15.37,14.87,-33.69,-777.83,678.71,-5.08,-1.45,2.31,163.5217863397547
0,14.87,14.56,14.66,15.33,14.86,-6.84,-825.2,679.69,2.25,-5.03,0.66,162.52178633975475
0,14.88,14.56,14.66,15.24,14.84,14.16,-795.9,708.5,3.85,-3.97,-0.67,160.52178633975478
0,14.88,14.55,14.66,15.21,14.83,5.86,-814.94,643.55,4.41,-4.45,1.37,159.5217863397548
0,14.88,14.56,14.66,15.21,14.83,-6.35,-776.37,665.53,2.11,0.02,2.18,159.5217863397548
0,14.85,14.55,14.66,15.2,14.81,-15.14,-763.18,676.76,-6.44,3.45,2.88,157.52178633975484
0,14.81,14.54,14.66,15.23,14.81,-23.44,-794.43,659.18,-3.24,4.6,-0.58,157.52178633975484
0,14.75,14.53,14.66,15.26,14.8,-27.34,-772.46,683.11,-4.6,5.23,1.17,156.52178633975487
0,14.67,14.52,14.66,15.28,14.78,-4.39,-799.8,663.57,-4.08,7.97,-2.23,154.52178633975473
0,14.58,14.51,14.66,15.29,14.76,-17.09,-794.43,679.2,-18.6,13.58,-2.34,152.52178633975478
0,14.51,14.49,14.66,15.26,14.73,60.55,-830.08,639.65,-48.92,21.18,2.66,149.52178633975484
0,14.49,14.48,14.65,15.13,14.69,306.64,-1180.66,841.31,-91.48,88.0,87.21,145.52178633975475
0,14.49,14.48,14.64,14.98,14.65,27.34,-1091.8,622.07,-55.8,97.7,124.99,141.52178633975484
0,14.49,14.48,14.63,14.86,14.62,-231.93,-820.8,832.03,-39.89,104.21,140.32,138.52178633975473
0,14.49,14.48,14.63,14.74,14.59,-63.96,-885.74,784.67,-44.4,123.81,146.46,135.52178633975478
0,14.49,14.48,14.63,14.59,14.55,-280.27,-852.54,494.63,-15.74,143.84,137.19,131.52178633975487
0,14.49,14.48,14.63,14.47,14.52,-352.05,-592.77,270.02,-26.51,136.55,126.68,128.52178633975475
0,14.49,14.48,14.63,14.47,14.52,-54.69,-634.77,422.36,67.93,12.76,24.4,128.52178633975475
0,14.49,14.48,14.63,14.47,14.52,13.18,-702.64,397.95,20.25,-32.27,-38.05,128.52178633975475
0,14.48,14.48,14.63,14.46,14.51,-40.53,-749.02,463.87,-7.37,-31.33,-22.24,127.52178633975477
0,14.49,14.48,14.63,14.46,14.51,-4.88,-847.66,472.17,1.79,-45.73,-54.96,127.52178633975477
0,14.49,14.48,14.63,14.46,14.51,-23.44,-818.36,389.16,22.21,-62.99,-89.61,127.52178633975477
0,14.49,14.48,14.63,14.45,14.51,-52.73,-854.98,411.13,15.11,-73.76,-121.53,127.52178633975477
0,14.49,14.48,14.63,14.45,14.51,-105.96,-898.44,437.5,0.23,-64.74,-114.93,127.52178633975477
0,14.48,14.48,14.63,14.45,14.51,-228.03,-893.55,439.94,0.41,-56.76,-115.7,127.52178633975477
0,14.48,14.48,14.63,14.45,14.51,-309.08,-946.29,478.52,-0.19,-53.56,-125.38,127.52178633975477
0,14.49,14.48,14.62,14.45,14.51,-348.63,-962.4,500.98,11.27,-49.95,-111.81,127.52178633975477
0,14.48,14.48,14.62,14.45,14.51,-413.57,-903.81,462.4,9.48,-40.55,-85.34,127.52178633975477
0,14.49,14.48,14.62,14.44,14.51,-477.54,-878.91,498.05,-3.23,-36.18,-63.36,127.52178633975477
0,14.49,14.48,14.62,14.44,14.51,-428.22,-893.55,470.7,2.56,-39.6,-48.78,127.52178633975477
0,14.48,14.48,14.62,14.44,14.51,-346.19,-814.45,541.99,-16.05,-20.53,-30.53,127.52178633975477
0,14.49,14.48,14.62,14.44,14.51,-422.85,-952.15,631.35,0.77,-17.86,-19.31,127.52178633975477
0,14.48,14.48,14.62,14.44,14.51,-467.29,-857.42,480.47,19.85,-22.39,-7.97,127.52178633975477
0,14.49,14.48,14.62,14.44,14.51,-404.79,-813.96,468.26,9.13,-9.92,-5.16,127.52178633975477
0,14.49,14.48,14.62,14.44,14.51,-479.98,-944.34,492.19,16.46,-8.11,3.36,127.52178633975477
0,14.49,14.48,14.62,14.42,14.5,311.52,-684.57,251.95,6.57,6.27,78.08,126.5217863397548
0,14.51,14.49,14.62,14.43,14.51,-58.11,-1588.38,675.78,-9.72,28.76,35.85,127.52178633975477
0,14.53,14.5,14.63,14.45,14.53,-122.56,-1046.88,560.06,28.83,52.95,28.01,129.52178633975473
0,14.55,14.5,14.64,14.58,14.57,-214.36,-826.66,1144.04,38.98,-53.65,13.93,133.5217863397548
0,14.58,14.51,14.64,14.69,14.61,-82.03,-578.12,697.75,35.75,18.73,15.09,137.52178633975473
0,14.59,14.51,14.64,14.75,14.62,7.81,-707.52,729.0,11.33,-1.22,1.95,138.52178633975473
0,14.6,14.51,14.64,14.82,14.65,-52.25,-857.42,577.15,9.34,-3.9,-0.11,141.52178633975484
0,14.62,14.51,14.65,14.9,14.67,-62.99,-791.99,641.6,14.18,-5.24,0.26,143.52178633975478
0,14.63,14.51,14.65,14.96,14.69,-48.34,-791.99,644.53,4.66,2.15,2.27,145.52178633975475
0,14.63,14.51,14.65,15.02,14.7,-30.27,-783.2,630.37,1.32,-1.74,-0.49,146.52178633975473
0,14.62,14.51,14.65,15.06,14.71,-45.41,-815.43,653.81,-0.26,3.24,-2.63,147.52178633975487
0,14.62,14.51,14.65,15.11,14.72,-42.48,-792.48,637.21,-1.42,5.42,-2.03,148.52178633975487
0,14.61,14.51,14.65,15.15,14.73,-62.5,-789.55,616.7,-2.44,0.21,-1.06,149.52178633975484
0,14.61,14.51,14.65,15.17,14.74,-44.92,-801.27,620.12,2.1,3.5,-1.83,150.5217863397548
0,14.61,14.5,14.65,15.2,14.74,-41.02,-807.13,646.97,1.69,0.88,0.42,150.5217863397548
0,14.62,14.51,14.65,15.2,14.74,-47.85,-816.41,617.68,1.11,-1.53,-1.67,150.5217863397548
0,14.63,14.51,14.65,15.2,14.75,-42.97,-808.59,654.3,3.7,-2.95,2.11,151.52178633975478
0,14.63,14.51,14.65,15.19,14.75,-38.09,-810.06,645.02,-0.47,-0.23,-0.31,151.52178633975478
0,14.63,14.51,14.65,15.18,14.74,-39.55,-805.18,645.02,-0.44,-2.3,-0.5,150.5217863397548
0,14.64,14.51,14.65,15.17,14.74,-40.04,-799.32,638.67,3.13,1.38,0.76,150.5217863397548
0,14.64,14.51,14.65,15.16,14.74,-46.39,-804.2,647.95,-1.24,-1.5,-1.25,150.5217863397548
0,14.65,14.51,14.65,15.14,14.74,-47.85,-799.32,648.44,0.64,-1.08,-1.07,150.5217863397548
0,14.65,14.51,14.65,15.12,14.73,-54.2,-800.78,651.37,1.43,-2.76,0.29,149.52178633975484
0,14.65,14.51,14.65,15.1,14.73,-52.73,-795.41,645.51,-0.37,-3.38,0.22,149.52178633975484
0,14.66,14.51,14.65,15.09,14.73,-63.48,-816.89,621.09,-0.84,-0.18,-1.16,149.52178633975484
0,14.66,14.51,14.65,15.06,14.72,-50.29,-800.78,647.95,-1.26,-0.95,0.64,148.52178633975487
0,14.67,14.51,14.65,15.04,14.72,-42.97,-807.62,648.93,0.22,-0.5,-3.01,148.52178633975487
0,14.67,14.51,14.65,15.02,14.71,-52.25,-809.57,633.3,-0.58,0.2,0.66,147.52178633975487
0,14.67,14.51,14.65,15.01,14.71,-47.36,-803.22,638.67,-1.05,2.53,-2.35,147.52178633975487
0,14.67,14.51,14.65,15.0,14.71,-37.11,-800.78,648.44,-0.89,2.11,-0.72,147.52178633975487
0,14.67,14.51,14.65,15.01,14.71,-36.62,-798.34,647.95,0.15,-1.38,-0.26,147.52178633975487
0,14.67,14.51,14.65,15.01,14.71,-40.53,-807.13,637.21,1.08,1.18,-0.99,147.52178633975487
0,14.67,14.51,14.65,15.0,14.71,-36.13,-801.76,653.32,-1.05,-0.62,0.7,147.52178633975487
0,14.67,14.51,14.65,15.01,14.71,-40.53,-797.85,632.81,-0.02,2.8,-1.34,147.52178633975487
0,14.67,14.51,14.65,15.01,14.71,-45.41,-794.92,645.02,0.31,3.43,0.21,147.52178633975487
0,14.67,14.51,14.65,15.01,14.71,-42.48,-810.06,634.77,-1.18,-0.57,-0.94,147.52178633975487
0,14.67,14.51,14.65,15.02,14.71,-35.64,-813.48,641.11,-1.11,0.13,0.08,147.52178633975487
0,14.67,14.51,14.65,15.03,14.71,-35.64,-808.59,644.04,2.24,-1.34,-0.5,147.52178633975487
0,14.67,14.51,14.65,15.03,14.72,-22.95,-808.11,637.7,0.4,1.18,0.76,148.52178633975487
0,14.67,14.51,14.65,15.04,14.72,-41.5,-801.27,641.6,-0.85,1.86,1.39,148.52178633975487
0,14.67,14.51,14.65,15.05,14.72,-38.09,-788.57,652.34,0.56,0.15,0.71,148.52178633975487
0,14.67,14.51,14.65,15.06,14.72,-32.23,-805.18,639.16,0.75,1.2,2.2,148.52178633975487
0,14.67,14.51,14.65,15.08,14.73,-44.92,-793.95,626.95,-0.66,1.98,0.4,149.52178633975484
0,14.67,14.51,14.65,15.1,14.73,-47.36,-807.62,641.11,-0.13,2.2,1.87,149.52178633975484
0,14.67,14.51,14.65,15.1,14.73,-47.36,-810.06,639.65,3.21,1.31,0.58,149.52178633975484
0,14.67,14.51,14.65,15.11,14.74,-49.32,-803.22,636.23,0.36,-0.36,-0.4,150.5217863397548
0,14.67,14.51,14.65,15.11,14.74,-60.06,-810.55,638.18,0.31,1.5,-0.26,150.5217863397548
0,14.67,14.51,14.65,15.11,14.74,-52.73,-803.71,647.46,0.11,0.4,-0.41,150.5217863397548
0,14.67,14.51,14.65,15.1,14.73,-47.85,-797.36,641.11,-1.71,-1.99,-1.21,149.52178633975484
0,14.67,14.51,14.65,15.09,14.73,-54.2,-806.64,639.65,-1.47,0.53,0.64,149.52178633975484
0,14.67,14.51,14.65,15.07,14.73,-38.09,-801.27,642.58,0.81,0.6,-1.59,149.52178633975484
0,14.67,14.51,14.65,15.06,14.72,-33.2,-808.11,634.77,0.15,-1.25,1.87,148.52178633975487
0,14.67,14.51,14.65,15.06,14.72,-40.04,-802.25,642.58,-3.11,-3.02,2.69,148.52178633975487
0,14.66,14.51,14.65,15.05,14.72,-41.5,-802.73,639.65,-0.91,1.03,-1.72,148.52178633975487
0,14.65,14.51,14.65,15.04,14.71,-44.43,-798.34,628.91,-1.48,0.78,-0.99,147.52178633975487
0,14.64,14.51,14.65,15.02,14.7,-47.85,-801.76,619.63,-4.7,0.95,1.89,146.52178633975473
0,14.63,14.51,14.65,14.97,14.69,-53.71,-805.66,630.86,-3.4,-2.07,2.03,145.52178633975475
0,14.62,14.5,14.65,14.9,14.67,-7.32,-821.78,647.95,-11.11,2.27,1.55,143.52178633975478
0,14.59,14.5,14.64,14.77,14.63,-55.66,-796.87,630.37,-18.23,4.39,-0.47,139.52178633975487
0,14.57,14.5,14.64,14.58,14.57,-142.09,-934.57,528.81,-40.21,5.61,-6.8,133.5217863397548
0,14.57,14.5,14.64,14.47,14.54,-52.73,-1073.24,756.84,-42.82,-1.79,-20.25,130.5217863397547
0,14.56,14.5,14.63,14.44,14.53,31.25,-1032.71,713.87,-40.32,9.79,-43.21,129.52178633975473
0,14.53,14.49,14.63,14.44,14.52,-54.2,-968.26,531.25,-25.17,11.83,-83.24,128.52178633975475
0,14.5,14.49,14.63,14.43,14.51,-267.09,-954.59,480.47,-34.52,23.61,-94.45,127.52178633975477
0,14.5,14.48,14.63,14.43,14.51,-499.51,-930.66,542.97,-28.97,38.95,-105.08,127.52178633975477
0,14.49,14.48,14.63,14.43,14.51,-624.51,-1105.96,528.32,-21.8,31.87,-47.91,127.52178633975477
0,14.49,14.48,14.63,14.43,14.51,-613.28,-771.48,449.71,-5.01,33.74,17.0,127.52178633975477
0,14.49,14.48,14.63,14.43,14.51,-582.52,-796.39,441.41,-19.96,43.09,33.83,127.52178633975477
0,14.49,14.48,14.63,14.43,14.51,-528.32,-809.57,499.02,-22.34,53.28,52.15,127.52178633975477
0,14.49,14.48,14.63,14.43,14.51,-454.59,-876.95,476.56,-19.7,52.24,59.45,127.52178633975477
0,14.49,14.48,14.63,14.43,14.51,-350.1,-855.96,460.94,-18.69,50.15,54.64,127.52178633975477
0,14.49,14.48,14.62,14.42,14.51,-285.16,-952.64,480.96,-25.93,37.37,57.74,127.52178633975477
0,14.49,14.48,14.62,14.43,14.5,-177.73,-985.35,477.54,-31.12,22.57,72.37,126.5217863397548
0,14.49,14.48,14.62,14.42,14.5,-97.66,-995.12,471.19,-47.05,25.14,101.26,126.5217863397548
0,14.49,14.48,14.62,14.42,14.5,-40.53,-944.82,540.04,-42.34,20.11,100.34,126.5217863397548
0,14.49,14.48,14.62,14.42,14.5,-30.27,-1020.02,535.16,-14.2,14.85,85.03,126.5217863397548
0,14.49,14.48,14.62,14.42,14.5,48.34,-950.2,450.68,1.39,10.87,75.92,126.5217863397548
0,14.49,14.48,14.62,14.42,14.5,53.22,-887.21,397.95,-14.17,12.81,74.49,126.5217863397548
0,14.49,14.48,14.62,14.42,14.5,61.52,-831.54,414.06,-19.09,1.3,56.14,126.5217863397548
0,14.49,14.48,14.62,14.42,14.5,41.5,-896.48,445.31,-11.09,-9.5,32.49,126.5217863397548
0,14.49,14.48,14.62,14.42,14.5,33.2,-884.77,404.3,0.31,-22.37,15.15,126.5217863397548
0,14.49,14.48,14.62,14.42,14.5,-23.44,-852.54,382.81,-1.44,-26.27,18.31,126.5217863397548
0,14.49,14.48,14.62,14.42,14.5,-106.93,-794.43,416.5,-8.98,-31.92,6.2,126.5217863397548
0,14.49,14.48,14.62,14.42,14.5,-239.26,-857.91,439.94,1.95,-41.91,-7.07,126.5217863397548
0,14.49,14.48,14.62,14.42,14.5,-244.63,-758.79,375.49,2.11,-45.36,-5.32,126.5217863397548
0,14.49,14.48,14.62,14.42,14.5,-174.32,-768.55,458.5,-18.24,-36.06,-13.05,126.5217863397548
0,14.49,14.48,14.62,14.44,14.51,-113.28,-915.53,506.35,4.53,-30.4,-22.07,127.52178633975477
0,14.49,14.48,14.62,14.51,14.52,-1322.27,430.66,482.91,109.36,-110.52,-67.92,128.52178633975475
0,14.48,14.47,14.62,14.6,14.55,-138.67,-1082.03,366.7,-33.24,-19.56,-99.47,131.52178633975487
0,14.48,14.48,14.62,14.67,14.56,-150.39,-786.62,672.85,27.35,-62.44,-62.52,132.52178633975484
0,14.48,14.48,14.63,14.73,14.58,-95.7,-956.05,504.88,4.21,-19.01,-41.17,134.5217863397548
0,14.48,14.48,14.63,14.96,14.64,-326.66,-722.17,497.07,-0.66,-55.15,-51.17,140.52178633975484
0,14.48,14.48,14.64,15.28,14.72,78.61,-1076.66,588.38,42.24,-28.42,-52.6,148.52178633975487
0,14.49,14.48,14.64,15.55,14.79,-0.98,-828.61,684.57,54.48,-45.01,-38.6,155.5217863397547
0,14.48,14.48,14.65,15.84,14.86,-136.72,-923.83,454.59,60.84,-30.45,-40.95,162.52178633975475
0,14.49,14.49,14.65,16.0,14.91,130.37,-660.64,876.95,52.92,4.32,-7.91,167.52178633975484
0,14.51,14.5,14.65,16.09,14.94,0.49,-784.18,686.04,11.58,-9.27,-1.63,170.52178633975473
0,14.54,14.51,14.65,16.17,14.97,2.44,-785.16,672.36,17.45,-2.83,-1.67,173.52178633975484
0,14.58,14.51,14.65,16.16,14.98,-37.6,-770.02,615.23,5.9,-5.14,-2.17,174.52178633975484
0,14.62,14.52,14.64,16.11,14.97,-33.69,-827.15,663.57,-0.19,-3.75,-0.49,173.52178633975484
0,14.66,14.52,14.64,16.06,14.97,-46.39,-799.32,624.51,-4.37,0.13,-1.39,173.52178633975484
0,14.69,14.52,14.64,16.02,14.97,-26.86,-803.22,652.83,-1.4,2.73,-1.39,173.52178633975484
0,14.71,14.53,14.64,15.95,14.96,-69.82,-828.12,609.37,-5.26,2.82,-5.81,172.5217863397549
0,14.72,14.53,14.65,15.9,14.95,-39.06,-819.34,640.14,-1.68,4.02,-1.83,171.52178633975473
0,14.7,14.53,14.65,15.87,14.94,-33.2,-803.22,642.09,0.26,3.37,-2.56,170.52178633975473
0,14.69,14.53,14.65,15.86,14.93,-32.23,-784.18,655.76,2.11,0.81,-0.5,169.52178633975478
0,14.7,14.53,14.65,15.84,14.93,-57.13,-810.55,623.54,2.79,4.03,-1.47,169.52178633975478
0,14.7,14.53,14.66,15.85,14.94,-38.57,-816.89,619.14,0.91,0.12,-3.65,170.52178633975473
0,14.71,14.54,14.66,15.84,14.94,-40.04,-796.87,652.83,3.22,-1.31,-4.53,170.52178633975473
0,14.72,14.54,14.67,15.83,14.94,-25.88,-818.36,612.3,5.67,-1.2,-1.82,170.52178633975473
0,14.74,14.54,14.67,15.81,14.94,-33.2,-812.01,641.6,4.68,-0.89,-1.14,170.52178633975473
0,14.75,14.54,14.67,15.8,14.94,-12.21,-786.13,662.11,6.47,1.42,-2.35,170.52178633975473
0,14.76,14.54,14.67,15.77,14.94,-32.71,-818.36,632.81,4.19,-1.51,-0.88,170.52178633975473
0,14.77,14.54,14.67,15.73,14.93,-47.85,-798.83,635.74,6.72,-4.79,3.06,169.52178633975478
0,14.79,14.55,14.67,15.7,14.93,-27.83,-786.13,667.48,3.2,-2.76,0.8,169.52178633975478
0,14.79,14.54,14.67,15.7,14.93,-44.92,-793.46,641.11,2.72,0.7,0.45,169.52178633975478
0,14.8,14.54,14.67,15.7,14.93,-47.85,-790.53,643.55,2.37,-1.09,-0.04,169.52178633975478
0,14.8,14.54,14.67,15.69,14.92,-26.37,-796.39,668.46,-0.9,-0.45,-1.92,168.52178633975478
0,14.8,14.54,14.67,15.67,14.92,-33.2,-773.93,660.64,3.34,-1.68,-1.15,168.52178633975478
0,14.79,14.54,14.67,15.66,14.92,-32.23,-791.99,654.3,-1.69,-1.96,-0.73,168.52178633975478
0,14.78,14.54,14.67,15.63,14.9,-44.92,-791.99,653.81,-2.11,2.82,-2.79,166.5217863397548
0,14.77,14.53,14.66,15.55,14.88,-35.64,-801.76,639.16,-6.75,0.27,-3.94,164.52178633975484
0,14.74,14.53,14.66,15.45,14.84,-32.71,-782.71,661.62,-5.43,1.13,-2.4,160.52178633975478
0,14.72,14.53,14.66,15.36,14.82,-37.11,-788.09,652.34,-7.3,1.4,-1.13,158.5217863397548
0,14.7,14.52,14.66,15.3,14.8,-14.16,-791.02,636.23,-5.33,4.94,-1.07,156.52178633975487
0,14.69,14.52,14.66,15.25,14.78,-47.36,-806.15,642.09,-3.21,1.49,1.63,154.52178633975473
0,14.69,14.52,14.66,15.19,14.77,-42.97,-791.5,621.58,-2.71,-0.69,-0.03,153.52178633975475
0,14.69,14.52,14.66,15.13,14.75,-37.6,-799.8,637.7,-0.66,-1.72,1.01,151.52178633975478
0,14.69,14.52,14.65,15.07,14.73,-40.53,-803.71,639.16,-1.47,-1.02,-1.15,149.52178633975484
0,14.7,14.52,14.65,15.02,14.72,-37.6,-791.5,644.04,-2.44,-4.48,-2.61,148.52178633975487
0,14.7,14.52,14.65,14.99,14.72,-26.37,-795.41,638.18,-1.85,-0.33,-1.69,148.52178633975487
0,14.7,14.52,14.65,14.98,14.71,-33.69,-804.2,633.79,-0.09,-1.76,-2.25,147.52178633975487
0,14.71,14.53,14.65,14.96,14.71,-23.44,-807.62,643.55,-0.87,-0.4,-2.24,147.52178633975487
0,14.71,14.52,14.65,14.96,14.71,-25.88,-793.95,652.83,0.11,0.26,-2.79,147.52178633975487
0,14.71,14.52,14.66,14.96,14.71,-32.71,-811.04,649.9,0.07,0.72,0.37,147.52178633975487
0,14.71,14.53,14.65,14.96,14.71,-23.93,-815.43,631.84,1.29,1.46,-1.34,147.52178633975487
0,14.71,14.52,14.65,14.95,14.71,-31.74,-802.25,649.41,0.06,-0.05,1.37,147.52178633975487
0,14.71,14.52,14.65,14.96,14.71,-26.86,-790.04,648.44,0.88,1.07,-1.52,147.52178633975487
0,14.71,14.52,14.65,14.95,14.71,-40.53,-807.62,631.84,0.12,0.84,-1.31,147.52178633975487
0,14.7,14.52,14.65,14.95,14.71,-34.67,-788.57,646.97,0.7,-0.71,-0.79,147.52178633975487
0,14.7,14.52,14.65,14.96,14.71,-32.71,-800.29,644.53,-0.84,2.77,-2.41,147.52178633975487
0,14.7,14.52,14.65,14.96,14.71,-35.64,-802.73,641.11,0.03,0.06,2.63,147.52178633975487
0,14.7,14.52,14.65,14.96,14.71,-25.88,-808.11,637.21,0.77,-0.13,0.35,147.52178633975487
0,14.7,14.52,14.65,14.96,14.71,-45.9,-794.43,634.77,1.66,1.52,0.72,147.52178633975487
0,14.7,14.52,14.65,14.96,14.71,-26.86,-799.32,654.3,-1.33,1.38,0.37,147.52178633975487
0,14.7,14.52,14.65,14.96,14.71,-43.46,-810.06,640.14,-1.79,0.85,-0.4,147.52178633975487
0,14.7,14.52,14.65,14.96,14.71,-36.13,-806.15,637.21,1.22,-1.6,0.58,147.52178633975487
0,14.7,14.52,14.65,14.96,14.71,-44.92,-808.11,638.18,0.19,0.64,-0.65,147.52178633975487
0,14.7,14.52,14.65,14.97,14.71,-43.95,-807.62,631.84,-2.72,-0.79,-0.98,147.52178633975487
0,14.7,14.52,14.65,14.97,14.71,-37.11,-808.59,634.28,-1.01,1.13,0.49,147.52178633975487
0,14.7,14.52,14.65,14.97,14.71,-35.16,-807.13,630.37,0.18,-0.56,0.26,147.52178633975487
0,14.7,14.52,14.65,14.97,14.71,-43.46,-795.9,628.42,-0.12,1.23,0.23,147.52178633975487
0,14.69,14.52,14.65,14.98,14.71,-30.27,-801.27,635.25,-0.63,0.12,-0.45,147.52178633975487
0,14.69,14.52,14.65,14.99,14.71,-46.39,-803.71,653.81,-1.66,-0.29,1.08,147.52178633975487
0,14.69,14.52,14.65,15.0,14.72,-21.0,-801.76,637.7,0.46,1.5,-1.28,148.52178633975487
0,14.69,14.52,14.65,15.01,14.72,-41.02,-814.94,637.21,-0.69,-0.34,-0.23,148.52178633975487
0,14.68,14.52,14.65,15.02,14.72,-26.37,-798.34,641.11,-0.52,0.21,0.17,148.52178633975487
0,14.68,14.52,14.65,15.03,14.72,-39.55,-803.22,636.72,-0.49,1.08,-1.6,148.52178633975487
0,14.68,14.52,14.65,15.04,14.72,-29.79,-807.62,634.77,0.69,0.72,-0.69,148.52178633975487
0,14.68,14.52,14.65,15.06,14.73,-39.55,-803.71,648.44,0.95,1.78,-0.02,149.52178633975484
0,14.68,14.52,14.65,15.07,14.73,-43.95,-807.62,634.77,-1.9,1.22,-1.72,149.52178633975484
0,14.68,14.52,14.65,15.07,14.73,-30.76,-789.06,634.28,-0.92,0.57,1.87,149.52178633975484
0,14.67,14.52,14.65,15.08,14.73,-35.64,-805.66,646.97,-1.03,-0.15,-1.56,149.52178633975484
0,14.67,14.52,14.65,15.08,14.73,-32.71,-792.48,639.65,-1.27,0.5,0.32,149.52178633975484
0,14.67,14.52,14.65,15.08,14.73,-29.79,-819.82,626.95,-3.47,2.61,-1.23,149.52178633975484
0,14.67,14.52,14.65,15.09,14.73,-34.67,-810.06,636.72,1.0,0.9,0.18,149.52178633975484
0,14.67,14.52,14.65,15.09,14.73,-31.25,-809.57,644.04,-0.9,-1.41,0.51,149.52178633975484
0,14.67,14.52,14.65,15.09,14.73,-25.39,-797.36,642.09,-1.32,0.9,0.12,149.52178633975484
0,14.67,14.52,14.65,15.09,14.73,-30.27,-801.27,627.93,-2.24,1.79,-0.02,149.52178633975484
0,14.67,14.52,14.65,15.1,14.73,-37.11,-802.73,646.0,1.05,1.63,1.62,149.52178633975484
0,14.67,14.52,14.65,15.12,14.74,-37.11,-790.53,648.44,0.89,0.32,-0.39,150.5217863397548
0,14.67,14.52,14.65,15.13,14.74,-39.55,-815.92,637.21,0.29,-0.44,-2.26,150.5217863397548
0,14.67,14.52,14.65,15.14,14.74,-28.81,-808.59,631.84,-0.31,1.79,-0.89,150.5217863397548
0,14.66,14.52,14.65,15.14,14.74,-18.55,-799.8,647.46,0.39,-3.4,0.19,150.5217863397548
0,14.66,14.52,14.65,15.14,14.74,-43.46,-798.83,635.74,0.12,2.16,1.25,150.5217863397548
0,14.66,14.52,14.65,15.15,14.74,-26.37,-808.11,646.48,-2.38,0.6,-2.04,150.5217863397548
0,14.66,14.52,14.65,15.15,14.75,-29.3,-785.64,647.46,2.27,1.44,-1.14,151.52178633975478
0,14.66,14.51,14.65,15.16,14.75,-33.69,-810.06,633.3,-0.28,-0.14,-2.11,151.52178633975478
0,14.66,14.52,14.65,15.16,14.75,-43.46,-792.48,641.11,0.26,3.12,0.11,151.52178633975478
0,14.66,14.51,14.65,15.16,14.75,-30.27,-800.78,637.7,-0.34,-1.95,-1.94,151.52178633975478
0,14.66,14.52,14.65,15.16,14.75,-34.18,-791.99,645.02,0.02,-0.41,-0.68,151.52178633975478
0,14.66,14.52,14.65,15.17,14.75,-32.71,-801.76,661.62,-1.18,-0.04,-0.32,151.52178633975478
0,14.66,14.51,14.65,15.18,14.75,-41.99,-805.18,624.51,-0.27,-0.05,-1.85,151.52178633975478
0,14.66,14.51,14.65,15.18,14.75,-32.23,-809.08,639.16,-1.6,1.88,-1.75,151.52178633975478
0,14.65,14.51,14.65,15.18,14.75,-28.81,-801.76,632.32,-2.05,-1.35,-0.36,151.52178633975478
0,14.66,14.51,14.65,15.18,14.75,-25.39,-802.25,659.18,-0.98,0.85,1.95,151.52178633975478
0,14.65,14.51,14.65,15.18,14.75,-31.74,-816.89,634.77,-0.69,-0.53,-0.04,151.52178633975478
0,14.65,14.51,14.65,15.17,14.75,-35.64,-796.87,639.65,-0.41,-0.77,2.81,151.52178633975478
0,14.65,14.51,14.65,15.17,14.75,-22.95,-810.06,641.6,-2.8,2.39,0.66,151.52178633975478
0,14.65,14.51,14.65,15.15,14.74,-43.46,-807.62,630.37,-2.34,-1.98,-0.21,150.5217863397548
0,14.65,14.51,14.65,15.13,14.73,-39.06,-809.08,634.28,-1.04,-0.66,-2.91,149.52178633975484
0,14.65,14.51,14.65,15.1,14.73,-37.11,-811.52,639.65,-3.92,1.87,1.08,149.52178633975484
0,14.65,14.51,14.65,15.07,14.72,-37.6,-813.48,622.07,-2.76,-1.51,0.08,148.52178633975487
0,14.65,14.51,14.65,15.06,14.72,-51.27,-797.36,640.62,-0.73,0.27,1.77,148.52178633975487
0,14.65,14.51,14.65,15.05,14.71,-58.11,-810.06,632.32,-1.88,1.55,-1.95,147.52178633975487
0,14.65,14.51,14.65,15.05,14.71,-55.18,-812.5,621.58,-0.18,-1.47,-0.37,147.52178633975487
0,14.65,14.51,14.65,15.07,14.72,-45.9,-810.06,625.98,1.21,-2.35,-0.66,148.52178633975487
0,14.66,14.51,14.65,15.11,14.73,-47.85,-808.59,640.62,0.37,1.21,0.75,149.52178633975484
0,14.65,14.51,14.65,15.16,14.74,-45.41,-801.27,643.55,1.61,0.5,-0.76,150.5217863397548
0,14.65,14.51,14.65,15.24,14.76,-39.55,-797.85,630.86,0.32,2.37,-1.31,152.52178633975478
0,14.66,14.51,14.65,15.35,14.79,-36.62,-808.59,627.44,3.37,2.31,-1.05,155.5217863397547
0,14.67,14.51,14.65,15.5,14.83,-35.16,-796.39,637.21,9.27,5.0,-0.25,159.5217863397548
0,14.68,14.52,14.66,15.61,14.86,-41.02,-800.78,645.51,6.67,1.17,-0.89,162.52178633975475
0,14.7,14.52,14.66,15.66,14.88,-36.13,-791.99,656.74,6.94,-1.51,-1.34,164.52178633975484
0,14.73,14.52,14.66,15.69,14.9,-46.88,-787.6,660.16,5.73,-5.26,0.89,166.5217863397548
0,14.76,14.53,14.66,15.71,14.91,-28.32,-782.23,669.43,4.27,-3.19,-0.69,167.52178633975484
0,14.78,14.53,14.66,15.72,14.92,-31.25,-791.99,654.79,-1.52,-1.74,-0.6,168.52178633975478
0,14.79,14.53,14.66,15.74,14.93,-31.25,-794.92,659.67,0.21,-0.44,-0.87,169.52178633975478
0,14.79,14.53,14.66,15.75,14.93,-31.74,-776.37,681.64,-4.74,1.11,-1.65,169.52178633975478
0,14.77,14.53,14.66,15.76,14.93,-35.16,-787.6,647.46,-6.18,4.8,-4.53,169.52178633975478
0,14.76,14.53,14.66,15.77,14.93,-44.43,-788.09,651.37,-5.65,5.98,0.23,169.52178633975478
0,14.75,14.53,14.67,15.78,14.93,-41.02,-800.78,639.65,-3.78,1.5,-0.57,169.52178633975478
0,14.75,14.53,14.67,15.79,14.93,-48.34,-816.89,633.79,-1.05,-0.18,-1.0,169.52178633975478
0,14.75,14.53,14.67,15.79,14.94,-38.09,-809.08,630.86,1.1,3.37,-0.56,170.52178633975473
0,14.76,14.53,14.67,15.8,14.94,-42.48,-797.85,648.44,0.79,-1.87,0.37,170.52178633975473
0,14.76,14.53,14.66,15.81,14.94,-30.27,-791.02,664.55,2.1,-1.55,3.45,170.52178633975473
0,14.77,14.53,14.66,15.79,14.94,-31.74,-780.27,669.92,2.31,-1.42,0.29,170.52178633975473
0,14.77,14.53,14.66,15.77,14.93,-28.32,-797.85,636.72,2.02,-4.93,-0.26,169.52178633975478
0,14.77,14.53,14.66,15.77,14.93,-40.04,-797.85,663.57,3.73,-2.87,-0.89,169.52178633975478
0,14.77,14.53,14.66,15.76,14.93,-38.09,-790.53,652.83,4.42,-0.51,-1.49,169.52178633975478
0,14.76,14.53,14.66,15.78,14.93,-12.21,-824.71,627.44,1.72,-1.85,0.99,169.52178633975478
0,14.75,14.53,14.66,15.84,14.94,-36.62,-805.66,625.0,1.55,-4.11,3.3,170.52178633975473
0,14.73,14.52,14.66,15.88,14.95,-55.66,-776.37,649.41,-0.19,0.48,1.97,171.52178633975473
0,14.72,14.52,14.66,15.85,14.94,-35.64,-800.78,667.48,1.63,2.27,-0.86,170.52178633975473
0,14.71,14.52,14.66,15.85,14.94,-47.85,-821.29,626.46,2.86,-5.62,0.33,170.52178633975473
0,14.71,14.52,14.65,15.83,14.93,-49.8,-787.6,671.39,1.08,-0.4,0.89,169.52178633975478
0,14.7,14.52,14.65,15.83,14.93,-32.71,-798.34,652.34,-4.08,-1.08,-0.93,169.52178633975478
0,14.69,14.52,14.66,15.84,14.93,-7.81,-766.6,687.5,2.81,-1.02,2.69,169.52178633975478
0,14.67,14.52,14.65,15.85,14.92,-41.02,-773.93,664.55,-3.82,-1.53,0.03,168.52178633975478
0,14.63,14.51,14.66,15.84,14.91,-21.48,-790.53,665.53,-6.86,1.3,-1.21,167.52178633975484
0,14.59,14.51,14.66,15.79,14.88,-27.83,-786.62,653.32,-9.1,4.73,-1.23,164.52178633975484
0,14.54,14.5,14.66,15.7,14.85,-41.02,-806.15,650.88,-23.69,7.34,1.34,161.52178633975473
0,14.5,14.49,14.66,15.61,14.81,-14.16,-826.17,636.72,-41.92,11.87,0.23,157.52178633975484
0,14.5,14.49,14.66,15.44,14.77,203.12,-1140.14,559.08,-80.56,15.18,23.26,153.52178633975475
0,14.5,14.49,14.64,15.18,14.7,23.44,-997.07,703.12,-99.56,57.18,77.73,146.52178633975473
0,14.49,14.48,14.63,15.0,14.65,152.83,-1187.01,598.63,-34.81,85.28,117.98,141.52178633975484
0,14.49,14.48,14.63,14.82,14.6,-101.07,-863.77,763.67,-21.27,97.46,132.96,136.52178633975475
0,14.49,14.48,14.62,14.65,14.56,-154.79,-925.78,520.51,-27.44,95.76,144.77,132.52178633975484
0,14.48,14.48,14.62,14.5,14.52,-346.68,-771.48,487.79,-40.67,105.3,149.07,128.52178633975475
0,14.49,14.48,14.62,14.46,14.51,-184.08,-1008.79,619.14,-46.03,94.79,105.14,127.52178633975477
0,14.48,14.48,14.62,14.46,14.51,2.93,-847.66,377.44,49.85,-17.82,-11.69,127.52178633975477
0,14.48,14.48,14.62,14.45,14.51,86.91,-808.59,393.55,6.5,-16.02,6.17,127.52178633975477
0,14.48,14.48,14.62,14.45,14.51,60.06,-757.81,431.15,10.3,-47.86,-26.85,127.52178633975477
0,14.48,14.48,14.62,14.45,14.51,55.66,-788.57,469.24,5.74,-68.15,-51.31,127.52178633975477
0,14.48,14.48,14.62,14.45,14.51,138.18,-884.77,454.59,10.69,-63.39,-54.66,127.52178633975477
0,14.48,14.48,14.62,14.44,14.51,109.86,-811.04,450.2,9.91,-32.74,-72.38,127.52178633975477
0,14.48,14.48,14.62,14.44,14.51,-77.64,-858.89,451.66,20.57,-23.9,-122.77,127.52178633975477
0,14.48,14.48,14.62,14.44,14.51,-172.36,-876.95,424.8,29.73,-41.91,-153.95,127.52178633975477
0,14.48,14.48,14.62,14.44,14.51,-204.1,-980.96,386.72,4.18,-40.92,-130.89,127.52178633975477
0,14.48,14.48,14.62,14.44,14.5,-236.33,-918.95,500.49,-8.26,-31.13,-100.89,126.5217863397548
0,14.48,14.48,14.62,14.44,14.5,-298.34,-939.45,513.18,5.44,-35.66,-106.23,126.5217863397548
0,14.49,14.48,14.62,14.44,14.51,-324.22,-942.38,490.23,23.63,-33.84,-110.04,127.52178633975477
0,14.49,14.48,14.62,14.44,14.5,-489.26,-918.95,608.4,-8.02,5.89,-77.4,126.5217863397548
0,14.49,14.48,14.62,14.44,14.5,-694.34,-862.79,591.8,20.15,8.69,-37.77,126.5217863397548
0,14.49,14.48,14.62,14.43,14.5,-647.46,-808.11,548.83,24.24,7.37,-22.05,126.5217863397548
0,14.49,14.48,14.62,14.43,14.5,-559.08,-860.84,586.43,18.16,-2.53,-14.19,126.5217863397548
0,14.49,14.48,14.61,14.43,14.5,14.65,-872.07,250.0,-99.6,-35.32,37.99,126.5217863397548
0,14.49,14.48,14.61,14.42,14.5,-637.7,-1037.11,673.34,-29.62,4.88,110.43,126.5217863397548
0,14.52,14.49,14.61,14.42,14.51,316.41,-1577.64,578.61,-43.04,-3.53,67.26,127.52178633975477
0,14.53,14.49,14.62,14.45,14.52,-258.3,-1048.83,449.71,29.86,52.08,49.64,128.52178633975475
0,14.57,14.5,14.63,14.61,14.58,10.74,-1106.45,945.31,72.06,3.97,7.27,134.5217863397548
0,14.6,14.51,14.64,14.7,14.61,-298.83,-733.89,957.03,-2.26,12.06,2.65,137.52178633975473
0,14.63,14.52,14.64,14.74,14.63,24.41,-742.19,726.56,2.14,-3.95,1.7,139.52178633975487
0,14.65,14.52,14.65,14.79,14.65,-37.11,-837.4,615.23,9.78,-2.73,-2.39,141.52178633975484
0,14.68,14.53,14.65,14.82,14.67,-37.11,-814.94,621.58,9.95,-3.05,1.13,143.52178633975478
0,14.7,14.53,14.65,14.84,14.68,-48.34,-814.45,636.72,3.7,-1.15,0.24,144.52178633975475
0,14.72,14.53,14.65,14.85,14.69,-34.18,-807.13,622.07,3.18,0.55,-1.76,145.52178633975475
0,14.73,14.53,14.65,14.86,14.69,-46.88,-807.13,637.7,2.41,-0.79,0.1,145.52178633975475
0,14.73,14.53,14.65,14.87,14.7,-35.64,-802.73,632.81,-1.06,-0.05,1.06,146.52178633975473
0,14.72,14.53,14.65,14.87,14.69,-48.34,-804.69,617.19,1.19,2.82,0.72,145.52178633975475
0,14.72,14.53,14.65,14.89,14.7,-42.48,-800.29,638.18,-1.73,3.75,-1.53,146.52178633975473
0,14.7,14.53,14.65,14.92,14.7,-36.62,-802.73,639.65,-0.39,2.77,-2.13,146.52178633975473
0,14.69,14.52,14.65,14.93,14.7,-42.48,-819.34,616.21,-1.15,3.76,-2.6,146.52178633975473
0,14.69,14.52,14.65,14.93,14.7,-35.64,-812.99,637.21,1.53,0.09,0.19,146.52178633975473
0,14.7,14.52,14.65,14.94,14.7,-43.46,-812.99,622.07,0.69,-0.35,0.55,146.52178633975473
0,14.7,14.52,14.65,14.94,14.7,-52.25,-813.48,631.35,0.51,-0.58,-0.83,146.52178633975473
0,14.71,14.53,14.65,14.94,14.71,-48.34,-817.38,638.67,2.56,-0.09,-0.6,147.52178633975487
0,14.71,14.53,14.65,14.95,14.71,-29.79,-800.78,643.07,2.56,-1.06,-2.27,147.52178633975487
0,14.71,14.53,14.65,14.95,14.71,-42.97,-811.52,618.16,-0.21,1.22,0.75,147.52178633975487
0,14.71,14.52,14.65,14.94,14.71,-37.6,-798.34,628.91,-1.68,1.38,-0.73,147.52178633975487
0,14.71,14.52,14.65,14.94,14.71,-46.88,-811.52,629.39,-2.02,1.77,-2.94,147.52178633975487
0,14.7,14.52,14.65,14.92,14.7,-37.11,-806.15,631.84,-2.68,0.92,-2.6,146.52178633975473
0,14.7,14.52,14.65,14.91,14.7,-33.2,-812.01,626.46,-0.87,-0.34,-1.64,146.52178633975473
0,14.7,14.52,14.65,14.88,14.69,-41.99,-816.89,641.11,-0.7,-1.65,-0.53,145.52178633975475
0,14.7,14.52,14.65,14.86,14.68,-51.76,-813.96,620.12,0.28,-1.92,0.35,144.52178633975475
0,14.7,14.52,14.65,14.82,14.67,-38.57,-809.57,622.56,-2.63,0.04,-0.45,143.52178633975478
0,14.7,14.52,14.65,14.79,14.67,-41.02,-801.76,624.51,-3.6,-1.08,-0.47,143.52178633975478
0,14.7,14.52,14.65,14.77,14.66,-33.69,-798.34,637.21,-2.26,-2.16,-1.66,142.5217863397548
0,14.7,14.52,14.65,14.74,14.65,-43.46,-794.92,615.23,-0.24,-1.23,-2.43,141.52178633975484
0,14.7,14.52,14.65,14.73,14.65,-37.6,-812.01,637.7,-2.13,-2.13,-3.56,141.52178633975484
0,14.7,14.52,14.65,14.72,14.65,-29.79,-793.95,642.58,-0.06,1.44,0.96,141.52178633975484
0,14.7,14.52,14.65,14.73,14.65,-53.71,-812.5,643.07,0.43,-1.02,-1.18,141.52178633975484
0,14.7,14.52,14.65,14.74,14.65,-31.74,-803.71,637.7,-0.36,1.42,0.81,141.52178633975484
0,14.69,14.52,14.65,14.76,14.65,-41.02,-828.12,621.09,0.79,2.81,-2.15,141.52178633975484
0,14.69,14.52,14.65,14.77,14.66,-28.32,-806.64,641.6,2.04,3.56,-1.31,142.5217863397548
0,14.69,14.52,14.65,14.79,14.66,-41.5,-817.38,618.16,0.65,-0.4,-1.01,142.5217863397548
0,14.69,14.52,14.65,14.8,14.66,-36.13,-811.04,631.35,2.16,-2.94,-2.33,142.5217863397548
0,14.69,14.52,14.65,14.81,14.67,-43.95,-808.11,630.37,0.63,-0.27,-1.2,143.52178633975478
0,14.69,14.52,14.65,14.82,14.67,-43.46,-805.66,621.09,0.08,-0.56,0.1,143.52178633975478
0,14.69,14.52,14.65,14.83,14.67,-39.06,-811.04,633.79,1.56,-0.84,-1.15,143.52178633975478
0,14.69,14.52,14.65,14.83,14.67,-44.43,-789.06,623.05,-0.47,4.26,-0.79,143.52178633975478
0,14.69,14.52,14.65,14.84,14.67,-33.69,-811.04,630.86,-0.23,1.39,1.26,143.52178633975478
0,14.69,14.52,14.65,14.85,14.68,-30.76,-804.69,634.77,1.31,2.22,-1.21,144.52178633975475
0,14.68,14.52,14.65,14.84,14.67,-55.66,-812.99,613.77,-1.62,1.33,-1.32,143.52178633975478
0,14.68,14.52,14.65,14.83,14.67,-38.57,-796.87,645.51,-0.2,-1.4,-1.3,143.52178633975478
0,14.68,14.52,14.65,14.81,14.67,-50.78,-826.17,634.77,-1.92,-1.49,-0.08,143.52178633975478
0,14.68,14.52,14.65,14.79,14.66,-37.11,-818.85,642.58,-4.42,0.37,-0.17,142.5217863397548
0,14.66,14.51,14.64,14.76,14.64,-64.45,-810.55,638.18,-5.53,0.06,1.25,140.52178633975484
0,14.64,14.51,14.64,14.7,14.62,-46.88,-816.41,630.86,-17.5,3.92,-3.37,138.52178633975473
0,14.6,14.51,14.64,14.6,14.59,-58.11,-827.15,623.54,-23.78,4.89,-3.41,135.52178633975478
0,14.57,14.51,14.63,14.48,14.55,-145.02,-927.25,548.34,-47.74,2.14,-14.16,131.52178633975487
0,14.56,14.51,14.64,14.43,14.53,-67.38,-979.0,310.06,-40.73,1.29,-39.2,129.52178633975473
0,14.54,14.51,14.63,14.43,14.53,-196.78,-1109.38,693.36,-27.09,-28.31,-79.97,129.52178633975473
0,14.51,14.5,14.63,14.43,14.52,-25.39,-910.64,575.2,-19.81,-33.11,-120.21,128.52178633975475
0,14.5,14.49,14.63,14.43,14.51,-196.78,-1093.26,500.49,-36.88,-13.41,-140.87,127.52178633975477
0,14.49,14.49,14.63,14.43,14.51,-588.38,-983.89,473.14,7.73,-11.95,-120.81,127.52178633975477
0,14.49,14.48,14.63,14.43,14.51,-650.88,-891.11,417.48,-14.66,-26.74,-30.71,127.52178633975477
0,14.49,14.48,14.63,14.43,14.51,-557.62,-715.33,418.95,-26.11,-13.04,34.5,127.52178633975477
0,14.49,14.48,14.63,14.43,14.51,-445.8,-815.43,465.82,-29.88,26.51,58.31,127.52178633975477
0,14.49,14.48,14.63,14.43,14.51,-383.3,-834.96,499.02,-21.0,59.76,81.32,127.52178633975477
0,14.49,14.48,14.63,14.43,14.51,-344.24,-891.6,511.23,-8.15,64.7,97.4,127.52178633975477
0,14.49,14.48,14.63,14.43,14.51,-276.86,-927.73,446.29,-5.23,58.08,103.95,127.52178633975477
0,14.49,14.48,14.63,14.42,14.51,-144.04,-861.33,407.71,-19.15,44.34,98.98,127.52178633975477
0,14.49,14.48,14.63,14.42,14.51,-63.48,-978.52,465.82,-21.44,25.75,90.23,127.52178633975477
0,14.49,14.48,14.63,14.43,14.51,59.08,-862.79,466.31,-26.87,5.47,86.85,127.52178633975477
0,14.49,14.48,14.63,14.42,14.51,204.59,-1044.92,524.9,-41.94,-0.79,83.97,127.52178633975477
0,14.49,14.48,14.62,14.42,14.51,364.75,-1041.99,559.08,-12.67,-0.67,98.47,127.52178633975477
0,14.49,14.48,14.62,14.42,14.51,400.88,-928.22,450.68,-11.3,17.7,90.78,127.52178633975477
0,14.49,14.48,14.62,14.42,14.5,318.85,-927.73,427.25,-12.57,25.89,57.43,126.5217863397548
0,14.49,14.48,14.62,14.42,14.5,251.46,-796.39,334.96,-15.02,14.02,19.1,126.5217863397548
0,14.49,14.48,14.62,14.42,14.5,163.57,-943.85,425.78,-24.96,15.0,-4.65,126.5217863397548
0,14.49,14.48,14.62,14.42,14.5,70.8,-905.76,444.82,1.05,12.13,-0.03,126.5217863397548
0,14.49,14.48,14.62,14.42,14.5,-33.69,-817.38,375.49,1.92,15.37,-8.05,126.5217863397548
0,14.49,14.48,14.62,14.42,14.5,-170.9,-829.1,387.7,-9.56,7.95,-26.73,126.5217863397548
0,14.49,14.48,14.62,14.42,14.5,-216.31,-877.93,407.71,-1.43,-6.17,-25.43,126.5217863397548
0,14.49,14.48,14.62,14.42,14.5,-149.41,-875.98,415.04,-8.93,-9.42,-6.28,126.5217863397548
0,14.49,14.48,14.62,14.42,14.5,-202.64,-898.93,436.04,-8.31,-18.11,-6.2,126.5217863397548
0,14.49,14.48,14.62,14.48,14.52,-106.45,-856.93,444.34,-6.85,-22.89,-9.38,128.52178633975475
0,14.49,14.48,14.63,14.51,14.53,134.28,-2000.0,-607.91,-62.24,16.36,-105.7,129.52178633975473
0,14.49,14.48,14.63,14.58,14.54,-45.9,-816.89,608.4,60.91,-41.91,-85.62,130.5217863397547
0,14.49,14.48,14.63,14.62,14.56,-25.39,-1152.83,465.82,21.04,-65.89,-55.69,132.52178633975484
0,14.49,14.49,14.63,14.73,14.58,-61.04,-994.14,544.43,38.43,-41.85,-57.24,134.5217863397548
0,14.49,14.49,14.63,14.93,14.63,18.55,-926.27,589.36,64.59,-66.27,-42.36,139.52178633975487
0,14.49,14.5,14.63,15.14,14.69,-202.15,-987.79,736.33,70.76,-12.73,-13.58,145.52178633975475
0,14.51,14.51,14.64,15.38,14.76,-47.85,-885.25,513.67,49.67,-8.26,-2.44,152.52178633975478
0,14.53,14.52,14.64,15.54,14.81,1.46,-848.63,650.39,28.04,-7.81,-0.95,157.52178633975484
0,14.57,14.54,14.64,15.62,14.84,-8.3,-834.47,612.3,22.4,-9.99,1.12,160.52178633975478
0,14.61,14.56,14.64,15.66,14.87,-0.49,-790.04,653.81,14.37,-7.31,2.15,163.5217863397547
0,14.64,14.58,14.64,15.63,14.87,-49.32,-828.61,594.73,2.84,-4.56,1.33,163.5217863397547
0,14.68,14.59,14.64,15.61,14.88,-37.11,-813.96,618.16,4.84,-9.4,2.92,164.52178633975484
0,14.71,14.6,14.64,15.61,14.89,-33.2,-792.48,647.95,3.27,-1.72,1.75,165.52178633975487
0,14.73,14.6,14.64,15.6,14.89,-48.34,-787.11,660.64,-3.81,3.64,-1.63,165.52178633975487
0,14.74,14.6,14.64,15.59,14.89,-21.97,-792.97,633.3,-4.71,8.47,-3.08,165.52178633975487
0,14.75,14.59,14.64,15.57,14.89,-26.37,-818.85,635.25,-5.34,7.11,-3.11,165.52178633975487
0,14.75,14.58,14.65,15.57,14.89,-42.97,-810.06,641.11,-6.43,3.3,-3.76,165.52178633975487
0,14.75,14.58,14.65,15.57,14.89,-43.46,-812.99,628.42,-10.7,3.33,0.17,165.52178633975487
0,14.74,14.58,14.66,15.61,14.9,-51.76,-834.96,588.38,-4.76,5.56,0.17,166.5217863397548
0,14.74,14.57,14.67,15.65,14.91,-31.74,-802.25,602.54,2.74,3.24,-5.2,167.52178633975484
0,14.75,14.56,14.67,15.68,14.92,-42.97,-827.64,620.61,1.31,4.5,-1.06,168.52178633975478
0,14.75,14.56,14.68,15.72,14.93,-33.69,-827.64,604.98,3.41,1.65,-0.44,169.52178633975478
0,14.74,14.56,14.67,15.77,14.94,-49.8,-831.54,611.82,9.84,2.24,-0.45,170.52178633975473
0,14.74,14.56,14.67,15.77,14.94,-37.6,-813.96,629.39,7.67,-2.14,-2.79,170.52178633975473
0,14.75,14.55,14.68,15.73,14.93,-47.85,-812.5,608.89,5.42,-0.69,-1.04,169.52178633975478
0,14.75,14.56,14.68,15.7,14.92,-33.69,-802.25,642.58,4.63,-3.56,-0.9,168.52178633975478
0,14.76,14.56,14.68,15.66,14.91,-33.2,-833.5,630.86,6.11,-1.29,-2.55,167.52178633975484
0,14.77,14.56,14.67,15.63,14.91,-43.95,-795.9,641.11,8.22,-3.37,-0.46,167.52178633975484
0,14.78,14.56,14.68,15.63,14.91,-14.65,-791.5,656.74,6.32,0.63,-1.04,167.52178633975484
0,14.78,14.56,14.68,15.64,14.92,-36.62,-806.15,640.14,6.77,-2.65,-0.62,168.52178633975478
0,14.78,14.56,14.68,15.65,14.92,-36.13,-787.11,652.83,4.9,-1.34,0.18,168.52178633975478
0,14.79,14.56,14.67,15.65,14.92,-31.74,-806.15,636.72,6.41,-3.06,0.02,168.52178633975478
0,14.79,14.55,14.67,15.63,14.91,-27.34,-791.99,657.23,7.6,-6.0,0.98,167.52178633975484
0,14.8,14.55,14.67,15.59,14.9,-27.83,-777.83,665.53,2.33,-2.74,0.65,166.5217863397548
0,14.79,14.55,14.67,15.53,14.89,-22.95,-791.02,669.92,-1.69,-3.22,1.18,165.52178633975487
0,14.78,14.55,14.66,15.42,14.85,-55.66,-806.15,650.88,-5.71,-0.4,0.6,161.52178633975473
0,14.77,14.54,14.66,15.3,14.82,-25.39,-807.62,642.09,-7.81,-1.26,-1.21,158.5217863397548
0,14.76,14.54,14.66,15.23,14.8,-10.25,-770.02,686.04,-3.62,-2.25,-0.8,156.52178633975487
0,14.75,14.54,14.66,15.17,14.78,-42.97,-805.66,644.04,-7.17,-2.15,1.16,154.52178633975473
0,14.73,14.53,14.66,15.11,14.76,-36.62,-800.29,646.0,-5.09,1.85,-0.1,152.52178633975478
0,14.72,14.53,14.66,15.06,14.74,-27.34,-816.89,630.37,-7.66,4.6,-0.25,150.5217863397548
0,14.71,14.53,14.65,15.02,14.73,-37.6,-791.99,643.55,-4.96,1.47,-0.45,149.52178633975484
0,14.71,14.53,14.65,14.98,14.72,-33.2,-809.57,630.37,-2.86,-0.04,-2.81,148.52178633975487
0,14.7,14.53,14.65,14.95,14.71,-53.71,-815.43,624.02,-1.78,-0.15,-0.8,147.52178633975487
0,14.7,14.53,14.65,14.94,14.7,-32.23,-803.71,646.97,-1.08,2.35,-0.38,146.52178633975473
0,14.7,14.53,14.65,14.93,14.7,-33.69,-805.18,628.91,-0.85,-3.93,-0.68,146.52178633975473
0,14.69,14.53,14.65,14.9,14.69,-42.48,-824.71,643.07,-0.44,-0.32,-2.54,145.52178633975475
0,14.69,14.53,14.65,14.88,14.69,-34.18,-795.41,666.02,-1.69,0.53,-1.98,145.52178633975475
0,14.69,14.53,14.65,14.88,14.69,-32.23,-814.45,643.55,-0.08,-1.25,0.67,145.52178633975475
0,14.69,14.53,14.65,14.87,14.68,-28.32,-815.43,626.46,0.11,-1.44,0.5,144.52178633975475
0,14.7,14.53,14.65,14.86,14.68,-18.07,-810.55,640.14,0.07,-1.1,0.23,144.52178633975475
0,14.7,14.53,14.65,14.85,14.68,-22.95,-796.87,630.37,0.98,-1.58,-0.18,144.52178633975475
0,14.71,14.53,14.65,14.86,14.69,-19.53,-805.18,648.93,0.32,-2.09,-0.83,145.52178633975475
0,14.71,14.53,14.65,14.86,14.69,-20.51,-797.85,635.74,3.73,1.25,-1.39,145.52178633975475
0,14.71,14.53,14.65,14.87,14.69,-36.13,-805.18,633.79,0.63,1.85,1.08,145.52178633975475
0,14.71,14.53,14.65,14.86,14.69,-31.74,-789.55,647.95,0.9,1.02,-1.88,145.52178633975475
0,14.71,14.53,14.65,14.86,14.69,-24.9,-807.62,633.3,1.42,-1.11,-2.53,145.52178633975475
0,14.72,14.53,14.65,14.86,14.69,-23.93,-803.71,637.21,1.35,-1.47,0.87,145.52178633975475
0,14.72,14.53,14.65,14.85,14.69,-29.3,-804.69,642.09,-0.27,-0.05,-1.66,145.52178633975475
0,14.72,14.53,14.65,14.85,14.69,-14.16,-791.02,646.0,-1.62,-0.34,-2.53,145.52178633975475
0,14.72,14.53,14.65,14.85,14.69,-21.0,-810.06,643.55,1.1,-0.1,0.0,145.52178633975475
0,14.72,14.53,14.65,14.86,14.69,-34.18,-800.29,635.74,0.09,0.24,-2.51,145.52178633975475
0,14.72,14.53,14.65,14.86,14.69,-30.76,-805.18,647.95,-1.39,4.02,-0.31,145.52178633975475
0,14.71,14.53,14.65,14.88,14.69,-45.9,-804.69,639.16,0.62,1.27,1.8,145.52178633975475
0,14.71,14.53,14.65,14.88,14.69,-32.71,-805.66,647.95,-0.08,0.85,-0.11,145.52178633975475
0,14.71,14.53,14.65,14.89,14.7,-32.71,-799.32,638.18,0.39,-0.82,0.36,146.52178633975473
0,14.71,14.53,14.65,14.9,14.7,-32.71,-805.18,624.51,0.08,0.42,1.08,146.52178633975473
0,14.7,14.53,14.65,14.91,14.7,-29.79,-807.62,636.23,1.34,2.94,0.54,146.52178633975473
0,14.7,14.53,14.65,14.92,14.7,-29.79,-803.71,643.07,0.01,0.63,0.23,146.52178633975473
0,14.7,14.53,14.65,14.93,14.7,-29.79,-806.15,641.11,-1.47,-0.52,-0.89,146.52178633975473
0,14.7,14.53,14.65,14.94,14.7,-33.69,-813.48,630.86,1.27,1.83,-1.71,146.52178633975473
0,14.69,14.53,14.65,14.95,14.7,-27.83,-808.59,635.74,-0.28,3.08,1.23,146.52178633975473
0,14.69,14.52,14.65,14.95,14.71,-36.13,-807.62,646.0,0.6,1.27,1.32,147.52178633975487
0,14.69,14.53,14.65,14.96,14.71,-29.3,-811.04,628.42,-0.17,2.63,1.66,147.52178633975487
0,14.69,14.53,14.65,14.96,14.71,-42.48,-797.36,632.81,-1.12,1.08,-0.56,147.52178633975487
0,14.69,14.52,14.65,14.96,14.71,-37.6,-807.62,636.23,-0.22,-1.17,-1.53,147.52178633975487
0,14.69,14.53,14.65,14.96,14.71,-36.13,-794.92,630.37,-1.63,-1.1,2.5,147.52178633975487
0,14.69,14.52,14.65,14.96,14.7,-46.39,-797.85,643.07,-1.6,-0.89,-0.66,146.52178633975473
0,14.69,14.52,14.65,14.95,14.7,-32.71,-797.36,631.84,0.16,0.34,-2.18,146.52178633975473
0,14.68,14.52,14.65,14.95,14.7,-35.64,-809.08,645.02,0.02,-2.72,0.18,146.52178633975473
