currTime,s1,s2,s3,s4,s,AccX,AccY,AccZ,GyroX,GyroY,GyroZ,GRF
26,794.92,780.25,758.00,770.22,775.85,-49.32,-883.79,494.14,-1.07,0.16,-0.73,-517.89
60,794.85,780.19,757.94,770.02,775.75,-34.18,-896.00,473.63,0.65,0.69,-1.19,-515.81
94,794.92,780.04,758.00,769.86,775.70,-30.27,-896.00,473.63,-0.74,2.35,-1.33,-510.97
128,794.88,779.98,758.01,769.65,775.63,-30.76,-904.30,488.77,-1.48,0.27,-0.63,-506.86
162,794.97,779.90,757.92,769.48,775.57,-41.99,-895.51,488.28,-1.78,-0.27,-0.12,-506.37
196,795.13,779.67,757.91,769.23,775.48,-31.25,-889.16,483.89,-2.43,1.68,1.28,-501.75
236,795.08,779.50,757.85,768.99,775.35,-27.83,-905.76,484.86,-1.28,2.34,-0.62,-498.12
271,795.00,779.27,757.88,768.84,775.25,-41.02,-894.53,482.42,0.34,1.60,1.98,-492.97
306,794.99,779.06,757.82,768.54,775.10,-38.09,-896.97,477.54,-1.40,0.97,-2.93,-488.24
341,794.90,778.88,757.80,768.22,774.95,-43.95,-894.53,470.70,-1.72,2.84,-0.21,-482.40
376,794.70,778.38,757.76,767.95,774.70,-39.55,-895.51,473.14,-1.59,1.49,-2.08,-474.76
411,794.63,778.01,757.69,767.59,774.48,-36.62,-903.32,481.45,0.36,2.35,-1.41,-467.87
449,794.77,777.39,757.63,767.11,774.23,-32.23,-905.76,469.73,-2.47,0.45,-1.12,-457.91
484,795.09,776.70,757.59,766.59,773.99,-30.76,-900.39,470.21,-3.20,-0.66,-0.21,-446.84
519,795.21,776.04,757.58,766.16,773.75,-33.20,-900.88,471.19,-2.21,-0.07,2.06,-435.86
554,794.90,775.68,757.56,766.02,773.54,-46.88,-900.39,481.93,-1.60,0.79,-0.43,-430.23
589,794.55,775.19,757.45,765.64,773.21,-31.25,-897.95,476.56,-0.61,1.63,-0.66,-422.32
624,794.19,774.78,757.45,765.33,772.94,-53.22,-907.71,481.93,-3.26,0.25,-0.94,-413.30
662,793.68,774.40,757.46,764.97,772.63,-23.44,-896.48,467.29,-3.91,-0.51,-0.22,-402.98
697,793.20,774.05,757.36,764.84,772.36,-38.57,-907.71,472.17,-2.56,1.85,-1.40,-398.97
732,792.38,773.79,757.28,764.70,772.04,-49.80,-904.79,474.61,-1.18,2.61,2.42,-394.04
767,791.58,773.41,757.35,764.58,771.73,-47.85,-912.60,474.12,-2.78,1.68,-1.98,-384.81
802,790.53,773.16,757.30,764.34,771.33,-37.11,-904.30,479.00,-1.44,-0.75,-3.97,-376.80
840,789.04,772.72,757.26,764.16,770.80,-35.16,-912.11,472.17,-5.79,-4.28,0.67,-366.62
875,787.86,772.37,757.29,763.93,770.36,-34.67,-907.71,470.21,-3.63,0.45,1.53,-355.49
910,787.07,771.97,757.20,763.62,769.97,-51.27,-916.50,458.01,-4.47,0.63,-1.24,-347.26
945,786.31,771.53,757.08,763.31,769.56,-46.88,-928.22,475.10,-3.87,3.41,-2.47,-339.81
980,785.65,771.24,757.13,763.04,769.27,-41.50,-908.20,458.98,-4.87,4.63,-1.67,-329.87
1015,785.18,770.88,757.07,762.72,768.97,-50.29,-914.55,452.15,-4.94,-1.58,-1.38,-322.18
1053,784.89,770.51,757.06,762.52,768.74,-37.11,-919.92,446.78,-4.10,-2.46,1.98,-315.41
1089,784.53,770.15,757.04,762.23,768.49,-39.06,-908.20,466.31,-3.95,1.84,0.60,-307.59
1124,784.15,769.90,757.08,762.08,768.30,-41.50,-928.71,438.96,-3.53,0.11,0.01,-301.17
1159,783.75,769.72,756.96,761.99,768.11,-48.83,-912.60,449.71,-2.50,-1.88,-2.09,-299.96
1194,783.39,769.58,757.03,761.88,767.97,-55.18,-912.11,440.43,-3.66,2.64,0.82,-294.29
1229,782.94,769.35,756.92,761.86,767.77,-51.76,-910.64,430.66,-2.34,-0.34,-0.49,-293.22
1267,782.57,769.41,756.90,761.83,767.68,-48.83,-924.32,443.85,-1.36,-1.67,2.63,-292.54
1301,782.38,769.50,756.96,761.78,767.65,-37.60,-915.53,435.55,-0.37,0.06,1.63,-290.29
1366,782.21,769.59,756.89,761.78,767.62,-62.01,-925.78,442.38,-0.05,-1.10,-0.02,-292.16
1401,782.06,769.68,756.97,761.94,767.66,-42.97,-925.29,443.85,-0.73,0.17,-1.37,-292.74
1435,781.91,769.86,756.94,761.97,767.67,-39.06,-915.04,443.85,0.12,-1.83,-1.41,-294.95
1470,782.06,770.19,756.98,762.20,767.86,-46.88,-933.11,447.27,2.34,-0.69,-2.03,-300.46
1507,782.15,770.88,757.07,762.62,768.18,-43.46,-925.29,433.59,5.66,2.31,-2.31,-310.17
1542,782.16,771.40,757.11,762.91,768.39,-34.18,-919.43,455.08,2.35,0.63,-3.11,-317.73
1576,782.67,771.90,757.15,763.09,768.70,-57.62,-908.20,448.24,0.85,0.27,-1.05,-325.11
1611,783.30,772.19,757.10,763.13,768.93,-43.95,-925.29,451.17,2.68,-0.59,-0.14,-331.60
1645,784.13,772.48,757.07,763.22,769.23,-46.39,-922.85,454.10,0.62,-0.21,-4.26,-338.58
1680,784.91,772.86,757.09,763.35,769.55,-42.97,-919.92,448.73,0.42,0.62,-2.16,-345.89
1717,785.81,773.20,757.10,763.51,769.91,-41.50,-909.18,468.75,-1.36,-0.21,1.18,-353.74
1752,786.31,773.52,757.22,763.59,770.16,-40.53,-917.48,439.94,0.37,-0.16,-1.37,-356.13
1786,786.80,773.80,757.22,763.70,770.38,-35.16,-920.90,455.57,0.63,1.08,-1.47,-361.65
1821,787.36,773.99,757.20,763.68,770.56,-48.34,-929.20,457.52,1.16,-1.00,-1.63,-365.54
1856,787.83,774.10,757.22,763.71,770.71,-38.09,-913.57,449.22,-2.13,1.21,0.64,-367.94
1891,788.49,774.22,757.22,763.60,770.89,-39.55,-907.23,458.98,-1.06,1.45,-0.89,-369.43
1928,789.04,774.31,757.23,763.53,771.03,-36.62,-909.67,451.17,-1.69,0.79,-2.50,-370.85
1963,789.69,774.39,757.18,763.40,771.17,-47.85,-913.57,446.29,-0.05,1.66,-0.37,-373.04
1998,790.22,774.48,757.18,763.31,771.30,-50.78,-915.04,454.59,-1.73,1.54,-2.79,-374.17
2032,790.56,774.54,757.12,763.21,771.36,-41.99,-926.76,456.54,-0.20,-0.77,-1.57,-375.95
2067,790.82,774.63,757.14,763.15,771.44,-35.16,-909.18,448.24,-0.92,0.75,-1.94,-376.13
2104,791.30,774.81,757.11,763.13,771.59,-58.59,-923.34,443.36,-3.78,3.21,-0.82,-379.63
2139,791.57,775.03,757.16,763.02,771.69,-34.67,-924.80,437.99,-1.95,-1.57,-2.08,-379.65
2174,791.91,775.08,757.22,763.00,771.80,-28.32,-905.27,443.85,-0.77,-0.69,-1.92,-379.30
2209,792.30,775.22,757.12,762.87,771.88,-37.60,-930.66,452.64,-1.88,-1.35,-1.98,-382.45
2243,792.67,775.21,757.07,762.73,771.92,-50.78,-930.18,428.22,-1.91,-1.44,-2.54,-382.66
2278,793.06,775.28,757.10,762.61,772.01,-47.85,-920.41,447.27,-2.99,1.08,-0.33,-382.09
2316,793.64,775.33,757.07,762.54,772.15,-34.67,-935.06,434.08,-1.45,-0.66,-1.47,-384.14
2351,794.28,775.22,757.04,762.51,772.26,-48.83,-919.43,437.99,-1.32,0.60,-0.56,-385.80
2385,794.97,775.13,757.07,762.37,772.38,-32.23,-909.67,431.15,-4.85,0.74,1.13,-384.78
2420,795.70,775.01,757.02,762.27,772.50,-58.11,-925.29,427.25,-1.47,-1.02,2.18,-385.94
2455,796.33,774.95,757.01,762.20,772.62,-30.76,-929.20,437.01,-1.55,-1.30,-1.59,-386.86
2490,796.97,774.86,757.01,762.16,772.75,-37.60,-927.73,428.22,-2.28,-0.36,-1.58,-387.83
2527,797.37,774.71,756.97,762.14,772.80,-39.06,-930.18,422.85,-0.89,0.34,-1.76,-388.68
2562,797.71,774.60,757.00,762.15,772.87,-55.66,-925.78,426.27,-1.76,-0.77,-2.20,-388.28
2596,798.02,774.57,756.95,762.01,772.89,-27.34,-915.04,418.95,-2.79,-1.89,0.83,-388.37
2631,798.25,774.41,756.87,762.02,772.88,-43.46,-925.78,434.57,-2.24,0.69,-3.53,-389.99
2666,798.32,774.34,757.00,761.94,772.90,-44.92,-917.97,431.15,-1.09,-0.62,-0.37,-385.22
2701,798.44,774.23,756.98,761.84,772.87,-40.04,-919.92,442.38,-2.05,1.60,0.20,-383.91
2738,798.76,774.13,756.95,761.77,772.90,-39.06,-925.29,434.57,-0.68,-0.99,0.84,-383.79
2773,798.79,774.07,756.91,761.81,772.90,-29.79,-921.87,432.13,-0.89,1.31,0.36,-384.86
2808,798.62,773.94,756.94,761.70,772.80,-37.60,-913.09,427.25,-1.11,1.24,-2.58,-381.17
2843,798.27,773.95,756.95,761.84,772.75,-43.95,-934.57,419.92,-0.20,3.84,-2.13,-381.54
2877,797.82,773.88,756.94,761.80,772.61,-40.53,-918.46,440.43,-1.07,1.16,-2.18,-379.35
2912,797.42,773.80,756.92,761.85,772.50,-62.01,-922.36,426.27,-0.09,-2.28,-1.08,-378.45
2949,797.23,773.65,756.92,761.86,772.41,-46.88,-916.99,423.83,-0.97,0.00,-2.88,-376.59
2984,796.97,773.60,757.01,761.77,772.34,-41.50,-919.43,436.04,-3.59,0.05,-2.11,-371.82
3018,796.80,773.62,756.96,761.78,772.29,-46.39,-925.29,422.85,-0.42,-0.34,1.12,-372.86
3053,796.68,773.54,756.99,761.61,772.21,-47.36,-937.01,419.92,-0.83,1.39,-1.34,-368.67
3088,796.56,773.46,756.96,761.53,772.13,-48.83,-925.29,418.95,-2.85,2.24,-1.42,-367.12
3125,796.53,773.31,756.91,761.41,772.04,-40.04,-928.22,427.25,-1.80,2.05,-1.18,-365.27
3160,796.47,773.37,756.91,761.26,772.00,-28.81,-931.15,414.06,-3.22,2.02,1.82,-363.39
3194,796.54,773.27,756.90,761.13,771.96,-46.88,-936.04,423.34,-3.66,1.47,1.35,-361.14
3229,796.71,773.20,756.83,760.97,771.93,-43.95,-945.80,426.27,-2.62,-0.53,-0.11,-360.63
3264,796.67,773.18,756.87,760.97,771.92,-39.06,-918.95,408.69,-5.34,-1.72,1.02,-359.29
3299,796.59,773.19,756.87,760.97,771.90,-48.34,-931.15,406.25,-6.29,0.14,-1.41,-359.12
3336,796.39,773.26,756.77,761.02,771.86,-39.55,-927.25,408.69,-5.03,2.07,-1.39,-362.16
3371,796.14,773.39,756.90,760.91,771.84,-48.83,-937.50,405.27,-3.95,3.02,-0.23,-357.42
3406,795.81,773.30,756.83,761.00,771.74,-41.50,-926.76,397.46,-4.05,-1.07,2.90,-358.64
3440,795.36,773.31,756.80,761.05,771.63,-45.41,-939.94,410.64,-3.92,0.05,0.13,-358.50
3475,794.89,773.34,756.79,761.04,771.52,-24.90,-956.54,432.13,-3.67,-0.96,-3.18,-357.42
3510,794.66,773.41,756.73,761.01,771.45,-43.95,-932.62,400.39,-2.08,1.49,-1.15,-358.38
3547,794.46,773.33,756.77,760.92,771.37,-37.11,-937.50,400.39,-4.71,-1.06,-2.44,-354.58
3582,794.19,773.32,756.76,760.96,771.31,-58.59,-932.62,396.48,-5.95,1.98,-0.05,-354.48
3617,793.87,773.37,756.71,760.95,771.23,-29.79,-945.80,390.62,-8.70,-2.37,0.10,-354.95
3652,793.38,773.33,756.73,760.90,771.08,-41.50,-947.27,400.88,-4.62,2.18,0.74,-351.61
3687,793.17,773.33,756.69,761.02,771.05,-44.92,-946.29,389.16,-4.02,-1.35,-2.78,-353.80
3722,793.40,773.34,756.65,761.00,771.10,-45.90,-952.64,378.91,-2.40,0.25,-0.74,-355.26
3759,793.82,773.43,756.66,761.05,771.24,-35.64,-953.61,388.18,1.95,0.93,-0.86,-357.81
3794,794.31,773.52,756.71,761.02,771.39,-27.83,-947.27,387.21,-0.21,0.80,-6.65,-358.60
3829,794.81,773.70,756.69,760.92,771.53,-32.71,-945.80,380.37,-0.91,2.07,-3.49,-360.89
3864,795.16,773.90,756.63,761.00,771.67,-35.16,-952.15,388.67,0.04,0.51,-0.39,-366.45
3899,795.66,774.06,756.70,760.98,771.85,-47.85,-931.15,379.88,-1.05,-0.31,-1.03,-367.11
3934,795.85,774.18,756.64,761.02,771.92,-42.48,-948.73,371.09,-1.40,0.52,-0.66,-370.80
3971,795.99,774.31,756.66,761.06,772.01,-48.83,-940.43,385.25,-5.05,-0.84,-1.15,-372.59
4006,795.69,774.40,756.56,760.98,771.91,-44.43,-937.99,381.84,-5.95,-1.83,-1.81,-373.57
4041,795.73,774.49,756.62,760.92,771.94,-10.25,-948.24,359.86,-7.92,3.16,-1.02,-371.93
4075,795.69,774.39,756.65,760.87,771.90,-27.83,-949.71,355.47,-5.44,2.77,-1.40,-369.54
4110,795.67,774.39,756.67,760.88,771.90,-43.95,-962.40,381.35,-6.03,0.85,1.32,-369.27
4145,795.26,774.30,756.61,760.88,771.76,-40.53,-961.91,362.79,-6.56,-0.37,-1.60,-368.53
4183,794.73,774.20,756.63,760.89,771.61,-44.92,-942.38,357.42,-7.02,2.95,0.24,-365.66
4218,794.15,774.22,756.58,760.87,771.46,-36.62,-945.80,360.35,-6.77,3.10,0.71,-364.72
4253,793.43,774.06,756.51,760.78,771.20,-50.78,-952.64,352.05,-7.06,3.73,-1.30,-361.29
4288,792.74,773.91,756.58,760.83,771.01,-63.96,-937.99,340.33,-7.31,-3.38,-1.76,-356.87
4323,792.15,773.80,756.48,760.83,770.82,-49.80,-971.19,346.68,-7.62,-2.55,1.46,-356.32
4360,791.71,773.74,756.48,760.77,770.68,-67.38,-975.10,322.27,-5.93,-2.92,-0.09,-353.55
4395,791.33,773.66,756.51,760.77,770.57,-68.36,-951.17,337.40,-5.31,-0.53,0.79,-350.70
4430,790.97,773.54,756.45,760.74,770.43,-40.53,-960.45,320.31,-4.15,2.31,-0.71,-349.65
4465,790.72,773.50,756.52,760.72,770.37,-46.39,-955.08,334.47,-2.76,-1.47,-1.63,-346.40
4500,790.44,773.50,756.57,760.75,770.31,-41.02,-966.80,334.96,-2.09,1.17,-3.01,-344.75
4535,790.02,773.43,756.56,760.72,770.18,-35.16,-961.91,332.52,-4.58,2.60,-0.04,-342.39
4572,789.69,773.38,756.52,760.62,770.05,-45.90,-960.94,318.36,-2.08,2.16,-1.85,-340.52
4607,789.46,773.28,756.45,760.68,769.97,-51.27,-968.26,322.27,0.63,1.47,-0.53,-341.58
4642,789.39,773.27,756.47,760.66,769.95,-43.46,-969.24,315.43,-0.53,1.70,-4.08,-340.40
4677,789.53,773.34,756.44,760.63,769.99,-46.39,-973.63,345.70,2.77,-0.89,-0.54,-341.68
4711,789.74,773.45,756.46,760.56,770.05,-57.13,-960.94,332.52,3.05,-1.04,-0.46,-341.77
4746,790.02,773.48,756.54,760.62,770.17,-38.09,-968.75,323.24,2.60,0.21,-0.08,-341.92
4784,790.00,773.59,756.56,760.70,770.21,-40.53,-964.36,333.01,1.69,-0.05,-1.05,-343.42
4819,789.91,773.74,756.43,760.67,770.19,-50.29,-960.94,339.84,2.81,-0.81,-0.76,-347.16
4853,789.78,773.88,756.45,760.80,770.23,-49.80,-958.01,338.87,2.81,-1.07,0.70,-349.06
4888,789.51,774.00,756.43,760.77,770.18,-45.41,-973.14,333.01,0.93,-1.05,0.04,-349.31
4923,789.46,774.04,756.46,760.82,770.19,-56.64,-957.52,338.38,0.95,-2.18,-0.44,-349.49
4957,789.34,774.06,756.56,760.83,770.19,-43.46,-962.40,338.87,2.05,0.99,-0.60,-346.84
4995,789.18,774.11,756.46,760.92,770.17,-46.39,-963.87,344.73,-1.00,-2.24,1.50,-350.40
5029,788.99,774.14,756.50,760.88,770.13,-41.99,-959.96,325.68,0.08,0.02,-0.56,-348.65
5064,788.79,774.13,756.56,760.93,770.10,-47.85,-972.66,334.47,1.44,-0.73,-0.94,-347.02
5100,788.40,774.11,756.50,760.92,769.98,-40.53,-954.10,343.26,0.37,-2.27,-0.98,-346.75
5135,788.16,774.05,756.46,760.85,769.88,-49.80,-958.01,331.05,-2.17,-1.31,0.49,-345.46
5170,787.77,774.09,756.48,760.81,769.79,-49.32,-959.96,328.12,0.34,-1.44,-2.05,-343.34
5207,787.45,773.94,756.46,760.86,769.68,-53.22,-969.73,327.15,-0.26,-0.66,0.06,-342.19
5242,787.14,774.00,756.57,760.82,769.63,-42.97,-950.68,343.26,0.81,0.51,-1.95,-338.43
5277,786.84,773.98,756.48,760.80,769.52,-42.97,-961.91,339.36,-0.98,2.56,-3.64,-339.24
5312,786.69,774.07,756.54,760.86,769.54,-46.39,-959.47,335.94,0.44,-0.62,-0.61,-338.73
5347,786.46,774.14,756.49,760.86,769.49,-28.81,-951.66,327.64,1.13,0.73,0.02,-339.85
5382,786.34,774.22,756.52,760.82,769.48,-41.02,-975.10,352.54,-0.53,0.26,-0.92,-338.55
5420,786.21,774.36,756.44,760.80,769.45,-46.39,-954.59,333.50,3.50,0.73,-3.60,-341.05
5455,786.42,774.34,756.50,760.74,769.50,-50.29,-959.47,346.68,5.48,1.80,-0.35,-339.19
5489,786.42,774.40,756.54,760.77,769.53,-28.81,-960.45,348.14,3.16,-0.94,-1.11,-339.15
5524,786.38,774.38,756.52,760.75,769.51,-44.92,-961.43,349.12,3.31,-3.48,-0.15,-339.12
5559,786.26,774.41,756.58,760.79,769.51,-52.25,-955.08,354.98,2.03,-3.55,-0.22,-337.93
5597,786.11,774.36,756.57,760.82,769.47,-44.92,-975.59,354.98,3.47,1.82,-0.10,-337.83
5632,786.00,774.36,756.53,760.87,769.44,-33.69,-960.45,350.59,2.91,-0.96,-3.01,-339.06
5667,785.92,774.34,756.60,760.93,769.45,-50.78,-951.17,356.93,4.35,0.73,-1.20,-337.91
5701,785.88,774.31,756.60,761.07,769.47,-57.62,-957.52,351.07,0.86,-0.15,0.34,-339.64
5736,785.77,774.28,756.61,761.14,769.45,-55.66,-959.47,359.86,2.11,0.67,-0.87,-339.73
5771,785.57,774.31,756.63,761.17,769.42,-42.48,-951.17,344.24,1.76,-0.40,-1.94,-339.10
5809,785.37,774.31,756.63,761.15,769.37,-37.60,-947.27,352.54,2.14,-0.08,0.37,-338.17
5844,785.20,774.38,756.66,761.19,769.36,-28.32,-937.50,363.28,2.80,-0.43,-1.50,-337.93
5879,785.15,774.30,756.63,761.31,769.35,-43.95,-953.61,357.91,2.19,-2.06,2.38,-339.58
5914,785.17,774.42,756.70,761.35,769.41,-41.50,-957.52,379.39,3.37,1.34,0.60,-339.61
5949,785.30,774.48,756.63,761.48,769.47,-44.43,-964.84,378.42,3.12,0.47,0.32,-344.31
5983,785.47,774.44,756.70,761.52,769.53,-43.95,-946.78,390.62,2.71,-1.53,-1.50,-343.26
6022,785.72,774.49,756.65,761.55,769.60,-44.43,-959.96,371.09,2.77,1.10,-1.32,-346.26
6057,785.95,774.50,756.69,761.66,769.70,-45.90,-939.94,371.58,4.06,-2.17,-1.69,-347.68
6092,786.38,774.62,756.68,761.66,769.84,-40.53,-943.36,375.49,4.98,1.06,0.06,-350.38
6126,786.94,774.66,756.64,761.72,769.99,-45.41,-945.31,377.93,4.50,-1.52,0.69,-354.40
6161,787.42,774.65,756.72,761.70,770.12,-48.83,-940.92,379.39,2.56,-0.21,-2.27,-353.88
6196,787.50,774.53,756.67,761.67,770.09,-41.99,-954.10,396.48,1.79,-0.36,-0.91,-353.86
6234,787.05,774.25,756.63,761.65,769.89,-42.97,-953.61,394.04,-2.27,1.05,2.31,-350.71
6269,786.41,773.81,756.69,761.50,769.60,-47.85,-936.04,383.30,-1.36,0.08,0.81,-341.32
6303,785.52,773.28,756.69,761.31,769.20,-41.02,-935.06,383.30,-4.27,-1.40,1.18,-331.29
6338,784.42,772.60,756.67,761.14,768.71,-46.39,-931.64,375.98,-4.10,2.03,1.55,-319.91
6373,783.15,771.95,756.64,760.91,768.16,-34.67,-942.87,384.77,-4.37,-0.96,1.80,-307.85
6407,781.62,771.25,756.60,760.83,767.58,-44.43,-949.22,382.81,-6.40,-0.49,-0.29,-297.00
6445,779.85,770.49,756.60,760.60,766.89,-37.11,-949.71,373.54,-5.18,4.01,0.67,-281.24
6480,778.30,769.99,756.58,760.53,766.35,-44.92,-960.94,350.10,-6.02,2.95,2.92,-271.44
6515,776.96,769.46,756.52,760.38,765.83,-41.99,-958.98,358.40,-5.27,-0.48,-0.77,-261.84
6549,775.97,769.13,756.55,760.33,765.49,-37.11,-963.38,364.26,-3.89,2.98,0.35,-254.34
6584,775.27,768.86,756.51,760.22,765.22,-52.25,-954.59,372.07,-1.08,-0.20,0.06,-248.98
6619,774.93,768.62,756.57,760.28,765.10,-45.41,-956.05,351.56,-0.47,1.43,-3.37,-245.34
6656,774.74,768.62,756.48,760.25,765.02,-39.55,-956.05,364.75,0.92,1.46,0.21,-246.53
6691,774.55,768.64,756.51,760.33,765.01,-53.71,-964.84,360.35,-0.26,-1.97,0.97,-246.44
6726,774.46,768.75,756.53,760.31,765.01,-60.06,-969.73,359.86,-0.37,-1.48,-0.95,-246.22
6761,774.36,768.78,756.55,760.31,765.00,-41.99,-959.47,368.65,1.70,1.79,-0.03,-245.74
6796,774.36,768.78,756.50,760.41,765.01,-44.43,-953.12,356.93,0.56,-0.01,-0.89,-248.34
6831,774.39,768.81,756.49,760.42,765.03,-61.52,-954.10,357.42,0.32,0.44,0.97,-249.25
6869,774.39,768.90,756.52,760.45,765.06,-53.71,-952.15,351.56,-1.14,-0.17,0.74,-249.56
6903,774.45,768.94,756.58,760.42,765.10,-46.88,-961.43,365.23,-0.29,-1.20,-0.74,-248.11
6938,774.74,769.03,756.55,760.37,765.17,-59.08,-939.94,372.07,0.75,-1.78,-1.38,-249.85
6974,774.84,769.10,756.56,760.45,765.24,-59.57,-953.12,365.72,0.53,0.58,2.16,-251.74
7009,775.18,769.20,756.57,760.38,765.33,-45.41,-949.22,355.47,0.75,-1.15,0.11,-252.33
7047,775.43,769.30,756.49,760.53,765.44,-47.85,-965.33,377.93,2.19,0.92,-0.30,-258.36
7082,775.64,769.46,756.64,760.54,765.57,-46.39,-936.04,359.86,0.62,-0.20,-1.17,-256.60
7117,775.75,769.76,756.58,760.68,765.69,-51.76,-935.55,353.52,-0.69,1.85,-0.78,-263.08
7151,775.96,770.01,756.57,760.64,765.80,-43.95,-958.50,354.00,0.08,-2.45,-0.84,-265.39
7186,776.16,770.18,756.59,760.65,765.89,-55.66,-969.73,356.45,-0.62,1.14,1.30,-267.21
7221,776.57,770.41,756.56,760.73,766.07,-49.32,-957.52,347.17,2.01,1.41,-2.36,-272.24
7259,777.37,770.72,756.59,760.79,766.37,-43.95,-944.34,369.14,-0.03,-1.38,-3.61,-277.66
7293,777.95,770.91,756.61,760.76,766.56,-49.32,-947.75,375.98,-0.77,1.63,0.02,-280.19
7328,778.39,771.06,756.59,760.77,766.70,-39.06,-955.08,352.05,0.58,3.48,-2.30,-283.59
7363,778.70,771.15,756.59,760.79,766.81,-50.29,-957.03,375.49,0.10,2.69,-1.30,-285.63
7398,779.14,771.29,756.58,760.81,766.96,-47.85,-947.27,372.07,0.56,1.78,-3.09,-288.78
7433,779.44,771.41,756.58,760.87,767.07,-48.34,-966.80,368.65,0.63,0.74,-1.57,-291.76
7470,779.71,771.49,756.56,760.81,767.14,-54.69,-956.05,362.79,0.98,0.01,0.73,-292.80
7505,779.97,771.55,756.61,760.82,767.24,-54.69,-946.29,368.65,0.16,-0.13,-0.94,-293.10
7540,779.96,771.66,756.58,760.93,767.28,-43.95,-954.59,360.84,3.27,1.11,-1.33,-296.43
7575,779.81,771.81,756.60,760.88,767.27,-51.76,-955.08,372.07,1.71,-0.31,0.79,-295.76
7610,779.86,771.86,756.60,760.95,767.32,-37.60,-960.45,375.98,2.34,-0.41,-3.15,-297.28
7645,779.89,772.02,756.63,761.04,767.40,-48.83,-953.12,375.00,2.12,1.35,-1.81,-299.39
7683,779.66,772.28,756.66,761.13,767.43,-43.46,-945.80,376.95,3.81,0.47,-2.45,-301.26
7718,779.61,772.56,756.70,761.20,767.52,-47.36,-962.89,377.93,4.70,-0.25,0.46,-303.32
7752,779.73,772.85,756.80,761.39,767.69,-32.23,-958.50,381.35,3.76,-2.11,1.94,-306.49
7787,780.01,773.23,756.86,761.57,767.92,-48.34,-939.94,394.53,10.29,0.48,-1.30,-311.71
7822,780.37,773.65,756.90,761.84,768.19,-35.16,-960.45,384.77,12.41,-3.45,-2.71,-319.16
7857,780.58,774.00,756.95,762.17,768.43,-39.06,-936.04,400.39,12.56,-2.26,0.37,-326.28
7895,780.92,774.49,757.08,762.60,768.77,-38.09,-947.27,402.34,12.36,1.85,-2.60,-334.48
7930,781.54,774.73,757.13,763.03,769.11,-45.90,-918.95,421.87,12.92,0.98,1.43,-343.64
7965,782.06,774.71,757.19,763.33,769.32,-41.99,-917.48,432.62,8.57,-1.93,-0.11,-348.19
8000,782.80,774.77,757.31,763.61,769.62,-53.22,-914.06,428.71,7.30,-3.63,2.12,-352.26
8034,783.63,774.78,757.36,763.88,769.91,-50.29,-926.27,432.62,9.04,-0.88,1.34,-357.96
8069,784.05,774.48,757.31,764.24,770.02,-33.20,-937.01,436.52,8.15,-2.05,0.95,-363.59
8107,784.60,774.20,757.34,764.60,770.19,-45.90,-919.92,448.73,8.56,-0.36,1.31,-367.78
8142,785.48,773.82,757.40,764.70,770.35,-29.30,-924.32,456.54,6.44,-2.18,0.83,-367.61
8176,787.06,773.39,757.40,764.80,770.66,-44.43,-909.18,452.15,5.50,-1.53,0.78,-371.06
8211,789.65,772.91,757.38,764.79,771.19,-51.76,-924.32,455.08,5.81,-1.24,1.42,-376.51
8246,792.82,772.64,757.35,764.76,771.89,-36.13,-917.48,456.54,4.71,-1.77,2.59,-385.47
8280,795.98,772.28,757.38,764.63,772.57,-52.73,-910.64,459.96,2.92,-1.53,0.62,-390.81
8318,799.27,772.08,757.35,764.43,773.28,-48.83,-906.25,467.29,4.07,0.33,0.41,-398.33
8353,801.92,771.67,757.23,764.26,773.77,-42.48,-924.32,459.47,-0.91,0.69,3.07,-404.47
8388,804.04,771.55,757.27,764.08,774.24,-49.80,-915.53,453.61,-2.77,-0.31,-0.31,-407.14
8423,805.25,771.33,757.17,764.04,774.45,-35.16,-912.11,469.24,-3.89,-0.71,0.48,-411.62
8457,805.53,771.28,757.15,764.06,774.50,-42.97,-900.88,473.14,-0.16,-0.59,0.41,-412.91
8495,805.31,771.31,757.21,764.09,774.48,-49.32,-916.02,465.33,0.56,0.18,1.29,-411.35
8530,805.34,771.30,757.16,764.06,774.46,-44.43,-908.20,460.94,-0.08,-0.86,0.76,-412.00
8565,805.13,771.33,757.17,764.18,774.45,-101.56,-921.39,451.66,2.61,-2.33,-0.70,-413.21
8600,804.77,771.37,757.24,764.26,774.41,-37.11,-916.50,449.71,0.13,-2.44,-2.35,-411.64
8635,804.26,771.49,757.22,764.44,774.35,-27.34,-936.04,476.56,-1.11,0.58,-1.51,-414.03
8670,804.13,771.57,757.22,764.56,774.37,-49.32,-906.25,485.84,1.66,-0.33,-0.77,-415.99
8707,803.94,771.61,757.22,764.59,774.34,-58.59,-892.58,468.75,-0.22,0.16,-0.37,-416.01
8742,803.80,771.58,757.26,764.56,774.30,-34.67,-904.30,474.12,1.06,1.46,0.86,-414.03
8777,803.74,771.63,757.23,764.46,774.26,-43.95,-913.09,453.12,-2.50,1.14,-4.28,-413.59
8812,804.07,771.56,757.21,764.40,774.31,-29.79,-917.97,458.50,-1.40,-1.00,-0.15,-413.62
8847,804.74,771.59,757.20,764.16,774.42,-48.83,-911.62,457.03,-2.99,0.72,-1.39,-412.98
8882,805.66,771.56,757.14,764.18,774.64,-54.20,-924.80,461.43,1.11,0.38,-2.09,-417.54
8920,806.64,771.73,757.13,764.25,774.94,-45.90,-906.74,462.89,1.48,0.44,0.37,-423.40
8955,807.74,771.89,757.12,764.23,775.25,-36.13,-907.71,463.38,0.73,-0.73,0.04,-428.50
8990,809.02,772.11,757.13,764.25,775.63,-49.80,-915.53,466.31,0.16,0.11,-2.79,-434.73
9025,810.32,772.30,757.08,764.41,776.03,-46.39,-917.97,475.10,0.92,-0.29,0.23,-444.35
9060,811.71,772.56,757.07,764.31,776.41,-60.55,-911.13,452.15,0.51,-0.87,-1.28,-449.98
9094,813.50,772.64,757.08,764.28,776.88,-39.06,-912.11,454.59,1.13,0.95,-2.36,-456.31
9132,815.96,772.75,757.12,764.27,777.53,-14.16,-901.37,439.94,0.95,0.08,1.25,-464.25
9167,818.33,772.79,757.12,764.22,778.11,-53.22,-902.83,463.87,-1.68,-1.73,1.15,-472.02
9202,820.83,772.68,757.15,763.81,778.62,-40.53,-911.13,461.43,0.94,-2.83,-0.12,-473.06
9237,824.39,772.60,756.98,762.94,779.23,44.43,-915.04,456.05,0.85,-2.34,-1.50,-475.85
9272,828.00,772.23,757.00,762.30,779.88,-74.71,-893.55,461.43,-2.33,2.15,1.40,-475.36
9307,829.69,771.96,756.97,762.16,780.20,-34.18,-920.90,446.29,0.92,-0.66,-0.15,-477.76
9344,829.73,771.96,756.97,762.35,780.25,-45.90,-924.32,457.52,1.80,-3.16,-2.39,-480.59
9379,829.22,771.85,757.00,762.59,780.16,-31.74,-918.46,462.89,1.30,1.79,-1.08,-480.90
9414,828.70,771.95,756.99,762.70,780.08,-36.62,-888.18,493.65,-0.40,-1.54,-1.37,-481.68
9449,828.42,771.93,756.98,762.84,780.04,-27.83,-909.67,481.45,3.11,-3.08,-1.53,-482.83
9484,828.01,772.06,756.97,763.03,780.02,-35.64,-907.23,466.80,1.55,-2.35,1.47,-485.70
9519,827.29,772.05,757.01,763.24,779.90,151.86,-916.50,429.20,14.91,-4.06,-0.56,-485.12
9556,826.48,772.21,757.05,763.62,779.84,-139.65,-910.16,502.93,-0.21,-0.98,1.01,-488.17
9591,826.12,772.25,757.03,763.75,779.79,-35.16,-925.78,480.47,3.16,-3.35,-2.42,-489.66
9626,825.91,772.25,757.05,763.81,779.75,-50.78,-919.92,482.42,0.67,-3.42,-2.63,-489.37
9660,825.62,772.19,757.07,764.00,779.72,-50.29,-913.57,468.75,1.83,0.10,-0.73,-490.16
9695,824.98,772.25,757.10,764.24,779.64,-49.32,-905.76,472.66,2.15,-0.41,-0.62,-491.20
9733,824.36,772.18,757.09,764.41,779.51,-36.62,-902.83,476.07,1.03,0.80,-0.82,-491.36
9768,823.73,772.17,757.12,764.51,779.38,-38.09,-920.41,466.80,0.60,1.59,-1.37,-489.71
9803,822.78,772.19,757.27,764.80,779.26,-40.53,-911.13,478.52,-0.82,0.14,0.75,-487.36
9838,821.86,772.25,757.15,764.97,779.06,-44.43,-920.90,462.40,0.76,-1.36,-1.16,-490.09
9872,821.11,772.20,757.12,765.00,778.86,-62.01,-903.32,472.66,0.87,-1.69,1.10,-488.35
9907,820.33,772.29,757.20,765.16,778.75,-54.69,-902.34,478.03,0.36,1.82,-1.68,-486.61
9944,819.44,772.34,757.22,765.30,778.57,-41.02,-920.90,465.33,-2.31,0.03,-2.34,-485.57
9979,818.68,772.41,757.26,765.53,778.47,-43.46,-913.57,472.66,-2.43,1.18,-1.00,-486.00
10014,818.03,772.54,757.28,765.63,778.37,-49.80,-913.09,475.10,0.46,0.15,-0.18,-485.92
10049,817.34,772.66,757.24,765.73,778.24,-40.04,-912.60,459.47,2.53,-0.76,-1.39,-486.99
10084,816.98,772.80,757.31,765.95,778.26,-44.92,-907.23,473.14,0.02,1.87,-0.95,-488.02
10119,816.82,772.80,757.34,766.08,778.26,-54.69,-920.41,459.96,-0.70,0.16,-4.69,-488.90
10157,816.68,772.92,757.28,766.12,778.25,-40.04,-902.83,477.54,-0.60,0.28,-0.67,-491.43
10192,816.64,773.04,757.35,766.22,778.31,-45.41,-918.95,459.47,2.66,-0.04,-1.92,-491.96
10227,816.43,773.15,757.40,766.44,778.36,-28.81,-911.13,473.63,2.27,-2.94,-1.37,-493.93
10262,816.32,773.15,757.32,766.65,778.36,-50.29,-915.04,469.73,2.35,0.19,-0.05,-498.64
10297,816.23,773.15,757.33,766.75,778.36,-43.95,-906.25,459.47,-1.97,-0.41,-2.17,-499.82
10332,816.14,773.24,757.36,766.70,778.36,-47.85,-899.41,467.29,-0.75,1.15,-2.52,-498.48
10369,815.76,773.21,757.38,766.71,778.26,-38.57,-909.18,484.37,-3.71,3.45,-1.13,-496.66
10404,815.53,773.23,757.44,766.58,778.19,-23.93,-905.27,484.37,-3.73,2.04,-2.83,-492.72
10439,815.97,773.39,757.37,766.52,778.31,-44.92,-900.39,468.26,-3.28,2.01,-2.65,-496.27
10474,816.30,773.49,757.34,766.38,778.38,-41.99,-900.88,465.33,-0.02,3.63,-2.11,-496.91
10509,816.84,773.76,757.34,766.28,778.56,-48.34,-905.76,463.87,-4.11,2.67,-3.26,-499.47
10544,817.27,773.93,757.33,766.21,778.69,-44.43,-905.76,466.80,-2.95,3.01,-0.56,-501.58
10582,817.47,774.27,757.37,766.14,778.81,-47.36,-906.74,471.19,-2.96,0.78,-2.44,-502.90
10617,817.28,774.52,757.34,766.11,778.81,-48.34,-918.46,464.36,-5.15,0.71,-4.18,-504.61
10652,816.88,774.88,757.34,765.92,778.76,-40.53,-922.85,450.20,-3.56,3.05,-2.98,-503.31
10687,816.38,775.40,757.32,765.83,778.73,-42.97,-905.27,463.87,-4.80,0.15,-2.18,-505.08
10722,815.50,775.68,757.30,765.78,778.57,-53.71,-912.60,453.61,-3.47,1.36,-2.05,-503.88
10760,814.35,775.84,757.41,765.67,778.32,-35.16,-914.55,452.64,-3.10,0.20,-0.89,-497.09
10795,813.09,776.04,757.32,765.67,778.03,-49.80,-937.99,456.05,-2.10,-2.85,-0.34,-496.46
10830,811.65,776.15,757.32,765.56,777.67,-40.04,-915.53,454.10,-2.94,0.31,0.41,-490.69
10865,810.96,776.32,757.33,765.57,777.54,-37.60,-922.85,454.10,-2.50,-1.08,-1.47,-489.77
10900,810.80,776.45,757.36,765.64,777.56,-27.83,-919.43,451.66,-3.54,-2.95,1.16,-490.64
10935,810.98,776.56,757.34,765.84,777.68,-33.69,-922.85,442.38,-0.02,-2.05,-1.76,-495.41
10972,811.38,776.71,757.39,766.25,777.93,-53.71,-928.22,444.34,2.93,-4.40,0.73,-502.83
11007,811.79,776.70,757.38,766.70,778.14,-42.48,-909.67,450.20,5.11,-3.23,-0.34,-511.14
11042,812.22,776.54,757.41,767.04,778.30,-39.55,-923.34,451.17,1.92,-1.80,-1.34,-515.25
11077,812.08,776.45,757.40,767.58,778.38,-35.64,-907.23,444.34,5.11,-0.22,5.19,-522.37
11112,811.33,776.17,757.56,768.04,778.28,-41.99,-924.32,462.89,5.56,-2.64,-0.05,-520.41
11146,810.35,776.05,757.54,768.50,778.11,-35.64,-904.79,474.61,5.02,-0.48,-2.52,-523.28
11184,809.50,776.14,757.61,768.83,778.02,-46.88,-912.11,479.00,1.33,0.15,1.77,-524.13
11218,809.04,776.27,757.60,769.26,778.04,-36.13,-896.97,475.59,1.76,-1.47,-0.07,-530.47
11253,808.54,776.52,757.61,769.54,778.05,-36.13,-910.64,460.45,1.58,0.59,-0.75,-534.39
11288,807.71,776.81,757.66,769.63,777.96,-40.53,-910.16,474.12,0.17,-0.95,-0.67,-534.11
11323,806.82,776.87,757.67,769.61,777.74,-43.95,-909.18,475.10,-0.92,0.08,-2.78,-530.82
11357,805.29,776.80,757.72,769.41,777.30,-34.67,-901.86,473.14,-1.46,2.63,-4.36,-520.70
11395,802.95,776.52,757.78,769.07,776.58,-42.48,-904.79,469.24,-3.69,1.37,-0.06,-504.07
11430,801.02,776.07,757.73,768.66,775.87,-37.60,-912.60,459.96,-3.08,0.47,1.23,-489.26
11464,798.96,775.59,757.68,768.29,775.13,-37.60,-914.06,463.87,-2.73,1.63,1.01,-473.87
11499,797.14,775.12,757.69,767.98,774.48,-41.99,-914.55,465.33,-2.59,2.31,0.82,-459.14
11533,795.53,774.80,757.69,767.67,773.92,-43.46,-909.18,470.21,-1.56,2.62,-1.72,-446.67
11571,794.32,774.57,757.68,767.36,773.48,-54.20,-909.67,463.38,-0.56,3.01,-0.66,-436.27
11605,793.21,774.45,757.55,767.30,773.13,-48.34,-894.04,468.26,-2.45,1.00,0.39,-433.87
11641,792.19,774.43,757.57,766.98,772.79,-45.41,-914.06,472.66,-1.92,3.02,0.34,-425.02
11676,791.47,774.44,757.49,766.73,772.53,-43.95,-917.48,468.75,-2.47,0.66,-2.89,-420.92
11710,790.87,774.46,757.46,766.42,772.31,-42.97,-919.92,462.40,-2.34,2.49,-5.42,-415.15
11745,790.56,774.57,757.54,766.02,772.17,-50.78,-913.09,454.59,-2.68,3.68,-5.15,-407.18
11783,789.73,774.59,757.51,765.51,771.84,-33.69,-909.18,464.84,-5.21,4.29,-2.10,-397.78
11817,789.10,774.55,757.43,765.06,771.54,-46.88,-904.79,451.66,-6.24,3.02,-2.53,-390.61
11852,788.46,774.36,757.28,764.49,771.15,-28.32,-914.06,442.38,-5.69,3.35,-1.31,-382.20
11887,787.62,774.23,757.24,763.98,770.77,-34.67,-914.06,458.01,-8.35,4.98,-2.23,-371.74
11922,787.05,774.25,757.10,763.54,770.49,-34.67,-920.90,450.20,-5.81,2.27,-4.13,-366.95
11957,786.57,774.31,757.11,763.15,770.29,-35.64,-911.13,442.38,-8.63,3.23,-1.04,-359.93
11994,785.62,774.46,757.09,762.89,770.02,-24.41,-924.32,434.57,-7.60,2.59,-2.50,-354.47
12029,785.49,774.65,757.02,762.63,769.94,-30.76,-931.15,434.57,-9.02,1.13,-0.79,-353.39
12063,785.53,774.85,756.97,762.46,769.95,-29.79,-931.15,421.87,-5.11,2.64,-1.60,-353.78
12098,785.66,775.19,756.95,762.36,770.04,-43.95,-922.85,436.04,-5.76,2.01,0.11,-356.12
12133,785.50,775.45,756.97,762.14,770.02,-32.23,-938.96,415.53,-9.55,2.25,-1.28,-353.98
12168,784.72,775.48,756.86,762.10,769.79,-35.64,-939.94,408.20,-6.27,-1.47,-0.38,-353.62
12205,783.31,775.36,756.87,762.14,769.42,-42.48,-944.34,402.34,-1.77,-0.35,0.33,-347.98
12240,781.19,775.27,756.85,762.12,768.86,-34.67,-922.36,387.70,-4.66,1.02,-2.21,-340.18
12275,779.13,775.29,756.89,762.12,768.36,-47.36,-913.57,390.62,-4.31,0.92,-2.83,-332.44
12310,777.65,775.49,756.90,762.15,768.05,-29.79,-962.40,413.57,-9.99,0.33,-1.49,-329.02
12344,776.48,775.58,756.82,762.26,767.78,-87.89,-964.36,435.55,0.09,0.45,-1.53,-329.34
12379,775.94,775.45,756.91,762.19,767.62,-40.04,-951.66,417.48,-0.96,0.54,-0.51,-323.24
12416,775.94,775.65,756.86,762.28,767.68,-46.88,-940.92,406.25,0.01,-0.93,-0.40,-327.37
12451,776.13,775.82,756.92,762.32,767.80,-35.16,-932.62,403.32,-3.02,0.47,0.46,-328.47
12486,776.56,776.26,756.96,762.44,768.06,-38.57,-931.64,403.32,1.22,-2.47,-0.85,-334.30
12521,777.30,776.86,756.95,762.57,768.42,-46.88,-932.62,402.83,-3.39,0.85,0.24,-343.95
12556,777.89,777.70,756.98,762.65,768.81,-41.50,-935.55,409.67,-2.00,-1.24,-2.00,-353.18
12594,778.76,778.78,757.02,762.84,769.35,-43.46,-948.24,392.09,-2.02,-2.23,-2.63,-366.46
12628,779.57,779.82,757.01,763.07,769.87,-35.16,-936.52,414.55,-2.00,1.18,-3.74,-381.18
12663,780.30,781.00,757.07,763.27,770.41,-28.32,-935.06,395.51,-5.82,2.08,-1.60,-394.78
12698,780.32,781.88,757.04,763.31,770.64,-36.62,-938.96,395.51,-7.07,-0.98,0.16,-403.02
12733,779.55,782.36,756.96,763.30,770.54,-41.99,-946.78,404.30,-16.01,-0.24,-2.08,-406.18
12768,777.52,781.90,756.83,762.97,769.80,-27.83,-941.89,399.90,-29.95,-4.31,-1.48,-393.85
12805,772.51,780.53,756.70,762.32,768.01,-52.25,-964.84,350.10,-49.48,-4.04,4.84,-359.31
12840,765.62,777.53,756.53,761.40,765.27,-74.22,-962.40,369.14,-69.88,-7.24,2.10,-302.41
12874,761.63,773.31,756.46,760.76,763.04,-71.29,-993.16,350.10,-125.21,-17.12,-1.46,-247.27
12909,758.91,768.03,756.41,760.06,760.85,-121.09,-1249.02,189.45,-114.81,-39.45,-21.62,-186.43
12943,758.26,764.32,756.31,759.17,759.52,464.84,-1690.43,62.01,-43.80,-22.71,-113.69,-143.99
12978,758.13,763.16,756.34,758.97,759.15,428.22,-2000.00,208.98,-3.79,52.92,-116.93,-130.35
13015,758.03,762.67,756.33,758.82,758.97,167.97,-1421.39,108.40,57.61,135.62,-82.92,-124.14
13050,757.96,762.27,756.23,758.68,758.79,-297.85,-1274.90,24.41,93.02,145.35,-95.41,-121.29
13085,758.13,762.07,756.34,758.67,758.80,-536.62,-864.26,-21.48,82.94,129.17,-79.12,-117.34
13119,758.07,761.87,756.31,758.58,758.71,-648.44,-668.95,-70.31,57.66,86.94,-35.86,-114.76
13154,757.94,761.86,756.27,758.61,758.67,-621.09,-485.35,-52.73,9.59,41.01,-1.54,-115.68
13191,757.97,761.67,756.21,758.63,758.62,-528.81,-505.86,7.81,-35.00,-3.76,31.13,-116.13
13226,757.83,761.58,756.28,758.68,758.59,-359.37,-561.52,119.14,-67.18,-20.40,58.45,-113.87
13260,757.79,761.57,756.25,758.65,758.56,-215.82,-692.38,226.07,-78.42,-14.18,76.74,-113.93
13296,757.74,761.51,756.25,758.66,758.54,-89.36,-829.10,299.32,-66.31,-1.39,87.15,-113.56
13331,757.61,761.52,756.24,758.68,758.51,1.46,-946.29,388.67,-47.75,5.24,85.47,-113.65
13366,757.38,761.41,756.23,758.78,758.45,120.12,-1043.95,417.48,-25.82,-2.30,75.34,-113.57
13403,757.36,761.36,756.18,758.71,758.40,225.10,-1144.53,428.71,-11.95,-10.16,69.98,-113.38
13438,757.29,761.36,756.32,758.78,758.44,221.68,-1117.19,398.44,8.12,-14.96,77.00,-110.71
13473,757.28,761.33,756.26,758.79,758.42,222.17,-1104.00,332.03,21.00,-19.62,67.00,-112.10
13508,757.26,761.34,756.18,758.74,758.38,184.57,-1029.30,271.00,37.42,-31.15,48.35,-113.28
13543,757.26,761.32,756.22,758.75,758.39,127.44,-982.42,254.39,30.41,-25.79,42.98,-112.39
13581,757.26,761.35,756.25,758.79,758.41,78.61,-993.65,231.45,27.44,-18.76,41.97,-112.46
13616,757.29,761.39,756.21,758.82,758.43,59.57,-882.81,271.00,27.31,-11.70,24.02,-114.22
13650,757.24,761.45,756.22,758.84,758.44,69.82,-981.93,251.95,18.23,-0.40,-3.27,-114.65
13685,758.09,761.54,756.23,758.60,758.62,1999.94,-2000.00,1434.57,-145.61,-14.44,-87.36,-114.54
13720,765.24,762.22,756.31,758.99,760.69,-506.35,-642.58,11.72,34.32,-83.31,-121.98,-148.25
13755,773.16,763.62,756.39,759.36,763.13,326.66,-1029.30,516.11,109.73,9.24,-63.17,-190.05
13793,775.12,763.68,756.53,760.26,763.90,-190.92,-895.02,467.29,23.97,0.43,-4.67,-207.18
13828,784.91,765.17,756.67,761.45,767.05,-37.60,-941.89,366.70,40.98,15.96,-15.73,-266.68
13863,803.73,767.07,756.94,763.35,772.77,-39.06,-882.32,478.03,42.32,4.04,-12.98,-367.68
13898,823.84,769.62,757.18,766.03,779.17,-47.85,-899.41,446.29,39.04,-2.79,-10.49,-490.74
13933,843.91,771.89,757.43,768.22,785.36,-31.25,-903.32,527.83,33.90,-4.92,-4.99,-603.59
13970,857.48,773.21,757.62,769.62,789.48,-15.63,-867.19,516.11,11.23,-1.45,-0.59,-676.72
14005,864.50,773.96,757.71,770.53,791.68,-33.69,-879.39,508.30,5.45,-1.24,-2.78,-717.86
14040,867.96,774.53,757.74,771.32,792.89,-48.83,-885.25,504.39,2.68,-1.02,-1.67,-745.30
14075,870.07,774.89,757.74,771.17,793.47,-34.67,-863.77,545.90,-4.45,1.95,-0.25,-753.07
14110,869.61,775.72,757.66,770.58,793.39,-48.34,-884.77,520.51,-13.71,8.65,-5.18,-751.62
14145,866.47,777.47,757.65,770.27,792.97,-49.80,-902.34,490.23,-18.40,6.11,-6.75,-750.49
14187,862.07,779.35,757.58,769.85,792.21,-38.09,-908.69,473.63,-15.16,7.33,-5.71,-746.10
14223,859.54,780.33,757.53,769.83,791.81,-51.27,-921.87,490.23,-9.66,5.81,-4.74,-746.26
14257,858.06,781.57,757.62,770.42,791.92,-43.95,-913.57,477.05,-5.45,6.76,-0.95,-757.52
14292,857.61,782.39,757.71,770.88,792.15,-42.48,-925.29,469.24,2.26,3.92,-3.10,-767.27
14327,857.08,782.77,757.78,771.81,792.36,-41.50,-901.37,474.61,6.31,4.78,-2.61,-780.32
14363,854.92,782.87,758.04,773.58,792.35,-38.09,-906.25,483.40,10.15,1.12,0.45,-793.32
14403,850.14,783.48,758.43,777.67,792.43,-47.85,-904.30,482.91,14.65,-1.06,1.04,-832.31
14438,842.87,785.92,759.36,784.51,793.16,-32.23,-861.33,519.53,18.52,-2.85,-2.07,-904.39
14472,831.29,790.69,760.93,793.76,794.17,-55.66,-873.54,517.58,15.41,-8.95,-2.81,-1000.02
14507,813.77,796.85,763.27,803.10,794.25,-52.73,-914.55,518.07,8.57,-8.47,-5.21,-1068.43
14542,792.18,802.79,766.07,811.71,793.19,-42.97,-896.97,521.48,-8.89,-2.54,-5.82,-1098.96
14577,773.22,806.63,768.51,818.22,791.64,-62.50,-922.36,543.46,-44.68,3.22,-12.40,-1099.74
14615,762.26,807.52,770.54,819.96,790.07,-108.89,-958.50,619.14,-69.43,-3.49,-20.10,-1044.18
14649,759.49,805.14,771.93,815.99,788.14,-47.36,-1009.28,523.93,-69.17,-26.53,-39.10,-922.57
14684,758.38,799.92,772.84,808.27,784.85,-89.84,-1099.61,500.49,-69.08,-45.65,-68.68,-740.67
14719,757.86,791.15,773.00,796.25,779.57,-83.01,-1238.28,540.53,-61.68,-49.42,-119.81,-487.65
14754,757.47,779.13,770.97,780.11,771.92,1.46,-1353.52,317.87,-53.73,-53.31,-181.69,-202.82
14791,757.10,770.53,765.71,769.53,765.72,240.23,-2000.00,624.02,-50.05,-54.05,-234.53,-108.01
14826,756.73,764.83,761.12,762.94,761.40,237.79,-2000.00,408.20,-51.15,-51.34,-250.14,-78.28
14861,756.74,762.61,757.29,759.65,759.07,142.58,-1810.55,283.69,34.32,-18.32,-250.14,-107.61
14896,756.97,761.97,756.58,759.17,758.67,-531.25,165.04,-478.52,23.53,19.11,-207.04,-113.86
14931,756.89,761.57,756.42,759.02,758.48,-578.61,-1015.14,21.48,-1.18,140.85,8.01,-112.05
14967,756.72,761.25,756.32,758.98,758.32,-516.60,-289.55,-106.45,2.80,130.69,100.18,-110.96
15004,756.66,761.13,756.38,758.96,758.28,-504.88,-467.29,17.09,-78.16,94.33,124.22,-108.05
15039,756.56,761.17,756.34,758.92,758.25,-369.63,-681.64,259.77,-106.93,59.15,176.52,-108.18
15074,756.51,761.22,756.47,758.91,758.28,-192.87,-931.15,600.10,-138.39,72.62,211.18,-105.09
15109,756.43,761.43,756.46,759.09,758.35,5.37,-1187.99,958.01,-124.27,126.03,202.40,-109.57
15144,756.40,761.48,756.47,759.11,758.36,169.92,-1188.96,1102.05,-94.31,174.79,161.72,-109.75
15182,756.33,761.49,756.46,759.15,758.36,154.30,-1413.57,1241.70,-139.76,176.85,111.96,-110.43
15217,756.28,761.55,756.48,759.18,758.37,689.45,-1631.84,1367.19,-83.65,134.07,139.69,-110.75
15252,756.25,761.57,756.50,759.18,758.38,1187.50,-1380.37,1333.01,-25.55,140.99,172.45,-110.34
15287,756.28,761.69,756.59,759.16,758.43,1344.73,-920.41,841.80,73.29,117.10,80.01,-109.00
15323,757.06,762.12,756.51,758.94,758.66,1999.94,-2000.00,322.75,226.60,45.07,-76.52,-113.52
15360,766.92,764.34,756.50,758.82,761.64,-711.91,-2000.00,-1418.95,149.47,182.69,-129.78,-163.77
15396,821.55,768.91,757.26,763.14,777.71,361.33,-351.56,1514.65,250.13,-112.13,-50.45,-432.38
15431,832.37,774.23,758.12,771.36,784.02,116.70,-698.73,1013.67,113.44,-56.43,-14.23,-612.00
15465,835.21,780.42,760.06,779.58,788.82,-137.21,-798.34,556.15,36.11,-6.53,-9.61,-743.93
15500,831.82,785.63,762.37,787.49,791.83,-56.15,-871.09,464.84,22.47,1.05,-9.02,-832.91
15535,827.94,788.03,763.53,792.63,793.03,-22.95,-845.70,541.02,17.70,-7.75,-2.35,-885.67
15573,821.88,789.46,763.75,794.69,792.45,-26.86,-869.14,527.83,-1.53,-0.34,-1.27,-901.03
15608,814.86,790.56,763.60,794.43,790.86,-28.32,-868.16,524.90,-9.31,8.14,-0.04,-885.93
15643,809.33,791.99,763.40,793.31,789.51,-30.27,-902.34,481.93,-12.24,9.86,-4.56,-866.76
15678,805.73,793.07,763.22,792.77,788.70,-34.18,-893.55,478.52,-8.19,6.92,-2.18,-859.60
15713,802.93,794.23,763.23,793.09,788.37,-40.04,-896.48,496.09,-3.51,6.44,-1.15,-863.95
15748,801.31,796.20,763.25,794.17,788.73,-35.64,-899.41,487.30,0.21,8.08,-4.33,-889.42
15786,799.98,798.82,763.82,796.39,789.75,-16.60,-908.69,472.17,0.50,9.27,-5.48,-924.57
15821,796.30,801.70,764.72,799.26,790.49,-38.09,-909.67,495.12,4.86,5.86,-5.86,-954.74
15856,790.31,804.14,766.02,803.01,790.87,-34.67,-916.99,498.54,2.97,0.96,-7.32,-976.58
15891,782.12,805.89,767.60,806.79,790.60,-31.25,-916.99,477.05,-1.95,0.41,-10.20,-978.61
15926,773.28,807.32,769.31,810.31,790.05,-7.81,-854.00,524.90,-11.70,1.69,-11.50,-969.12
15963,765.51,808.57,770.93,813.00,789.50,-49.32,-917.48,471.19,-24.01,0.60,-14.45,-951.83
15998,761.03,808.48,772.27,814.12,788.97,-61.52,-931.15,500.98,-38.66,-3.31,-14.99,-918.64
16033,759.13,806.23,773.46,814.58,788.35,-43.46,-1003.42,519.53,-43.95,-14.93,-25.21,-871.30
16067,758.33,801.84,774.60,813.91,787.17,-28.81,-958.98,417.97,-16.85,-36.69,-39.34,-794.94
16102,757.87,796.95,775.42,811.64,785.47,12.21,-959.96,456.05,-34.72,-28.24,-50.39,-700.39
16137,757.57,791.95,776.02,807.84,783.34,43.46,-1000.00,418.95,-35.50,-22.32,-59.25,-588.36
16175,757.36,785.76,775.59,798.45,779.29,61.04,-1083.50,421.39,-40.78,-17.28,-85.84,-410.30
16210,757.20,778.40,772.96,782.92,772.87,100.10,-1265.14,422.36,-63.95,-13.07,-127.30,-187.90
16245,756.87,771.98,767.80,771.58,767.06,205.57,-1435.06,210.45,-87.99,-21.40,-208.19,-96.95
16280,756.62,766.13,762.53,764.64,762.48,23.44,-1248.54,-5.86,-112.09,15.32,-250.14,-78.19
16314,756.64,763.01,758.48,760.82,759.74,336.43,-1353.52,202.15,-54.08,45.76,-250.14,-97.89
16349,756.77,762.18,756.38,759.44,758.69,235.84,-882.32,68.36,-58.63,112.04,-225.74,-123.73
16387,756.59,761.70,756.34,759.26,758.47,-389.16,-686.04,186.52,-5.94,203.77,-62.49,-117.63
16422,756.48,761.38,756.18,759.13,758.29,-508.30,-296.87,164.55,-17.30,185.50,42.47,-116.67
16457,756.38,761.23,756.26,759.04,758.23,-508.30,-254.39,358.40,-85.35,125.43,76.35,-111.79
16492,756.38,761.29,756.21,759.01,758.22,-413.09,-580.08,640.62,-107.79,71.75,108.93,-113.30
16527,756.37,761.38,756.22,759.05,758.25,-194.34,-693.85,903.81,-103.65,60.42,153.79,-114.24
16564,756.29,761.56,756.23,759.13,758.30,52.73,-956.54,1091.31,-72.74,88.11,175.13,-116.25
16599,756.26,761.73,756.31,758.98,758.32,231.93,-924.32,1135.74,-21.73,125.78,154.79,-113.47
16634,756.17,761.81,756.33,758.89,758.30,183.59,-1111.82,1041.99,-7.27,143.90,145.15,-111.84
16669,756.17,761.89,756.35,758.95,758.34,265.14,-1163.57,867.19,7.13,109.98,145.21,-112.87
16704,756.14,761.96,756.43,758.92,758.36,386.23,-1261.23,863.28,-11.13,72.46,136.66,-111.00
16739,756.12,761.93,756.39,758.94,758.34,591.80,-1312.50,878.91,2.34,46.02,110.15,-111.97
16776,756.15,761.75,756.36,759.00,758.31,971.68,-1212.89,536.13,51.95,35.55,82.78,-112.34
16812,756.13,761.60,756.33,758.74,758.20,1260.25,-846.19,261.23,62.02,78.68,59.40,-108.06
16847,756.16,761.34,756.39,758.62,758.13,973.14,-878.42,272.95,38.11,97.15,-15.72,-102.76
16882,759.82,761.36,756.48,758.46,759.03,-432.62,-1311.52,1279.30,-61.47,88.40,-79.96,-110.83
16916,784.50,763.27,756.60,760.02,766.10,-244.14,-1889.65,-181.64,48.60,-71.87,-194.93,-230.79
16954,823.50,766.36,757.86,764.15,777.97,-232.91,-1416.02,-47.85,17.03,66.19,24.18,-418.59
16989,824.96,768.14,759.17,769.11,780.34,-201.17,-935.06,460.94,42.61,-7.35,-3.20,-478.52
17024,827.74,774.40,760.02,774.03,784.05,-64.45,-810.06,552.73,-4.96,19.13,-19.18,-589.39
17059,829.11,785.07,760.43,777.74,788.09,-63.96,-963.87,456.05,-10.08,10.15,-17.65,-724.13
17094,829.39,793.72,761.02,780.34,791.11,-35.64,-927.25,449.71,-6.97,1.47,-10.42,-817.92
17129,826.02,800.33,761.42,781.65,792.36,-26.37,-892.58,503.42,-16.37,3.12,-6.76,-868.71
17167,818.16,806.29,761.34,781.62,791.85,-21.97,-904.30,472.66,-25.11,2.07,-6.66,-891.12
17203,811.01,809.75,761.23,781.10,790.77,-14.16,-910.64,458.50,-23.15,2.79,-6.95,-889.49
17237,805.02,812.50,761.09,780.75,789.84,-25.88,-927.73,455.08,-17.78,2.85,-3.68,-889.24
17272,802.12,814.15,760.98,780.39,789.41,-12.21,-935.06,432.13,-10.06,4.97,-3.28,-889.96
17308,801.54,815.34,760.88,780.09,789.46,-27.34,-928.22,429.69,-7.60,2.81,-3.05,-895.52
17345,802.56,816.56,760.79,780.01,789.98,-13.67,-933.59,425.29,-4.62,2.02,-1.98,-910.04
17380,804.36,817.61,760.85,780.22,790.76,-20.51,-934.08,436.04,1.05,2.67,-1.63,-926.17
17415,804.79,818.53,761.06,780.45,791.21,-9.77,-930.18,458.50,-0.21,3.40,-3.85,-933.30
17450,803.78,819.43,761.19,780.90,791.32,-55.18,-924.32,454.10,2.27,2.44,-3.94,-940.26
17485,802.02,820.10,761.36,781.27,791.19,-31.25,-919.43,438.96,0.87,2.29,-3.76,-940.93
17520,800.06,820.80,761.49,781.37,790.93,-20.02,-920.90,452.15,1.92,2.55,-3.36,-937.97
17558,798.50,821.48,761.57,781.47,790.76,-28.81,-929.69,433.59,-0.50,1.38,-3.69,-937.69
17593,795.96,822.80,761.75,782.13,790.66,-0.49,-930.66,429.20,-1.05,5.56,-3.61,-944.56
17628,792.13,824.92,762.10,783.39,790.64,-41.99,-945.80,454.10,-0.29,-1.10,-2.60,-958.38
17663,786.15,827.65,762.85,785.01,790.42,-22.95,-933.11,440.92,-4.72,-1.33,-10.97,-964.86
17698,777.99,830.32,764.15,786.41,789.72,-8.79,-932.62,421.39,-8.92,5.13,-6.76,-946.72
17733,769.56,832.46,765.34,786.64,788.50,3.42,-1016.11,374.02,-39.92,10.62,-7.22,-908.67
17771,762.78,833.17,766.25,785.31,786.88,-53.22,-959.47,432.13,-40.95,-8.40,-9.21,-848.70
17806,759.70,831.84,766.61,782.85,785.25,-17.58,-991.21,425.29,-64.55,-14.63,-16.13,-782.47
17840,758.19,828.17,766.54,779.39,783.07,-28.32,-988.77,348.14,-71.66,-28.98,-26.13,-698.47
17875,757.35,821.21,765.61,774.76,779.73,16.11,-1031.74,355.96,-91.34,-27.42,-41.53,-594.93
17910,756.86,812.05,764.96,770.69,776.14,-91.80,-1187.50,399.41,-91.50,-37.51,-66.91,-476.05
17947,756.58,797.29,763.08,765.97,770.73,-171.87,-1214.36,367.68,-81.05,-60.21,-121.79,-334.06
17982,756.45,778.62,760.58,762.56,764.55,59.08,-2000.00,286.13,-34.02,-69.73,-169.09,-195.84
18017,756.54,769.68,758.01,760.06,761.07,-32.71,-1803.71,577.15,133.59,-113.85,-157.74,-151.72
18053,756.44,766.37,756.74,759.06,759.65,526.86,-747.07,656.25,184.89,-78.05,-128.88,-141.57
18088,756.48,764.42,756.43,758.76,759.02,50.78,-1309.57,364.26,250.13,152.31,-68.25,-129.49
18123,756.37,763.19,756.31,758.68,758.64,-391.60,-796.87,-199.71,250.13,112.07,25.95,-121.00
18161,756.35,762.49,756.21,758.63,758.42,-423.83,-372.07,-310.06,132.88,-27.15,95.59,-117.31
18196,756.35,762.13,756.20,758.59,758.32,-337.89,-600.59,-288.09,10.69,-124.27,147.76,-113.98
18231,756.34,761.87,756.23,758.52,758.24,-118.16,-633.30,-158.69,-56.62,-162.90,164.84,-110.12
18267,756.30,761.78,756.25,758.55,758.22,56.15,-947.27,60.55,-64.98,-125.05,166.60,-109.00
18302,756.31,761.85,756.28,758.51,758.24,215.82,-1000.98,279.30,-48.85,-44.24,161.63,-108.48
18339,756.17,761.93,756.25,758.47,758.20,215.33,-1114.26,357.42,-49.25,33.65,141.50,-108.77
18374,756.18,761.99,756.25,758.49,758.23,319.34,-1434.08,394.53,-35.50,44.36,100.22,-109.59
18409,756.11,762.08,756.27,758.37,758.21,412.60,-1247.07,366.21,-17.90,37.45,103.67,-107.73
18444,756.12,762.04,756.23,758.41,758.20,358.89,-1158.69,353.52,-45.73,11.37,103.92,-108.97
18480,756.08,761.98,756.22,758.47,758.19,341.80,-1047.85,427.73,-60.44,-22.69,80.56,-109.60
18515,756.10,761.97,756.19,758.53,758.20,320.31,-1056.64,492.19,-65.36,-32.81,67.59,-110.96
18552,756.08,761.94,756.19,758.45,758.17,296.39,-1075.20,475.10,-15.20,-15.11,74.44,-109.55
18588,756.12,761.93,756.19,758.44,758.17,208.50,-968.26,321.78,0.85,0.55,66.56,-109.49
18623,756.12,761.98,756.18,758.39,758.17,79.59,-857.91,242.68,-8.67,-11.58,43.95,-109.35
18658,756.12,761.99,756.23,758.40,758.18,69.34,-881.35,239.75,-19.24,-22.74,47.51,-108.59
18693,756.06,762.18,756.17,758.32,758.18,177.25,-904.30,302.25,-12.70,-22.13,38.87,-110.07
18731,758.46,762.28,756.12,758.31,758.79,759.77,-1463.38,936.52,-75.31,104.06,-104.29,-120.12
18766,776.65,764.01,756.21,758.86,763.93,-55.18,-1050.78,900.39,27.34,-39.94,-130.90,-202.53
18801,802.96,767.35,756.62,760.75,771.92,298.34,-1039.06,986.33,147.32,32.10,-9.72,-337.01
18836,814.26,768.68,756.73,762.43,775.53,14.16,-828.61,464.36,77.85,-28.89,-16.12,-408.43
18871,820.73,770.72,757.13,764.78,778.34,-38.57,-885.25,481.45,32.13,-6.87,-9.48,-471.66
18906,826.91,772.91,757.36,767.69,781.22,-58.11,-896.97,466.80,26.04,-0.84,-3.51,-547.50
18944,832.70,775.14,757.81,770.51,784.04,-48.83,-851.07,541.99,15.73,-1.15,-4.70,-615.58
18979,836.74,777.85,758.36,773.18,786.53,-55.18,-879.88,509.77,3.37,-0.93,-4.74,-676.75
19014,841.34,780.23,758.90,776.27,789.19,-45.41,-915.53,496.09,9.98,-2.25,-3.17,-743.66
19050,847.24,782.18,759.77,779.03,792.06,-48.34,-884.77,516.11,8.47,-1.46,-2.31,-798.61
19085,848.14,783.07,760.28,780.56,793.01,-49.32,-891.11,514.16,0.09,2.44,-1.08,-818.40
19120,844.74,782.85,760.58,781.14,792.33,-29.30,-870.61,507.81,-1.24,3.31,-0.28,-806.12
19157,838.76,781.90,760.93,782.12,790.93,-50.78,-897.46,488.28,-4.19,2.94,1.66,-783.76
19192,835.10,781.26,761.46,783.40,790.31,-56.15,-889.16,503.42,1.47,-0.41,2.55,-771.86
19227,833.05,780.90,761.96,784.81,790.18,-43.46,-884.28,507.32,3.85,-4.95,-1.11,-770.02
19262,832.78,781.08,762.45,786.11,790.61,-46.88,-872.56,527.83,6.46,-2.56,2.63,-777.39
19296,832.95,781.04,762.95,786.87,790.95,-33.69,-868.16,541.02,4.67,-2.60,-1.11,-776.51
19335,832.38,780.86,763.00,787.19,790.86,-41.50,-878.42,527.83,3.11,1.29,-1.27,-776.51
19369,833.19,781.23,763.19,787.64,791.31,-51.27,-870.61,513.67,2.49,2.25,0.68,-784.21
19404,833.47,781.46,763.31,787.66,791.48,-38.57,-880.86,532.23,-0.28,2.42,-3.18,-784.19
19439,831.09,781.50,763.33,787.08,790.75,-34.67,-873.05,541.50,-3.79,2.98,-1.44,-767.42
19474,827.54,780.89,762.97,785.44,789.21,-36.13,-884.28,523.44,-3.92,3.43,-2.06,-735.16
19509,825.02,779.56,762.30,782.18,787.26,-22.46,-859.86,542.97,-9.35,3.26,-1.76,-684.59
19546,819.12,777.68,761.43,778.48,784.18,-40.04,-900.88,515.62,-12.45,-1.93,1.38,-616.51
19581,805.00,774.68,760.45,774.58,778.68,-51.76,-901.37,495.61,-23.46,-1.76,2.38,-510.91
19616,788.26,771.10,759.29,770.01,772.17,-67.87,-893.07,475.59,-39.20,3.29,4.12,-386.29
19652,772.65,767.85,758.14,765.46,766.02,-67.87,-946.29,437.99,-58.57,2.93,2.53,-268.50
19687,762.94,765.34,757.28,761.78,761.84,-56.15,-978.52,401.37,-55.02,-5.90,-1.25,-182.49
19722,760.26,763.80,756.78,759.59,760.11,-117.19,-1014.65,421.87,-28.07,-16.31,-2.78,-140.86
19760,759.79,763.25,756.43,759.09,759.64,-338.87,-572.27,236.82,-4.58,-7.37,39.77,-136.29
19795,759.46,763.24,756.37,759.00,759.52,-247.56,-855.47,272.95,-12.84,11.96,69.66,-135.25
19830,761.22,763.28,756.38,759.73,760.15,-135.25,-656.74,478.03,53.69,-64.91,-40.12,-152.28
19865,764.07,764.11,756.51,761.26,761.48,223.63,-686.52,716.80,15.44,93.81,-16.72,-187.93
19900,769.17,766.37,756.88,763.67,764.02,81.05,-757.81,623.05,5.23,35.90,-18.47,-249.82
19935,773.52,769.07,757.11,765.83,766.38,-10.74,-862.30,472.17,22.10,5.59,-10.28,-312.54
19973,775.04,771.17,757.31,767.33,767.71,-17.58,-882.32,496.09,11.67,1.46,-6.28,-351.60
20008,776.72,773.36,757.48,768.53,769.02,-51.76,-899.41,459.47,3.08,2.14,-6.73,-388.20
20044,778.41,776.05,757.73,770.33,770.63,-50.78,-908.69,470.21,8.69,-1.53,-6.61,-435.91
20079,781.52,778.59,758.13,772.34,772.64,-64.45,-918.46,450.68,14.04,0.37,-4.72,-486.41
20114,782.65,780.34,758.51,774.21,773.93,-53.71,-916.02,473.63,8.60,-1.08,-1.87,-522.56
20152,782.32,781.53,758.81,775.47,774.53,-39.06,-891.60,497.07,3.71,-0.79,-3.40,-542.04
20187,783.43,783.02,759.14,776.72,775.58,-45.41,-901.37,482.91,6.48,-3.81,-3.45,-567.98
20222,786.54,784.95,759.40,777.77,777.16,-25.39,-862.30,501.46,8.52,-1.22,-1.27,-602.95
20257,791.10,787.60,759.65,778.69,779.26,-41.02,-897.95,480.47,5.11,-2.47,-3.51,-647.37
20292,793.54,789.89,760.00,779.74,780.79,-28.81,-887.21,499.51,1.49,-0.28,-5.51,-680.96
20327,794.02,791.57,760.23,780.45,781.57,-38.09,-909.67,502.44,-1.47,0.42,-3.63,-700.67
20365,794.18,793.05,760.48,781.10,782.20,-30.76,-898.93,490.72,-0.79,-0.68,-0.77,-716.43
20400,794.43,793.81,760.49,781.20,782.48,-29.79,-900.39,501.95,2.45,-0.66,-5.12,-724.54
20435,795.81,794.24,760.35,780.42,782.71,-36.13,-898.93,507.32,-0.49,-0.60,0.02,-724.89
20470,798.73,794.01,760.22,779.55,783.13,-46.88,-908.20,492.19,-5.31,2.76,-1.15,-723.46
20504,798.54,793.21,759.89,778.45,782.52,-32.23,-888.18,486.82,-4.11,-0.17,0.83,-708.43
20539,795.13,790.94,759.47,776.07,780.40,-41.02,-895.51,511.72,-12.02,1.18,1.50,-654.00
20577,786.29,785.97,758.74,771.61,775.65,-48.34,-910.16,492.68,-29.50,-2.89,3.20,-536.21
20612,772.96,779.58,757.91,766.76,769.30,-71.29,-935.06,444.34,-55.81,4.28,4.05,-388.54
20647,763.17,773.06,757.09,762.58,763.98,-67.38,-948.24,399.90,-85.50,-4.79,0.23,-261.53
20682,760.15,767.40,756.55,760.10,761.05,-110.35,-993.16,403.81,-80.39,-41.21,11.13,-182.85
20717,759.75,764.69,756.39,759.29,760.03,-369.63,-617.68,349.61,-37.75,-19.31,22.69,-151.75
20754,759.41,764.42,756.38,759.28,759.87,-269.04,-1091.31,288.57,49.53,12.67,89.76,-148.36
20789,763.01,764.50,756.29,759.32,760.78,564.94,-1323.24,333.98,46.08,58.64,-29.08,-164.42
20824,769.88,764.70,756.39,759.78,762.69,-414.06,-836.91,178.71,45.31,-11.27,-25.15,-193.75
20859,774.35,765.31,756.57,761.65,764.47,249.51,-1102.54,973.63,75.58,8.07,-19.37,-236.91
20894,777.47,766.24,756.66,762.85,765.80,-47.36,-769.04,544.92,38.53,-2.09,-10.70,-270.58
20929,780.51,767.40,756.82,763.21,766.99,-56.15,-875.98,469.73,0.85,7.82,-6.75,-291.64
20967,783.79,768.92,756.93,763.72,768.34,-58.59,-932.62,426.27,6.15,2.08,-9.00,-319.84
21002,786.38,769.95,756.96,764.17,769.37,-60.55,-935.55,447.75,6.58,-1.55,-2.95,-342.76
21037,788.64,770.56,757.01,764.51,770.18,-55.66,-914.55,466.80,1.94,0.79,-2.33,-359.18
21071,791.01,771.37,757.11,764.79,771.07,-39.55,-914.55,467.29,5.43,0.53,-5.86,-375.73
21106,792.76,772.18,757.18,765.19,771.83,-44.43,-912.11,476.07,3.69,-1.12,-1.49,-392.30
21141,794.19,772.95,757.22,765.62,772.49,-54.69,-923.83,455.08,3.70,-0.44,-2.73,-408.63
21178,795.91,773.53,757.29,766.27,773.25,-62.99,-919.43,452.15,3.85,-1.12,1.11,-426.99
21213,797.40,774.03,757.38,766.85,773.92,-54.20,-908.20,473.63,4.08,0.01,-3.15,-442.28
21248,798.72,774.32,757.44,767.16,774.41,-40.53,-902.34,478.52,4.47,-1.34,1.69,-452.45
21283,799.75,774.45,757.40,767.27,774.72,-49.32,-919.43,468.26,2.01,1.43,-2.06,-459.58
21318,800.32,774.52,757.45,767.48,774.95,-60.55,-905.76,472.66,-0.95,-0.98,-1.76,-463.80
21353,800.81,774.58,757.47,767.86,775.18,-62.99,-900.88,471.68,2.27,-2.06,-0.47,-471.04
21391,801.13,774.61,757.50,768.11,775.34,-45.90,-900.88,474.61,1.38,-0.49,-0.64,-475.41
21425,801.32,774.57,757.46,768.52,775.47,-51.27,-902.34,477.54,1.99,-1.98,-0.75,-482.67
21460,801.54,774.71,757.55,768.82,775.65,-44.43,-886.72,481.45,1.02,-0.65,-0.95,-486.81
21496,801.62,774.86,757.55,769.12,775.79,-53.71,-905.76,473.14,0.94,-1.84,-0.51,-492.68
21530,801.78,775.03,757.63,769.32,775.94,-42.48,-902.34,480.47,1.34,-0.14,-1.71,-495.50
21568,802.16,775.10,757.65,769.52,776.11,-54.69,-897.95,482.91,-0.30,-0.36,-0.94,-499.91
21603,802.34,775.18,757.71,769.59,776.20,-48.83,-891.11,483.89,0.81,-0.21,-0.99,-500.86
21638,802.89,775.25,757.64,769.58,776.34,-46.88,-897.95,483.89,0.31,-0.14,-0.14,-504.71
21673,803.60,775.21,757.65,769.49,776.49,-43.46,-902.34,474.61,-0.50,-1.37,-0.02,-505.40
21708,804.23,775.09,757.60,769.31,776.56,-39.55,-900.88,483.89,-1.47,1.86,-0.89,-504.93
21743,804.25,775.11,757.60,769.25,776.55,-55.18,-898.93,481.93,0.80,0.27,-1.50,-504.35
21780,803.76,774.98,757.54,768.93,776.30,-41.50,-895.02,492.68,-2.93,-1.60,-1.97,-498.55
21815,803.54,774.76,757.55,768.84,776.17,-44.92,-904.79,474.61,-0.94,1.70,0.09,-494.29
21851,803.69,774.56,757.53,768.71,776.12,-62.99,-905.76,484.86,-2.66,-2.76,0.32,-491.96
21886,803.97,774.38,757.46,768.52,776.08,-46.39,-902.83,490.72,-0.31,2.27,-0.65,-490.42
21921,803.91,774.20,757.48,768.31,775.98,-54.69,-888.18,478.03,-1.31,-1.30,2.98,-485.03
21956,803.72,773.91,757.48,768.07,775.79,-51.27,-908.69,481.93,-1.02,-2.77,2.21,-478.65
21994,803.63,773.70,757.47,767.92,775.68,-58.11,-900.88,472.17,-1.73,2.82,-1.01,-474.67
22029,803.85,773.43,757.38,767.64,775.58,-52.25,-896.48,481.45,0.53,-0.85,-0.86,-471.41
22064,804.09,773.30,757.36,767.52,775.57,-54.69,-897.95,466.80,-0.62,0.79,-0.17,-469.95
22099,804.22,773.23,757.33,767.29,775.52,-54.20,-899.41,467.77,-0.73,-0.89,-0.24,-467.19
22134,804.24,773.20,757.40,767.31,775.54,-62.50,-901.37,469.73,-0.17,-0.36,-2.46,-465.46
22169,804.06,773.19,757.34,767.27,775.47,-55.18,-898.44,479.49,-0.90,-0.89,-0.60,-465.69
22206,803.95,773.15,757.41,767.33,775.46,-47.36,-896.48,484.86,-1.13,1.32,-0.11,-464.01
22241,803.87,773.10,757.45,767.30,775.43,-61.52,-901.37,474.61,-0.17,-2.14,0.20,-461.83
22276,803.74,773.08,757.43,767.33,775.39,-49.80,-896.00,486.33,-0.53,-2.49,0.55,-462.29
22311,803.56,773.11,757.39,767.34,775.35,-48.83,-899.90,481.45,1.05,0.79,1.69,-463.10
22346,803.57,772.98,757.32,767.32,775.30,-59.08,-892.09,487.30,-1.34,0.00,-0.58,-463.61
22384,803.58,772.94,757.38,767.22,775.28,-51.76,-898.44,478.03,-2.10,1.36,-1.15,-460.20
22418,803.48,772.94,757.41,767.19,775.25,-56.15,-899.41,476.56,-0.98,2.73,-0.73,-458.73
22453,803.26,772.92,757.44,767.12,775.19,-50.29,-906.25,471.68,-1.25,1.21,-1.34,-456.07
22488,803.00,772.89,757.37,767.14,775.10,-40.04,-898.93,478.52,0.46,-0.74,-1.40,-456.94
22523,803.08,772.79,757.41,767.02,775.08,-59.57,-901.86,467.77,-0.69,-0.18,-2.70,-453.71
22557,802.93,772.77,757.41,766.99,775.03,-52.25,-908.69,480.96,-2.37,2.98,0.34,-452.60
22595,802.75,772.92,757.32,766.92,774.98,-58.11,-899.90,472.66,0.25,-1.36,-0.50,-454.43
22630,802.72,772.84,757.32,766.89,774.94,-60.06,-896.48,481.93,-2.14,1.65,1.54,-453.09
22665,802.62,772.87,757.38,766.78,774.91,-56.64,-901.86,477.05,0.40,0.46,-0.66,-449.95
22700,802.46,772.89,757.44,766.75,774.89,-54.20,-911.62,479.98,-0.98,-3.48,-1.31,-447.79
22735,802.25,772.87,757.37,766.79,774.82,-46.39,-903.81,474.61,-2.14,3.85,-1.92,-449.14
22769,802.20,772.87,757.38,766.77,774.81,-47.36,-900.39,479.49,-0.65,-0.07,0.66,-448.49
22808,802.10,772.85,757.32,766.76,774.76,-38.57,-903.32,466.31,1.51,-1.69,0.11,-449.28
22843,801.92,772.79,757.39,766.78,774.72,-54.20,-898.93,471.68,0.67,0.18,-1.11,-446.70
22878,801.90,772.66,757.31,766.71,774.64,-46.88,-905.27,467.77,-0.83,2.12,-0.47,-446.55
22913,801.93,772.62,757.40,766.69,774.66,-64.94,-906.25,473.14,0.55,-0.85,-2.80,-443.78
22948,801.94,772.61,757.36,766.75,774.67,-44.92,-900.39,473.63,1.87,0.79,-1.38,-445.51
22983,801.98,772.69,757.35,766.72,774.69,-48.83,-914.55,473.14,0.02,-0.97,-0.61,-446.33
23021,801.96,772.54,757.41,766.75,774.66,-53.22,-913.09,482.91,0.30,-1.85,-0.52,-443.70
23056,802.11,772.63,757.35,766.79,774.72,-52.25,-903.81,479.98,0.38,-1.08,-0.85,-447.24
23091,802.09,772.63,757.31,766.80,774.71,-67.87,-906.25,473.63,1.98,-0.14,0.66,-448.20
23126,802.16,772.71,757.37,766.79,774.76,-47.36,-893.55,483.40,-0.98,-1.06,0.46,-447.60
23161,802.29,772.70,757.39,766.91,774.82,-41.02,-895.51,477.54,-0.39,1.39,-1.67,-449.16
23199,802.36,772.72,757.33,766.90,774.83,-48.34,-902.34,462.89,0.60,2.11,-1.34,-450.80
23234,802.40,772.74,757.37,766.93,774.86,-49.80,-909.67,473.14,-1.63,-2.12,-0.31,-450.56
23269,802.46,772.77,757.42,767.03,774.92,-57.13,-901.86,481.93,-1.67,0.66,-1.76,-451.33
23304,802.38,772.83,757.33,766.96,774.88,-41.02,-902.83,486.82,-0.22,0.46,-0.98,-452.91
23339,802.32,772.83,757.41,767.01,774.89,-65.43,-908.69,471.19,0.85,-0.12,-1.63,-451.41
23374,802.17,773.07,757.44,767.14,774.95,-47.36,-906.74,481.45,0.32,-0.07,-2.47,-453.87
23412,802.00,773.15,757.38,767.23,774.94,-47.36,-900.88,477.54,0.71,1.93,0.18,-456.57
23447,801.89,773.20,757.38,767.25,774.93,-51.76,-909.67,478.52,-0.60,-0.54,-0.53,-457.14
23482,801.77,773.33,757.39,767.38,774.97,-55.18,-908.69,474.12,-1.03,0.98,-1.97,-459.39
23518,801.69,773.38,757.46,767.46,775.00,-48.83,-906.25,471.19,0.59,0.47,-0.58,-458.74
23553,801.54,773.42,757.38,767.51,774.96,-44.43,-910.16,473.63,-0.74,-0.09,0.18,-461.37
23588,801.42,773.48,757.35,767.57,774.95,-45.90,-907.71,473.14,-0.53,-0.76,-2.67,-463.08
23625,801.37,773.57,757.44,767.58,774.99,-49.32,-900.88,474.61,-1.01,-0.38,-2.75,-461.58
23661,801.36,773.60,757.47,767.59,775.01,-60.06,-914.55,472.17,0.05,-0.69,-0.56,-461.17
23696,801.24,773.58,757.43,767.58,774.96,-40.04,-906.25,483.89,1.46,2.18,1.34,-461.58
23731,801.26,773.49,757.47,767.64,774.96,-52.73,-902.34,476.56,0.95,-1.17,-0.86,-460.78
23767,801.27,773.46,757.42,767.63,774.94,-56.64,-903.81,476.56,0.20,0.27,-2.40,-461.48
23802,801.21,773.45,757.46,767.69,774.95,-40.04,-912.11,485.84,0.92,-0.53,1.56,-461.00
23839,801.02,773.51,757.44,767.63,774.90,-45.90,-903.81,484.37,-0.41,0.96,-0.27,-460.53
23875,800.81,773.36,757.41,767.67,774.81,-37.11,-908.20,469.73,0.03,-0.07,-0.99,-460.07
23910,800.97,773.38,757.46,767.74,774.89,-51.27,-905.27,473.63,0.65,0.89,1.77,-460.72
23945,801.03,773.46,757.51,767.85,774.96,-44.92,-903.81,484.86,-0.69,-1.20,-0.80,-461.59
23980,800.81,773.40,757.51,767.84,774.89,-51.76,-895.02,478.03,-1.60,-0.58,-1.23,-460.56
24018,800.80,773.39,757.52,767.86,774.89,-52.73,-904.79,478.52,-1.45,1.87,-1.65,-460.41
24053,800.73,773.42,757.45,767.86,774.86,-48.83,-900.39,474.61,-0.05,0.59,0.92,-462.06
24087,800.53,773.42,757.46,767.88,774.82,-46.39,-890.14,480.96,1.15,-1.07,-0.73,-461.32
24122,800.28,773.51,757.43,768.03,774.81,-41.02,-896.48,472.66,-1.86,0.34,-1.76,-464.14
24157,800.30,773.61,757.43,768.19,774.88,-49.32,-898.44,479.00,-0.77,0.34,-0.89,-467.42
24192,799.87,773.73,757.53,768.30,774.86,-53.22,-899.90,471.68,1.34,0.23,-1.21,-466.04
24230,799.46,773.81,757.59,768.49,774.84,-47.85,-901.86,473.63,0.33,-0.33,-1.85,-466.67
24265,799.22,773.93,757.55,768.51,774.81,-44.43,-910.64,467.77,2.19,0.06,-1.51,-467.99
24299,799.07,773.96,757.61,768.63,774.82,-51.27,-909.67,486.33,0.85,-0.38,-1.71,-467.96
24334,798.77,774.14,757.65,768.79,774.84,-48.83,-916.50,477.54,-1.19,1.48,-2.60,-469.98
24369,798.57,774.17,757.58,768.88,774.80,-43.46,-906.25,479.98,-0.10,2.07,-2.73,-472.49
24404,798.53,774.27,757.64,768.92,774.84,-53.22,-900.88,476.56,-0.70,-1.08,-2.51,-472.09
24441,798.48,774.28,757.64,768.95,774.84,-49.80,-907.71,470.70,0.75,-0.57,0.97,-472.45
24476,798.49,774.17,757.60,768.92,774.79,-40.53,-910.16,483.40,-1.07,0.28,0.79,-472.06
24511,798.68,774.16,757.60,768.81,774.81,-40.04,-899.90,479.98,0.18,0.65,0.78,-471.22
24545,798.80,774.08,757.62,768.72,774.81,-62.01,-909.18,480.47,0.41,-0.95,-2.21,-469.17
24580,798.74,774.05,757.57,768.70,774.76,-48.34,-902.34,483.40,-1.71,0.44,-2.40,-469.75
24615,798.63,774.00,757.64,768.69,774.74,-43.95,-911.62,482.91,0.37,1.63,1.18,-466.93
24654,798.61,773.97,757.55,768.69,774.71,-44.43,-911.13,488.28,0.93,-1.11,0.66,-468.81
24689,798.67,773.95,757.52,768.61,774.68,-42.97,-904.30,477.54,-0.04,1.00,-1.12,-468.54
24724,798.58,773.83,757.56,768.53,774.63,-63.48,-903.81,482.91,0.09,-2.28,-1.17,-465.00
24759,798.65,773.81,757.51,768.56,774.63,-63.48,-901.37,478.03,0.54,-0.93,0.91,-466.92
24794,798.67,773.77,757.48,768.42,774.58,-56.15,-902.34,479.98,-0.22,-0.82,0.31,-465.23
24828,798.82,773.73,757.59,768.41,774.64,-46.39,-893.55,484.37,-1.11,0.46,1.27,-462.57
24866,798.93,773.67,757.57,768.42,774.65,-49.32,-918.46,474.61,0.19,-0.25,1.84,-463.02
24901,798.87,773.72,757.60,768.47,774.67,-56.15,-903.81,477.05,-0.84,0.78,-0.18,-463.29
24936,798.97,773.71,757.51,768.48,774.66,-56.15,-912.11,477.05,0.37,-0.44,0.31,-465.96
24971,798.93,773.72,757.57,768.49,774.68,-60.06,-892.09,476.56,0.47,-0.55,-0.28,-464.65
25006,798.86,773.74,757.55,768.48,774.66,-49.32,-902.83,481.45,-1.27,0.87,0.08,-464.84
25043,798.96,773.73,757.55,768.54,774.70,-56.64,-912.11,483.40,-0.41,0.87,-0.53,-465.94
25078,799.01,773.80,757.51,768.62,774.74,-61.52,-900.39,493.65,-1.63,1.18,1.03,-469.03
25113,798.95,773.84,757.54,768.62,774.74,-54.69,-908.69,476.56,-0.26,0.63,-0.95,-468.18
25148,798.97,773.83,757.52,768.73,774.76,-51.27,-902.83,482.42,-2.15,-0.38,0.53,-470.37
25183,799.05,773.92,757.62,768.72,774.83,-50.29,-902.34,483.89,-0.01,0.00,-1.16,-468.70
25218,798.99,773.94,757.62,768.72,774.82,-58.59,-905.76,477.54,-1.31,-0.09,-2.68,-468.67
25256,798.94,773.89,757.52,768.77,774.78,-46.88,-914.06,481.93,-1.54,0.18,0.71,-471.29
25290,798.96,774.04,757.54,768.79,774.83,-48.34,-905.27,470.70,0.07,1.08,-0.31,-472.25
25326,798.90,774.05,757.57,768.76,774.82,-42.97,-903.81,486.33,-0.89,-0.18,0.19,-471.01
25360,798.83,774.05,757.55,768.86,774.82,-53.22,-924.32,501.46,0.37,-0.46,-1.59,-472.80
25395,798.78,774.11,757.54,768.83,774.82,-52.25,-896.00,493.16,0.59,-0.04,-1.99,-472.81
25430,798.67,774.17,757.64,768.91,774.85,-63.48,-890.14,480.47,0.74,-1.95,-0.04,-471.63
25468,798.60,774.15,757.61,769.01,774.84,-54.20,-907.71,469.73,0.62,-0.34,1.16,-473.48
25503,798.57,774.08,757.59,768.99,774.81,-58.11,-894.04,473.14,-0.76,1.72,0.41,-473.06
25538,798.52,774.17,757.54,768.94,774.79,-46.39,-903.81,475.10,0.71,-0.37,1.47,-474.11
25573,798.50,774.11,757.57,768.98,774.79,-58.59,-890.14,480.47,-1.07,-0.01,0.75,-473.37
25608,798.42,774.12,757.57,768.93,774.76,-46.88,-898.44,480.96,-1.22,1.05,-0.45,-472.57
25643,798.57,774.10,757.55,768.96,774.79,-50.29,-894.53,475.59,1.41,1.66,-1.41,-473.69
25681,798.49,774.12,757.61,768.97,774.80,-50.29,-899.90,489.26,-0.48,0.84,0.85,-472.29
25715,798.37,774.14,757.62,768.94,774.77,-42.97,-896.97,484.37,-1.02,2.91,-2.48,-471.40
25750,798.37,774.16,757.61,769.01,774.79,-51.76,-895.51,482.91,0.26,-0.99,-1.72,-472.77
25785,798.43,774.15,757.64,768.98,774.80,-57.13,-901.37,480.96,0.57,0.18,2.03,-471.87
25820,798.33,774.21,757.64,769.00,774.79,-59.57,-908.69,482.42,0.63,2.00,-0.53,-472.18
25854,798.32,774.14,757.64,768.97,774.77,-44.92,-898.44,471.68,-3.24,1.17,2.04,-471.17
25892,798.25,774.27,757.61,769.09,774.81,-46.39,-905.76,487.79,-0.89,0.52,0.79,-474.39
25927,798.24,774.18,757.68,769.01,774.78,-53.22,-898.44,471.68,-0.76,-1.08,-0.35,-470.86
25961,798.28,774.14,757.65,769.00,774.77,-51.27,-894.53,474.61,0.89,1.34,-0.11,-471.22
25996,798.23,774.14,757.58,769.05,774.75,-53.71,-904.30,481.45,-0.84,1.65,0.54,-473.68
26031,798.17,774.11,757.61,768.95,774.71,-54.20,-905.27,480.47,-0.16,1.37,-1.57,-470.72
26068,798.12,774.11,757.63,768.99,774.71,-37.11,-894.04,479.00,-1.92,2.11,0.73,-470.81
26103,798.13,774.14,757.70,768.95,774.73,-41.02,-912.60,479.98,-0.01,1.18,1.82,-468.74
26138,798.14,774.15,757.60,768.95,774.71,-53.22,-893.07,481.93,0.18,-0.18,-0.66,-471.20
26173,798.03,774.07,757.63,769.02,774.69,-34.67,-908.20,479.98,-1.43,0.69,-0.32,-470.63
26209,798.08,774.15,757.59,768.96,774.69,-41.99,-906.74,492.19,-0.69,0.25,-0.83,-471.53
26244,798.13,774.14,757.64,768.90,774.70,-41.02,-896.00,476.07,0.26,2.54,0.66,-469.56
26281,798.11,774.11,757.61,768.86,774.67,-43.46,-899.90,475.10,0.92,0.14,3.73,-469.26
26317,798.21,774.04,757.60,768.78,774.65,-50.29,-895.02,472.17,0.71,2.51,-2.47,-468.22
26351,798.39,774.07,757.65,768.85,774.74,-53.71,-896.00,485.84,0.09,-0.15,-2.15,-468.69
26386,798.49,773.92,757.60,768.81,774.71,-43.46,-900.88,486.82,-3.39,2.11,-0.69,-468.57
26421,798.55,774.01,757.66,768.79,774.75,-52.25,-901.37,480.47,-0.63,1.28,0.66,-467.76
26457,798.51,773.98,757.55,768.75,774.70,-40.53,-907.23,483.40,-2.05,0.55,-0.74,-469.61
26494,798.75,773.87,757.62,768.69,774.73,-57.62,-905.27,474.12,-0.56,0.85,0.63,-466.79
26530,798.61,773.84,757.64,768.67,774.69,-46.88,-900.39,479.98,-0.68,-0.20,-1.27,-465.29
26565,798.72,773.87,757.64,768.62,774.71,-58.11,-892.58,477.54,-0.54,-0.15,1.34,-465.05
26600,798.82,773.88,757.56,768.58,774.71,-46.88,-901.37,492.19,1.31,0.72,-1.11,-466.86
26635,798.89,773.86,757.58,768.60,774.73,-47.36,-902.83,495.12,0.74,0.76,-2.24,-467.12
26670,798.93,773.90,757.52,768.59,774.73,-54.69,-908.20,495.12,-0.93,-0.18,0.31,-468.53
26708,798.97,773.88,757.57,768.59,774.75,-40.53,-898.93,485.84,0.97,1.10,-1.21,-467.38
26743,799.01,773.74,757.52,768.60,774.72,-46.88,-896.00,482.91,-0.84,-1.05,-2.90,-467.88
26778,799.09,773.82,757.57,768.56,774.76,-42.48,-893.07,495.12,1.21,-0.18,-2.71,-467.14
26813,799.11,773.83,757.57,768.54,774.76,-50.29,-904.79,473.14,-0.21,1.53,-0.99,-466.95
26848,799.19,773.83,757.57,768.52,774.78,-57.62,-900.88,472.66,0.92,-2.18,-1.25,-466.82
26886,799.32,773.84,757.59,768.51,774.81,-43.46,-900.88,489.26,0.44,0.60,0.87,-466.74
26921,799.38,773.82,757.65,768.53,774.84,-53.71,-904.79,483.40,0.11,-0.24,-2.09,-465.49
26956,799.38,773.81,757.64,768.49,774.83,-40.04,-901.37,484.37,-0.62,-1.14,-2.51,-465.11
26991,799.37,773.74,757.60,768.53,774.81,-48.34,-898.44,474.61,-0.77,-0.62,-1.76,-466.05
27026,799.40,773.76,757.64,768.51,774.83,-43.95,-901.37,478.52,0.90,0.09,0.91,-464.99
27061,799.32,773.76,757.59,768.50,774.79,-48.34,-901.86,484.37,-0.36,-1.61,-0.93,-465.69
27099,799.21,773.69,757.56,768.50,774.74,-49.80,-901.86,479.49,-1.11,0.20,-2.76,-465.66
27134,799.17,773.69,757.57,768.46,774.72,-45.90,-895.51,467.77,0.96,-1.71,-1.50,-464.77
27169,799.25,773.64,757.56,768.48,774.73,-42.97,-904.30,480.96,0.92,-0.35,1.10,-465.14
27204,799.21,773.61,757.52,768.39,774.68,-47.85,-896.48,479.00,-0.21,0.76,-0.31,-464.41
27239,799.04,773.62,757.59,768.43,774.67,-52.73,-904.79,487.30,-1.60,0.60,-0.55,-462.77
27274,798.95,773.62,757.55,768.36,774.62,-50.29,-904.79,477.54,-1.43,2.10,0.06,-462.37
27312,798.90,773.53,757.59,768.35,774.59,-48.34,-909.67,478.52,-1.48,-1.16,-1.37,-460.42
27347,798.89,773.52,757.55,768.31,774.57,-53.71,-901.37,472.17,-2.08,1.17,0.05,-460.80
27382,798.77,773.68,757.59,768.42,774.62,-48.83,-887.70,482.91,-0.98,0.60,-2.50,-462.01
27417,798.75,773.63,757.56,768.44,774.59,-46.88,-895.51,490.72,0.63,-0.92,1.25,-462.74
27452,798.61,773.67,757.55,768.38,774.55,-40.04,-901.86,469.73,-0.23,-1.65,-1.46,-461.97
27487,798.60,773.64,757.61,768.41,774.56,-49.32,-905.76,484.86,-0.22,-0.60,0.15,-460.67
27525,798.49,773.57,757.55,768.37,774.50,-54.20,-899.41,479.00,0.53,0.30,-0.79,-460.60
27560,798.63,773.60,757.62,768.34,774.55,-44.92,-893.55,475.59,0.37,-0.76,-1.31,-459.08
27595,798.72,773.70,757.57,768.35,774.58,-51.27,-899.90,478.03,-0.83,-1.18,0.93,-461.54
27630,798.65,773.61,757.53,768.38,774.54,-48.83,-899.90,472.17,0.97,-1.40,-1.13,-462.16
27664,798.70,773.65,757.63,768.35,774.58,-53.22,-905.27,479.49,0.12,0.95,-0.05,-459.67
27699,798.69,773.70,757.55,768.40,774.59,-41.99,-895.02,487.79,-1.34,0.42,-2.11,-462.73
27737,798.73,773.73,757.63,768.42,774.63,-46.88,-895.02,485.35,1.11,1.24,-0.68,-461.56
27772,798.78,773.72,757.56,768.47,774.63,-41.99,-907.23,474.12,0.69,0.44,-3.24,-463.98
27807,798.69,773.71,757.55,768.51,774.62,-45.90,-907.71,478.52,2.63,1.13,0.63,-464.44
27842,798.71,773.80,757.61,768.54,774.66,-49.80,-917.48,478.03,-0.61,1.38,-1.21,-464.12
27877,798.64,773.85,757.61,768.53,774.66,-55.66,-891.60,491.21,-0.06,-1.07,-3.50,-464.16
27915,798.55,773.81,757.57,768.49,774.60,-37.60,-901.37,486.33,-0.92,-1.02,-1.08,-464.06
27950,798.51,773.78,757.57,768.50,774.59,-55.66,-899.41,487.30,-1.73,0.31,0.31,-463.71
27985,798.52,773.88,757.63,768.56,774.65,-51.27,-904.30,477.54,-0.90,0.01,-0.92,-464.04
28020,798.63,773.84,757.62,768.55,774.66,-62.99,-901.37,470.21,-0.80,0.11,0.48,-464.14
28055,798.58,773.92,757.68,768.61,774.70,-48.83,-899.41,479.98,0.16,0.18,-1.60,-464.07
28119,798.58,773.88,757.60,768.52,774.65,-49.80,-902.83,479.00,0.58,-1.89,-1.27,-464.31
28595,798.98,773.84,757.63,768.37,774.71,-55.66,-886.23,491.21,-1.00,-0.51,-1.50,-462.50
28834,799.06,773.77,757.54,768.26,774.66,-44.43,-913.09,483.89,1.00,-0.79,-1.66,-462.70
28870,799.20,773.66,757.55,768.30,774.68,-44.92,-895.02,478.03,1.33,0.73,-0.76,-462.65
28905,799.29,773.74,757.57,768.22,774.71,-54.69,-908.69,471.68,-0.85,2.40,0.20,-461.90
28939,799.40,773.70,757.59,768.23,774.73,-63.96,-901.37,479.49,-0.76,1.34,-2.02,-461.73
28974,799.37,773.74,757.56,768.16,774.71,-53.71,-904.30,479.49,-2.12,2.54,-1.95,-461.51
29012,799.42,773.70,757.61,768.15,774.72,-51.27,-904.79,474.61,1.21,1.19,-2.35,-459.96
29046,799.63,773.65,757.53,768.16,774.75,-50.78,-903.32,486.33,-0.18,-0.68,-1.25,-462.55
29081,799.68,773.58,757.55,768.14,774.74,-52.73,-896.00,468.26,0.26,2.40,0.51,-461.23
29116,799.74,773.61,757.66,768.21,774.80,-53.22,-905.76,474.12,0.95,0.59,-1.18,-460.22
29150,799.77,773.70,757.53,768.17,774.79,-58.11,-907.23,477.05,-1.72,0.31,0.25,-463.33
29185,799.78,773.75,757.56,768.08,774.79,-54.69,-907.71,475.10,-2.50,-3.36,-1.33,-461.96
29222,799.65,773.71,757.62,768.14,774.78,-51.76,-892.09,481.45,-0.89,1.76,-0.11,-460.60
29257,799.46,773.66,757.60,768.18,774.73,-53.71,-892.09,477.05,-1.03,0.40,0.18,-460.53
29292,799.34,773.72,757.61,768.18,774.71,-57.13,-907.23,493.65,-0.69,-0.15,-1.05,-460.50
29327,799.38,773.69,757.55,768.13,774.69,-41.50,-898.93,478.03,0.95,-0.01,-0.46,-460.89
29361,799.37,773.63,757.57,768.22,774.70,-46.39,-911.62,480.96,-0.70,-1.95,0.18,-461.42
29399,799.67,773.55,757.63,768.12,774.74,-45.90,-905.27,478.52,-0.72,0.89,0.78,-458.86
29433,799.83,773.53,757.54,768.05,774.74,-53.71,-905.27,489.75,0.57,0.87,0.34,-460.50
29468,799.75,773.54,757.58,768.15,774.75,-57.13,-902.83,484.86,-0.85,-0.24,0.28,-460.78
29503,799.95,773.48,757.54,768.10,774.77,-48.83,-896.00,484.37,0.53,2.59,-0.78,-461.07
29538,800.16,773.43,757.54,768.05,774.80,-47.36,-895.51,484.86,0.21,0.87,-2.29,-460.75
29572,800.34,773.35,757.56,768.00,774.81,-45.90,-904.79,481.45,0.21,0.44,-0.14,-459.41
29609,800.42,773.30,757.53,767.92,774.79,-43.95,-902.34,479.49,-0.38,-3.14,-1.69,-458.85
29644,800.56,773.24,757.51,767.76,774.77,-41.50,-903.81,480.47,0.30,-0.75,-1.37,-457.20
29678,800.89,773.05,757.54,767.64,774.78,-51.27,-900.88,486.82,-1.40,3.82,1.12,-454.26
29712,801.33,772.90,757.50,767.47,774.80,-62.01,-888.67,479.00,-3.69,-0.24,-1.23,-452.79
29747,801.88,772.78,757.44,767.26,774.84,-47.36,-896.48,482.42,-2.82,-0.70,-1.52,-452.23
29782,802.34,772.64,757.41,767.09,774.87,-37.60,-915.04,460.94,-1.78,1.11,1.24,-450.96
29819,802.86,772.44,757.40,766.77,774.87,-51.27,-909.18,467.77,-3.37,0.66,0.11,-446.70
29854,803.24,772.31,757.40,766.62,774.89,-57.13,-906.25,472.66,-3.57,0.24,0.44,-444.68
29888,803.87,772.08,757.35,766.35,774.91,-58.11,-899.90,469.73,0.56,2.38,-1.08,-442.34
29923,804.33,771.93,757.46,766.24,774.99,-52.25,-907.23,471.68,-0.56,0.34,-0.93,-438.33
29957,804.47,771.70,757.38,766.15,774.92,-44.92,-900.39,462.40,-2.67,-1.25,-0.50,-437.84
29992,804.63,771.70,757.36,766.09,774.95,-53.71,-904.79,479.49,-0.51,0.15,-0.96,-437.93
30029,804.93,771.62,757.36,765.95,774.97,-55.66,-896.97,479.49,0.07,-0.08,2.50,-436.13
30063,805.23,771.61,757.32,765.71,774.97,-40.53,-907.23,468.26,-2.21,1.72,-1.69,-434.56
30098,805.55,771.55,757.34,765.67,775.03,-41.02,-909.67,475.59,-1.78,-0.30,-1.53,-433.94
30133,806.00,771.51,757.30,765.58,775.10,-47.36,-911.62,479.00,-1.27,0.95,-0.94,-435.03
30168,806.36,771.52,757.33,765.56,775.19,-48.83,-906.74,473.14,0.40,-1.63,-3.24,-435.32
30205,806.61,771.68,757.37,765.58,775.31,-50.29,-909.67,479.00,0.02,-0.83,-1.35,-436.68
30240,806.77,771.70,757.42,765.57,775.36,-57.13,-893.07,489.75,1.02,0.73,-2.85,-435.90
30275,806.92,771.77,757.34,765.59,775.40,-47.36,-900.88,481.45,0.15,-0.04,-1.92,-439.37
30310,806.97,771.76,757.36,765.63,775.43,-43.46,-895.51,474.12,0.98,-1.16,-0.87,-439.65
30345,807.12,771.81,757.31,765.64,775.47,-54.69,-913.09,471.19,0.97,-3.37,-0.60,-441.76
30379,807.23,771.87,757.37,765.70,775.54,-51.27,-900.88,464.36,0.46,0.64,0.66,-442.11
30417,807.18,771.96,757.38,765.74,775.56,-62.99,-894.04,478.03,-1.27,0.85,-1.32,-442.83
30451,807.05,772.00,757.32,765.84,775.55,-58.59,-899.90,469.24,-1.50,2.24,-1.52,-445.82
30486,807.04,772.11,757.39,765.93,775.62,-60.06,-897.95,464.84,2.02,0.63,-2.02,-446.29
30521,806.68,772.17,757.42,766.06,775.58,-41.02,-915.53,477.05,-1.08,-0.50,-1.44,-446.69
30556,806.40,772.12,757.41,766.07,775.50,-49.80,-893.07,490.23,0.23,0.11,-1.78,-445.55
30591,806.20,772.17,757.42,766.16,775.49,-62.50,-898.93,466.80,0.47,2.44,-1.82,-446.42
30628,806.04,772.20,757.41,766.32,775.49,-53.22,-896.00,483.89,1.80,-1.45,2.08,-448.87
30663,805.73,772.42,757.42,766.40,775.49,-54.20,-905.76,473.63,0.66,-1.76,0.44,-450.35
30698,805.09,772.49,757.45,766.65,775.42,-45.90,-895.51,479.98,0.71,-0.98,0.61,-451.77
30733,804.45,772.72,757.54,766.84,775.39,-52.25,-902.83,475.10,0.54,0.30,-0.40,-451.86
30767,803.63,772.82,757.54,767.09,775.27,-50.78,-909.18,481.93,1.64,-2.63,-1.11,-453.65
30802,803.16,772.92,757.49,767.22,775.20,-48.83,-898.44,482.91,-0.05,-0.21,-0.47,-455.88
30840,802.79,772.97,757.49,767.32,775.14,-44.43,-907.23,472.17,-0.59,-1.21,-0.57,-456.67
30875,802.48,773.06,757.54,767.41,775.12,-51.76,-898.93,468.75,0.73,0.64,-2.73,-456.46
30910,802.07,773.12,757.57,767.51,775.07,-53.71,-907.71,465.33,2.13,-0.56,-2.13,-456.12
30944,801.64,773.21,757.52,767.61,774.99,-57.13,-901.86,474.12,0.67,1.41,0.92,-458.04
30979,801.34,773.34,757.59,767.80,775.01,-53.71,-904.79,480.47,-0.56,0.66,-0.50,-459.13
31014,801.03,773.37,757.61,767.91,774.98,-59.57,-905.27,493.65,-1.47,-1.30,0.95,-459.56
31051,800.76,773.39,757.57,767.88,774.90,-49.80,-912.60,476.56,-1.30,-1.10,-0.88,-459.22
31086,800.00,773.33,757.67,768.10,774.77,-40.04,-902.83,484.86,1.40,0.77,-1.31,-456.88
31121,799.96,773.52,757.64,768.23,774.84,-43.46,-910.64,476.56,4.76,0.03,0.37,-460.82
31156,799.85,773.55,757.66,768.24,774.82,-61.04,-902.34,476.07,-2.59,-0.20,-1.43,-460.38
31191,799.37,773.55,757.63,768.24,774.70,-55.66,-910.16,472.66,-0.18,-0.91,-1.20,-459.42
31228,799.28,773.57,757.65,768.28,774.69,-59.57,-904.30,478.03,-1.12,1.04,0.04,-459.35
31263,799.16,773.55,757.63,768.27,774.65,-49.32,-911.13,478.03,-0.95,0.58,0.50,-459.25
31298,799.03,773.63,757.63,768.23,774.63,-47.85,-896.48,469.24,-0.40,-2.47,-2.08,-458.97
31333,798.99,773.63,757.64,768.35,774.66,-55.66,-896.48,470.70,2.24,-0.07,-1.34,-460.29
31367,798.82,773.68,757.65,768.39,774.64,-42.97,-904.30,477.54,-0.05,2.54,1.66,-460.30
31402,798.65,773.67,757.72,768.47,774.63,-57.13,-905.76,479.00,-0.30,0.18,2.23,-459.11
31440,798.53,773.70,757.65,768.49,774.59,-41.99,-900.39,484.37,0.69,-0.76,-1.34,-461.15
31474,798.55,773.71,757.65,768.46,774.59,-55.18,-900.88,475.59,-0.16,0.01,0.15,-460.62
31509,798.48,773.80,757.68,768.50,774.62,-49.80,-896.00,486.82,0.08,-1.62,-3.91,-461.03
31544,798.40,773.79,757.63,768.52,774.59,-53.71,-904.79,480.47,-0.81,-0.86,0.41,-462.21
31578,798.41,773.81,757.71,768.56,774.62,-48.34,-909.18,484.37,0.44,3.36,-1.26,-461.08
31613,798.35,773.82,757.67,768.60,774.61,-46.88,-896.00,475.59,-0.55,-1.31,-1.26,-462.41
31651,798.26,773.87,757.75,768.71,774.65,-50.78,-906.25,476.07,0.21,0.67,0.01,-462.21
31685,798.18,773.95,757.62,768.75,774.62,-62.01,-895.02,477.54,-0.68,-1.04,-0.98,-466.48
31720,798.27,773.86,757.60,768.58,774.58,-54.20,-912.60,480.47,-0.34,-1.96,-2.23,-463.94
31755,798.19,773.90,757.69,768.74,774.63,-47.36,-915.53,477.54,0.31,2.09,-1.19,-464.30
31790,798.09,773.96,757.67,768.76,774.62,-45.90,-899.41,483.89,2.45,1.09,-2.96,-465.05
31825,797.96,774.02,757.68,768.68,774.58,-50.29,-912.60,479.00,-1.53,0.04,0.12,-463.59
31862,798.07,773.94,757.65,768.73,774.60,-55.18,-901.37,489.75,0.33,-2.05,-0.67,-464.90
31897,798.08,773.96,757.61,768.75,774.60,-50.29,-894.04,479.98,1.39,-0.69,1.58,-466.32
31932,798.19,774.03,757.69,768.76,774.67,-46.88,-895.51,486.82,0.24,-0.42,-1.54,-465.47
31967,798.21,774.01,757.68,768.73,774.66,-53.22,-901.37,470.70,0.82,-5.23,-2.11,-465.28
32002,798.25,773.95,757.69,768.69,774.65,-54.20,-906.25,485.84,0.21,-1.12,1.33,-464.05
32039,798.28,774.00,757.63,768.76,774.67,-46.39,-884.28,485.84,-1.57,1.69,0.49,-467.01
32074,798.34,774.01,757.64,768.72,774.68,-50.78,-891.11,486.33,-0.54,1.76,-1.11,-466.46
32109,798.48,774.01,757.60,768.65,774.69,-51.76,-895.51,486.33,-0.27,-0.43,-3.43,-467.04
32144,798.54,773.97,757.70,768.67,774.72,-53.22,-909.67,478.52,-2.01,0.05,-0.34,-464.76
32179,798.52,774.01,757.69,768.69,774.73,-49.32,-896.00,477.54,1.92,-1.04,1.91,-465.29
32214,798.55,773.99,757.60,768.67,774.70,-50.78,-897.95,500.98,-0.66,1.47,-3.74,-467.35
32251,798.58,773.99,757.71,768.64,774.73,-44.92,-905.76,491.70,0.21,-0.89,-2.11,-464.23
32286,798.62,774.05,757.71,768.73,774.78,-52.73,-902.83,479.49,-2.08,1.14,-2.92,-466.20
32321,798.72,774.06,757.67,768.70,774.79,-48.83,-908.20,483.89,0.33,-0.11,-1.57,-467.24
32356,798.82,773.98,757.70,768.72,774.81,-37.11,-905.76,485.35,-0.11,-0.40,-1.67,-466.59
32391,798.78,773.96,757.67,768.67,774.77,-46.88,-903.32,483.40,-0.72,1.95,0.89,-466.16
32425,798.82,774.01,757.76,768.64,774.81,-52.73,-902.34,474.61,-1.53,-0.99,-1.05,-464.10
32463,798.79,774.00,757.68,768.64,774.78,-51.27,-909.67,474.12,0.34,-0.34,-2.58,-465.74
32498,798.75,774.07,757.74,768.59,774.79,-49.80,-889.65,482.91,-0.23,-1.44,-0.44,-463.98
32533,798.78,774.02,757.71,768.60,774.78,-46.88,-890.14,484.37,-0.62,0.40,0.09,-464.65
32568,798.77,774.09,757.65,768.62,774.78,-48.83,-896.00,481.93,-1.11,-0.68,-1.47,-466.98
32603,798.80,774.04,757.65,768.65,774.78,-40.53,-899.90,497.07,-1.04,0.89,1.27,-466.86
32638,798.67,774.08,757.69,768.68,774.78,-46.88,-910.64,475.59,-0.71,-2.35,-0.24,-466.37
32675,798.61,774.00,757.72,768.73,774.77,-42.48,-896.97,486.82,-0.29,-1.63,1.97,-465.55
32710,798.62,774.04,757.70,768.69,774.76,-48.83,-913.09,467.77,-0.11,1.15,-0.12,-465.77
32745,798.67,774.05,757.67,768.72,774.78,-48.34,-893.55,482.42,-0.96,0.11,-2.37,-467.22
32780,798.69,774.14,757.68,768.57,774.77,-44.92,-903.81,487.30,0.51,1.27,-1.05,-465.49
32815,798.66,774.06,757.70,768.59,774.75,-48.83,-910.16,494.14,-1.46,-1.75,1.98,-464.44
32852,798.72,774.01,757.67,768.66,774.76,-49.80,-900.88,479.98,-0.03,2.83,1.19,-466.14
32887,798.64,774.02,757.71,768.69,774.77,-51.27,-918.46,479.49,-1.01,-0.16,-0.40,-465.36
32922,798.56,774.01,757.73,768.64,774.73,-52.73,-894.53,474.61,0.01,0.78,-0.92,-463.66
32956,798.56,774.00,757.72,768.51,774.70,-54.69,-891.60,477.54,-0.30,-2.24,-1.53,-461.97
32991,798.63,774.04,757.73,768.68,774.77,-35.64,-905.76,477.05,-1.28,-0.73,-1.60,-464.90
33026,798.57,774.00,757.71,768.67,774.74,-61.04,-900.39,489.75,-0.18,-2.08,0.27,-464.85
33063,798.68,773.97,757.75,768.72,774.78,-44.92,-886.72,483.89,-1.31,1.18,-1.08,-464.65
33098,798.69,774.01,757.73,768.63,774.76,-53.71,-901.37,486.33,0.24,0.66,-2.81,-463.95
33132,798.79,773.97,757.68,768.53,774.74,-41.02,-896.48,481.45,0.55,0.28,-1.02,-463.91
33167,798.74,773.90,757.64,768.63,774.73,-48.83,-915.53,479.98,0.92,1.28,-0.56,-465.58
33202,798.71,773.91,757.65,768.71,774.74,-44.92,-910.16,478.03,0.61,1.36,-0.85,-466.61
33236,798.79,773.99,757.67,768.56,774.75,-54.20,-903.32,486.82,1.02,-2.20,-1.43,-464.74
33274,798.78,773.95,757.60,768.55,774.72,-54.20,-908.69,479.49,0.08,0.84,-0.53,-466.02
33309,798.77,773.89,757.63,768.54,774.71,-42.97,-896.48,473.63,-1.28,-0.34,-1.36,-464.57
33344,798.73,773.92,757.55,768.54,774.68,-48.83,-906.74,468.75,-2.17,-1.07,-0.98,-466.61
33378,798.70,773.84,757.62,768.49,774.66,-43.46,-911.62,475.59,-0.07,0.69,-0.08,-463.50
33413,798.72,773.94,757.71,768.51,774.72,-41.99,-900.39,477.05,-1.45,0.44,-0.76,-462.49
33448,798.82,773.91,757.65,768.41,774.69,-54.20,-903.32,485.84,-1.18,-0.49,-1.26,-462.63
33486,798.93,773.83,757.62,768.43,774.70,-45.90,-900.39,483.40,-1.99,0.87,-0.92,-463.36
33521,798.88,773.81,757.62,768.37,774.67,-62.99,-902.83,476.07,0.80,0.89,-0.08,-462.02
33556,798.99,773.74,757.62,768.36,774.68,-51.27,-902.34,489.26,-0.03,1.29,1.33,-461.78
33591,798.97,773.79,757.63,768.36,774.69,-50.29,-898.93,477.05,1.36,2.25,-0.38,-461.84
33626,798.94,773.83,757.64,768.46,774.72,-44.92,-915.04,479.49,1.92,0.56,-1.19,-463.40
33661,798.92,773.84,757.67,768.47,774.73,-48.34,-902.34,494.14,1.00,-1.21,-0.50,-462.76
33699,799.02,773.92,757.60,768.41,774.74,-43.95,-903.81,492.68,-1.63,-0.53,-0.40,-464.69
33734,799.12,773.86,757.58,768.41,774.74,-47.85,-899.41,483.89,0.08,1.73,-0.36,-464.81
33768,799.17,773.82,757.65,768.37,774.75,-47.36,-906.25,476.56,-1.13,-0.63,-0.09,-462.38
33803,799.12,773.91,757.69,768.44,774.79,-45.41,-908.20,466.80,4.13,-0.86,-1.94,-462.99
33838,799.25,773.84,757.61,768.45,774.79,-41.99,-890.62,482.42,-0.33,1.11,-1.13,-464.97
33876,799.27,773.83,757.68,768.42,774.80,-44.43,-894.53,487.79,1.35,1.32,1.97,-462.91
33911,799.30,773.80,757.63,768.41,774.79,-44.92,-905.76,480.96,-0.29,-1.02,-1.90,-463.74
33946,799.43,773.83,757.61,768.47,774.83,-47.36,-904.79,478.03,0.56,-1.26,0.57,-466.00
33981,799.53,773.94,757.57,768.47,774.88,-46.39,-901.37,474.12,0.29,-1.11,0.05,-468.05
34016,799.47,773.95,757.57,768.49,774.87,-45.41,-891.11,486.33,-0.82,-3.83,0.38,-468.34
34051,799.39,774.01,757.60,768.49,774.87,-44.92,-901.86,487.79,-2.46,-0.28,-0.67,-467.63
34088,799.46,773.98,757.58,768.40,774.86,-56.15,-905.76,487.30,-0.11,-0.80,0.23,-467.00
34123,799.45,773.94,757.65,768.46,774.87,-52.25,-909.18,477.05,1.14,-1.44,-0.81,-465.55
34158,799.42,773.95,757.70,768.37,774.86,-48.83,-900.88,491.70,0.21,1.93,-0.40,-462.98
34193,799.59,773.83,757.62,768.37,774.86,-52.73,-901.37,492.19,0.30,1.19,-1.21,-464.66
34228,799.64,773.95,757.61,768.45,774.91,-59.57,-897.95,489.75,-0.35,1.17,0.41,-467.38
34263,799.72,773.96,757.66,768.42,774.94,-51.27,-907.23,483.89,-0.36,0.08,1.14,-465.86
34301,799.72,773.90,757.65,768.47,774.94,-44.92,-890.62,478.03,-0.17,2.03,-0.49,-466.39
34335,799.60,773.96,757.64,768.44,774.91,-41.99,-903.81,483.40,-1.23,-0.70,-1.77,-466.29
34371,799.61,773.85,757.65,768.44,774.89,-59.08,-909.18,485.35,-0.31,1.74,-0.02,-465.27
34406,799.66,773.90,757.58,768.45,774.90,-58.11,-901.37,485.35,-0.37,-0.75,-0.74,-467.62
34441,799.67,773.98,757.68,768.39,774.93,-38.57,-901.86,479.00,-0.63,0.93,-2.66,-464.92
34476,799.68,773.99,757.71,768.40,774.95,-54.20,-902.34,472.66,-0.32,3.31,-1.81,-464.49
34513,799.80,773.91,757.66,768.38,774.94,-46.39,-899.90,475.10,-1.53,1.17,0.09,-465.11
34548,799.85,773.85,757.65,768.28,774.91,-59.57,-899.41,484.86,-0.38,-0.50,1.48,-463.79
34582,799.92,773.83,757.69,768.25,774.92,-49.32,-896.97,481.45,1.08,-2.80,2.86,-462.40
34617,799.93,773.80,757.65,768.30,774.92,-52.25,-906.74,486.33,-0.52,1.79,0.38,-463.78
34652,800.11,773.95,757.69,768.33,775.02,-52.25,-895.02,487.79,-2.35,0.42,-0.40,-465.08
34689,800.07,773.89,757.58,768.25,774.95,-47.85,-878.42,491.21,-0.28,0.40,-1.76,-465.95
34724,800.06,773.89,757.60,768.34,774.97,-44.92,-905.27,491.70,0.18,-0.04,-0.18,-466.80
34759,800.12,773.91,757.66,768.25,774.99,-58.11,-892.58,474.12,-0.19,2.62,0.30,-464.46
34793,800.10,773.90,757.67,768.21,774.97,-50.29,-890.62,474.12,-0.86,-0.41,0.39,-463.34
34828,800.12,773.82,757.66,768.12,774.93,-40.04,-903.81,478.03,0.12,1.57,-1.23,-461.69
34862,800.07,773.86,757.57,768.20,774.93,-59.08,-900.88,479.49,-0.98,-0.34,0.85,-465.28
34900,800.16,773.80,757.63,768.13,774.93,-58.11,-907.23,482.42,-0.15,-0.29,0.11,-462.63
34935,800.13,773.73,757.63,768.20,774.92,-44.43,-891.11,485.84,0.40,0.34,-1.47,-463.00
34969,800.06,773.70,757.61,768.07,774.86,-52.25,-902.83,477.54,0.13,-1.22,0.06,-461.00
35004,800.16,773.69,757.57,768.08,774.87,-54.20,-902.34,496.09,0.76,-1.67,-0.31,-462.61
35039,800.22,773.70,757.62,768.06,774.90,-42.97,-908.20,477.54,-0.08,-0.55,-0.95,-461.23
35074,800.24,773.64,757.60,768.02,774.88,-48.34,-912.11,473.14,0.64,0.57,2.91,-460.69
35112,800.26,773.69,757.63,768.11,774.92,-41.50,-905.27,485.84,-1.52,-0.27,-0.64,-461.64
35146,800.19,773.74,757.56,768.13,774.91,-55.66,-899.41,479.98,-2.15,0.27,-2.02,-464.06
35181,800.21,773.66,757.63,768.08,774.89,-41.02,-895.02,481.45,-1.66,-1.31,-2.08,-460.83
35216,800.29,773.60,757.66,768.08,774.91,-50.78,-892.58,478.03,-0.19,3.02,-1.24,-459.98
35251,800.26,773.62,757.61,768.04,774.88,-46.39,-904.30,481.93,-0.32,-1.92,-1.48,-460.88
35286,800.19,773.66,757.61,768.11,774.89,-47.85,-904.30,476.07,-0.92,-0.77,2.09,-461.82
35323,800.21,773.63,757.63,768.13,774.90,-48.34,-900.39,474.12,-0.05,-0.16,1.73,-461.36
35359,800.28,773.78,757.60,768.13,774.95,-48.34,-903.81,475.59,-0.05,-0.33,-0.90,-463.58
35394,800.25,773.76,757.61,768.16,774.95,-41.02,-903.32,479.00,-1.79,0.73,-1.85,-463.73
35429,800.31,773.84,757.57,768.23,774.99,-44.43,-906.25,479.00,-1.27,-0.46,0.07,-466.24
35464,800.35,773.80,757.63,768.19,774.99,-54.20,-906.74,481.93,0.08,2.30,-0.99,-464.27
35501,800.32,773.81,757.65,768.19,774.99,-37.60,-898.44,474.12,-0.22,1.08,1.19,-463.57
35536,800.37,773.72,757.70,768.14,774.98,-58.59,-910.64,482.42,-0.75,-0.57,-2.70,-461.12
35571,800.42,773.71,757.64,768.17,774.98,-38.57,-900.39,483.89,-1.20,0.62,0.36,-463.23
35606,800.38,773.82,757.56,768.10,774.96,-41.99,-899.90,492.19,-0.02,-0.89,-0.18,-464.77
35640,800.42,773.73,757.58,768.09,774.96,-54.20,-905.27,489.26,-0.26,0.30,-0.80,-463.71
35675,800.34,773.70,757.58,768.14,774.94,-42.48,-902.83,481.45,-1.56,0.79,-0.43,-464.03
35713,800.47,773.79,757.65,768.04,774.99,-39.55,-899.41,480.96,-0.79,2.56,-0.50,-461.83
35748,800.47,773.72,757.55,768.13,774.97,-51.27,-903.32,474.12,0.79,-1.70,-0.98,-465.00
35783,800.65,773.74,757.63,768.03,775.01,-57.13,-902.34,494.63,-0.74,-1.65,0.61,-462.36
35817,800.55,773.73,757.56,768.05,774.97,-37.60,-913.57,488.77,-1.15,1.83,0.47,-463.91
35852,800.50,773.70,757.60,768.04,774.96,-52.25,-899.41,479.98,-1.36,-0.39,-0.31,-462.52
35887,800.63,773.69,757.70,767.99,775.01,-53.22,-892.09,478.03,-1.11,1.56,-0.40,-459.54
35925,800.63,773.66,757.66,767.98,774.98,-56.64,-901.37,479.00,0.45,1.36,-1.27,-460.04
35960,800.65,773.56,757.59,767.99,774.95,-51.27,-905.27,499.02,-2.15,0.47,0.35,-461.21
35994,800.62,773.62,757.60,767.93,774.94,-42.48,-902.83,487.30,-0.08,-0.20,-1.58,-460.61
36029,800.66,773.56,757.57,767.94,774.94,-43.46,-910.16,469.73,0.79,-1.11,-0.15,-461.13
36064,800.69,773.54,757.61,767.96,774.95,-42.48,-902.34,480.47,0.71,1.00,-0.33,-460.50
36099,800.61,773.59,757.69,767.95,774.96,-51.27,-903.32,485.84,0.15,2.47,-0.37,-458.31
36137,800.62,773.52,757.63,767.99,774.94,-47.36,-889.16,476.56,0.51,0.05,-1.92,-459.83
36171,800.57,773.60,757.66,768.01,774.96,-43.95,-898.44,481.45,0.30,0.27,-0.43,-460.02
36206,800.75,773.64,757.68,768.07,775.04,-43.46,-903.32,479.49,-0.17,1.58,2.20,-461.22
36241,800.65,773.58,757.63,767.96,774.95,-50.78,-898.44,478.52,-0.99,1.77,-2.19,-459.87
36275,800.57,773.54,757.65,768.03,774.95,-50.29,-901.86,474.12,-2.70,-0.04,-3.98,-459.89
36313,800.52,773.54,757.66,767.95,774.92,-47.85,-903.81,481.93,-0.54,-1.60,-1.69,-458.55
36348,800.57,773.55,757.67,768.00,774.95,-61.52,-906.74,480.96,-0.06,-1.86,-0.36,-458.90
36383,800.48,773.57,757.60,768.06,774.93,-50.78,-901.86,485.84,-0.85,2.18,-0.25,-461.64
36417,800.43,773.45,757.59,768.02,774.87,-54.20,-902.83,481.45,1.64,0.21,2.66,-460.07
36452,800.32,773.47,757.64,768.03,774.86,-50.29,-908.20,490.23,-0.11,1.70,-3.57,-458.92
36487,800.30,773.61,757.64,768.03,774.89,-55.66,-903.32,477.05,0.36,0.84,-0.24,-459.95
36524,800.33,773.52,757.63,768.07,774.89,-39.55,-905.27,478.52,-0.08,0.28,-0.45,-459.94
36559,800.22,773.53,757.66,768.09,774.87,-47.85,-890.14,466.80,-1.21,1.40,-0.35,-459.19
36594,800.23,773.61,757.61,768.16,774.90,-41.99,-895.02,471.68,-0.05,-0.08,-3.86,-462.11
36629,800.05,773.47,757.64,768.12,774.82,-50.29,-899.41,485.35,-0.04,1.08,1.06,-459.32
36664,800.06,773.56,757.60,768.13,774.84,-56.64,-896.97,489.75,-0.45,-1.75,0.28,-461.16
36698,800.06,773.57,757.51,768.12,774.81,-55.66,-902.83,487.30,-0.44,-2.51,0.74,-463.29
36736,800.08,773.58,757.66,768.15,774.87,-48.34,-909.18,475.59,-0.14,-0.51,-0.53,-460.06
36771,799.94,773.58,757.62,768.10,774.81,-54.20,-898.93,485.35,0.95,2.56,0.17,-459.78
36806,799.98,773.63,757.58,768.08,774.82,-50.78,-901.86,478.03,-1.17,2.63,-1.63,-461.10
36841,800.05,773.62,757.63,768.11,774.85,-52.25,-893.07,482.91,-0.54,1.11,-1.39,-460.42
36876,800.08,773.69,757.59,768.28,774.91,-49.32,-902.34,483.89,-0.78,0.60,-1.59,-464.65
36911,800.13,773.68,757.61,768.20,774.90,-50.78,-905.76,483.40,0.67,0.84,-0.46,-463.04
36948,800.10,773.72,757.64,768.19,774.91,-54.20,-909.67,479.98,-0.66,1.20,-0.56,-462.29
36983,800.10,773.68,757.57,768.12,774.87,-45.41,-902.34,473.63,-0.50,0.05,-0.15,-462.69
37018,800.18,773.71,757.69,768.18,774.94,-41.50,-904.79,474.61,-2.44,-0.50,-0.63,-461.13
37053,800.11,773.71,757.65,768.22,774.92,-43.46,-895.51,482.42,-1.45,0.76,-0.87,-462.58
37088,800.12,773.72,757.67,768.20,774.93,-39.06,-899.41,491.21,-0.84,1.81,1.00,-461.90
37123,800.23,773.70,757.61,768.20,774.94,-51.27,-904.30,476.56,0.49,0.24,-1.56,-463.65
37160,800.21,773.71,757.61,768.13,774.91,-59.57,-896.00,481.45,-0.35,-0.95,-0.81,-462.60
37195,800.15,773.82,757.67,768.22,774.97,-45.41,-905.27,481.45,2.13,0.37,-1.35,-463.14
37231,800.15,773.76,757.63,768.18,774.93,-50.78,-909.67,491.21,0.01,0.31,-1.07,-463.04
37266,800.22,773.66,757.62,768.13,774.91,-40.04,-892.09,474.12,-1.26,2.14,0.18,-461.98
37300,800.22,773.71,757.63,768.18,774.94,-47.36,-897.46,481.45,1.92,0.66,0.41,-462.87
37338,800.31,773.66,757.68,768.27,774.98,-44.43,-903.81,480.96,0.33,1.50,-1.23,-462.76
37373,800.33,773.65,757.62,768.22,774.96,-54.69,-907.71,486.82,-1.39,0.91,0.21,-463.62
37408,800.35,773.70,757.60,768.19,774.96,-41.50,-911.13,475.59,-1.96,0.69,-2.35,-464.09
37443,800.45,773.69,757.65,768.18,774.99,-53.22,-896.97,479.49,-1.56,0.32,-0.76,-463.05
37478,800.47,773.68,757.72,768.13,775.00,-54.69,-897.46,478.52,-1.26,0.82,-0.67,-460.57
37513,800.48,773.64,757.70,768.15,774.99,-54.69,-903.32,475.59,0.85,-0.56,-2.05,-461.18
37550,800.49,773.62,757.68,768.23,775.01,-60.06,-907.23,486.33,1.64,1.06,0.00,-462.52
37585,800.49,773.72,757.61,768.14,774.99,-51.27,-893.55,474.12,-0.55,1.65,-1.92,-463.65
37620,800.50,773.76,757.65,768.19,775.03,-52.73,-903.81,483.40,-1.02,1.61,-0.66,-463.87
37655,800.49,773.76,757.67,768.25,775.04,-53.71,-899.90,484.37,0.16,2.86,-2.70,-464.21
37690,800.50,773.78,757.63,768.19,775.03,-58.11,-896.97,490.72,1.15,-1.87,0.74,-464.38
37725,800.51,773.76,757.68,768.19,775.04,-60.55,-891.11,486.33,-2.24,-2.35,-0.48,-463.27
37762,800.56,773.68,757.66,768.21,775.03,-45.90,-904.30,492.19,0.51,1.31,0.13,-463.51
37797,800.65,773.70,757.71,768.22,775.07,-55.18,-909.67,486.82,2.04,1.44,-0.60,-462.67
37832,800.60,773.74,757.65,768.19,775.05,-56.15,-895.51,494.63,-1.19,0.33,0.38,-463.85
37867,800.60,773.66,757.65,768.11,775.01,-52.73,-904.30,489.26,-2.27,-1.46,0.71,-462.25
37902,800.68,773.69,757.64,768.17,775.05,-44.43,-907.23,492.19,1.39,-0.47,-1.35,-463.80
37936,800.72,773.69,757.65,768.09,775.04,-51.76,-901.37,480.96,-1.02,-2.01,-2.82,-462.50
37974,800.64,773.67,757.69,768.19,775.05,-48.34,-898.44,477.05,0.12,1.55,0.36,-462.49
38009,800.64,773.74,757.66,768.17,775.05,-48.34,-895.02,489.75,-0.13,-1.16,-2.05,-463.65
38043,800.60,773.67,757.64,768.15,775.02,-50.29,-902.83,470.70,0.94,-0.85,-2.60,-463.13
38078,800.61,773.63,757.61,768.19,775.01,-50.78,-905.76,490.72,1.26,-1.61,-0.81,-464.15
38113,800.55,773.63,757.63,768.15,774.99,-52.73,-896.00,481.93,1.21,0.14,1.06,-462.90
38151,800.54,773.59,757.63,768.18,774.98,-56.15,-900.39,472.17,1.50,0.62,-0.85,-462.98
38186,800.49,773.56,757.60,768.08,774.94,-53.22,-904.79,485.35,-0.19,-0.80,1.38,-461.80
38221,800.44,773.62,757.67,768.10,774.96,-46.88,-905.27,476.07,-1.16,1.67,-0.78,-460.79
38256,800.54,773.62,757.67,768.17,775.00,-49.80,-909.18,479.00,-0.31,-0.15,-0.45,-462.13
38291,800.51,773.56,757.62,768.10,774.95,-50.78,-896.00,484.37,-1.21,-0.53,0.52,-461.61
38325,800.47,773.63,757.64,768.13,774.96,-44.43,-903.81,478.03,0.27,-0.54,-2.34,-462.05
38363,800.46,773.69,757.58,768.15,774.97,-53.71,-912.60,485.84,0.57,2.90,-2.44,-464.17
38397,800.33,773.70,757.57,768.20,774.95,-41.99,-905.27,474.61,-0.92,0.19,-0.27,-465.01
38432,800.27,773.74,757.57,768.14,774.93,-46.39,-901.37,491.70,-0.98,-0.85,-1.31,-464.20
38467,800.17,773.71,757.67,768.20,774.94,-46.39,-906.25,481.45,-0.99,2.02,-1.66,-461.97
38502,800.20,773.75,757.66,768.27,774.97,-56.15,-911.62,480.47,-0.98,1.44,-3.11,-463.55
38537,799.92,773.79,757.62,768.25,774.90,-62.50,-890.62,483.89,-1.04,0.76,-1.02,-463.65
38574,800.03,773.78,757.67,768.23,774.93,-40.53,-905.76,488.28,0.85,0.05,0.10,-462.48
38609,800.00,773.79,757.63,768.29,774.93,-56.64,-902.83,483.40,0.15,-0.20,-0.49,-464.31
38644,800.06,773.79,757.61,768.30,774.94,-46.88,-896.00,483.40,-0.70,1.50,-1.08,-465.22
38678,800.01,773.86,757.65,768.26,774.95,-55.18,-897.46,478.03,-0.84,0.45,-0.25,-463.98
38713,799.96,773.83,757.62,768.29,774.93,-49.32,-899.90,483.89,0.26,-0.69,2.21,-464.72
38748,800.01,773.86,757.71,768.33,774.98,-31.74,-896.00,473.63,-2.18,-1.10,-0.89,-463.70
38785,800.02,773.84,757.59,768.30,774.93,-51.27,-906.74,476.56,-0.06,-1.28,0.16,-465.93
38820,800.02,773.73,757.67,768.30,774.93,-36.62,-908.20,485.35,0.44,-0.53,1.53,-463.05
38855,800.02,773.78,757.65,768.24,774.92,-59.08,-893.07,486.82,-0.74,0.27,-0.34,-463.23
38889,800.18,773.76,757.68,768.31,774.98,-57.13,-895.02,493.65,-1.06,-2.47,-2.40,-463.71
38924,800.25,773.72,757.62,768.21,774.95,-36.13,-892.58,474.61,-2.04,1.08,-0.64,-463.62
38962,800.25,773.65,757.69,768.26,774.96,-50.78,-907.23,488.28,-1.00,-1.45,0.60,-462.26
38996,800.24,773.67,757.61,768.19,774.93,-51.76,-899.41,492.68,0.87,0.18,-1.61,-463.15
39031,800.37,773.70,757.61,768.31,775.00,-48.83,-906.25,471.19,-1.58,-2.39,-0.44,-465.71
39066,800.37,773.72,757.68,768.23,775.00,-43.46,-905.27,478.03,-0.31,2.56,0.51,-462.95
39102,800.34,773.70,757.60,768.24,774.97,-57.62,-899.41,488.77,-0.09,-2.18,-1.62,-464.78
39136,800.29,773.67,757.64,768.19,774.95,-35.64,-902.83,491.21,-0.60,0.54,2.09,-462.66
39174,800.33,773.65,757.63,768.12,774.93,-47.36,-902.83,479.00,-1.27,-0.20,-0.03,-461.98
39209,800.33,773.68,757.57,768.21,774.95,-52.25,-903.81,489.26,0.69,-0.65,-3.39,-464.73
39243,800.33,773.67,757.58,768.23,774.95,-49.80,-897.95,489.75,0.76,1.40,-0.97,-464.96
39278,800.37,773.60,757.62,768.17,774.94,-43.46,-895.51,483.89,-0.05,-0.67,-0.16,-462.51
39313,800.26,773.65,757.64,768.18,774.93,-48.34,-901.86,486.82,-1.06,-1.40,-0.53,-462.13
39348,800.20,773.62,757.60,768.19,774.90,-51.27,-893.55,479.98,0.30,-1.51,-1.14,-463.03
39385,800.15,773.63,757.61,768.09,774.87,-54.20,-896.97,476.56,-1.37,-0.12,0.15,-461.22
39419,800.21,773.62,757.59,768.18,774.90,-48.34,-912.60,491.70,0.28,0.60,0.07,-463.15
39454,800.17,773.65,757.65,768.23,774.93,-51.76,-919.43,491.70,-0.37,0.32,0.47,-462.28
39488,800.14,773.62,757.60,768.11,774.87,-53.22,-896.97,497.56,-0.69,3.37,0.30,-461.56
39523,800.09,773.64,757.65,768.19,774.90,-62.50,-896.48,480.96,-0.57,-3.11,-0.89,-461.56
39557,800.08,773.63,757.70,768.15,774.89,-42.48,-899.41,471.19,-0.65,0.21,0.05,-459.50
39595,800.11,773.63,757.60,768.15,774.87,-42.97,-904.79,488.28,-0.44,-0.51,0.15,-462.14
39629,800.08,773.64,757.66,768.19,774.89,-59.08,-896.00,485.84,0.02,-0.18,-1.21,-461.37
39664,799.98,773.63,757.64,768.15,774.85,-53.22,-895.02,478.52,-2.18,0.66,-0.53,-460.57
39698,799.95,773.53,757.61,768.19,774.82,-64.45,-905.27,487.79,2.05,1.18,0.79,-461.16
39733,799.94,773.60,757.65,768.11,774.83,-40.04,-905.76,479.49,-1.61,1.29,-0.71,-459.48
39767,800.00,773.62,757.57,768.19,774.85,-52.25,-901.37,480.96,0.09,2.27,1.41,-463.05
39804,799.98,773.64,757.65,768.20,774.87,-48.83,-893.55,486.33,-0.82,0.98,0.36,-461.14
39839,799.92,773.63,757.58,768.20,774.83,-44.43,-903.32,486.33,0.98,1.33,-0.82,-462.72
39874,799.79,773.60,757.64,768.12,774.79,-39.55,-897.95,481.93,-0.71,-0.09,-2.66,-459.41
39909,799.73,773.55,757.59,768.10,774.74,-49.80,-892.58,472.66,-0.45,0.44,-3.60,-459.88
39943,799.76,773.55,757.64,768.09,774.76,-55.66,-896.48,480.47,-2.60,-0.26,-0.44,-458.39
39981,799.70,773.45,757.53,768.07,774.69,-44.43,-904.79,484.37,0.14,0.59,0.98,-459.77
40016,799.60,773.47,757.58,768.05,774.68,-41.50,-905.76,482.42,-0.31,-1.17,-3.07,-458.22
40051,799.65,773.45,757.61,768.03,774.68,-46.88,-901.37,485.84,-1.95,-0.66,0.15,-457.21
40086,799.66,773.48,757.58,768.10,774.71,-47.36,-898.93,486.82,-1.21,-1.59,-0.92,-459.12
40121,799.52,773.48,757.51,768.11,774.66,-54.69,-905.27,479.98,-0.22,0.47,0.17,-460.44
40155,799.51,773.52,757.57,768.12,774.68,-55.66,-902.34,473.63,-1.08,-1.45,-0.52,-459.57
40193,799.46,773.46,757.64,768.08,774.66,-52.25,-895.51,481.45,0.33,2.94,-1.36,-456.45
40228,799.55,773.50,757.64,768.08,774.69,-48.83,-901.86,482.42,-0.29,0.09,-1.27,-457.18
40262,799.57,773.52,757.63,768.11,774.71,-50.29,-905.27,476.07,-0.99,1.90,-0.63,-458.11
40297,799.74,773.51,757.64,768.18,774.77,-50.29,-903.81,479.00,0.03,1.79,-0.83,-459.32
40332,799.86,773.64,757.64,768.21,774.84,-38.09,-890.62,479.49,-0.96,1.47,-2.63,-461.17
40367,799.87,773.61,757.59,768.32,774.85,-58.59,-897.95,487.30,0.15,1.63,-0.18,-463.78
40404,799.71,773.62,757.63,768.28,774.81,-59.08,-900.88,483.40,-3.99,0.34,0.02,-461.88
40439,799.22,773.63,757.66,768.27,774.69,-54.69,-901.37,474.12,-0.41,1.27,-0.40,-459.41
40474,798.78,773.58,757.62,768.29,774.57,-41.99,-911.62,489.26,-1.55,-0.45,-0.33,-458.58
40509,798.51,773.68,757.63,768.37,774.55,-43.46,-912.11,480.96,0.09,0.33,-1.66,-459.48
40543,798.64,773.74,757.67,768.39,774.61,-58.11,-902.34,483.40,-2.05,1.31,-1.69,-459.78
40578,799.19,773.78,757.64,768.56,774.79,-62.50,-903.81,495.61,0.09,1.27,-1.70,-464.99
40616,799.46,773.78,757.73,768.58,774.89,-63.48,-906.74,471.19,-0.44,0.26,-0.33,-464.15
40650,799.62,773.76,757.66,768.49,774.88,-47.85,-903.81,492.68,0.95,0.06,-0.64,-464.88
40685,799.73,773.80,757.67,768.54,774.94,-45.90,-902.83,485.84,-0.93,-0.63,0.88,-466.16
40720,799.82,773.82,757.61,768.50,774.94,-54.20,-898.93,468.26,-2.59,3.18,-1.36,-467.43
40755,799.89,773.94,757.57,768.50,774.98,-46.39,-898.93,489.26,-0.69,-1.58,-2.14,-469.66
40798,799.93,774.02,757.63,768.45,775.01,-55.66,-895.51,479.49,-2.23,1.45,-1.97,-468.17
40832,799.75,773.92,757.69,768.46,774.96,-48.34,-903.32,488.28,-1.82,-1.86,-1.08,-465.59
40867,799.55,774.05,757.65,768.44,774.92,-47.85,-906.74,496.09,-1.02,-1.24,0.01,-466.60
40902,799.56,774.06,757.71,768.52,774.96,-42.48,-896.97,483.40,0.45,-1.10,-1.01,-466.34
40938,799.71,774.13,757.63,768.50,774.99,-60.06,-904.30,485.84,0.27,3.15,1.25,-469.15
40972,799.79,774.25,757.67,768.66,775.09,-54.20,-915.04,478.03,1.91,1.00,-1.33,-471.71
41012,799.74,774.29,757.70,768.77,775.13,-44.43,-902.34,478.52,0.96,0.95,0.08,-472.81
41046,799.53,774.33,757.71,768.76,775.08,-32.71,-901.86,482.42,-1.96,-0.36,-2.69,-472.06
41081,799.12,774.42,757.70,768.80,775.01,-42.97,-905.27,493.16,0.08,-1.35,-0.10,-472.30
41115,798.97,774.47,757.68,768.87,775.00,-53.22,-908.69,478.52,-1.49,-0.74,-1.67,-473.53
41150,798.79,774.42,757.71,768.80,774.93,-49.80,-889.16,476.56,-0.07,0.63,-1.62,-470.64
41184,798.52,774.44,757.76,768.81,774.88,-49.80,-908.69,488.28,-1.60,-1.37,0.51,-468.88
41222,798.35,774.38,757.73,768.80,774.82,-40.53,-896.97,472.66,0.63,-0.28,-1.53,-468.33
41257,798.33,774.36,757.72,768.83,774.81,-49.80,-893.55,482.91,-0.04,-0.34,0.09,-468.98
41291,798.27,774.39,757.73,768.87,774.82,-55.18,-907.23,481.93,-1.32,-2.21,-2.18,-469.34
41326,798.24,774.40,757.67,768.77,774.77,-43.95,-906.25,482.42,-1.73,-2.51,-1.35,-469.39
41361,798.17,774.42,757.73,768.97,774.82,-42.97,-905.76,482.42,-0.19,-0.37,0.37,-470.57
41395,798.22,774.43,757.68,768.88,774.80,-42.97,-906.74,488.28,-0.49,-0.56,-1.08,-470.68
41432,798.17,774.42,757.77,768.89,774.81,-53.71,-901.86,475.10,-0.31,2.17,-2.38,-468.51
41467,798.16,774.38,757.72,768.81,774.77,-52.25,-902.83,479.49,1.40,2.71,0.15,-468.06
41502,798.23,774.43,757.78,768.88,774.83,-46.39,-902.83,475.10,0.34,-0.34,0.34,-468.29
41537,798.18,774.30,757.69,768.82,774.75,-49.32,-906.74,475.10,-3.33,-0.72,-0.62,-468.45
41572,798.21,774.28,757.68,768.76,774.73,-42.48,-897.46,486.33,-0.23,2.37,1.76,-467.84
41610,798.41,774.20,757.63,768.75,774.75,-50.29,-897.46,469.24,-0.78,0.31,2.37,-469.11
41645,798.47,774.18,757.70,768.75,774.78,-50.78,-893.55,484.86,1.47,0.46,-1.89,-467.23
41679,798.32,774.20,757.73,768.58,774.71,-53.22,-912.11,485.84,-0.38,-2.18,-1.89,-463.75
41714,798.19,774.10,757.68,768.61,774.64,-45.41,-894.53,486.33,-1.91,2.71,-0.27,-464.07
41750,798.10,774.16,757.71,768.69,774.66,-44.92,-899.41,480.96,-0.76,-0.37,-2.50,-464.69
41784,798.19,774.19,757.69,768.61,774.67,-49.80,-913.57,480.47,0.97,-1.24,0.37,-464.60
41823,798.22,774.21,757.72,768.65,774.70,-46.39,-904.30,484.86,0.36,-3.32,-1.66,-464.67
41858,798.25,774.13,757.71,768.70,774.70,-51.76,-891.60,486.33,0.84,2.11,-1.20,-465.12
41893,798.19,774.19,757.73,768.71,774.71,-46.39,-906.25,488.28,-2.16,1.80,2.03,-465.16
41928,798.02,774.17,757.70,768.76,774.66,-52.25,-896.97,480.96,-0.50,0.00,-3.19,-465.74
41963,798.03,774.17,757.71,768.70,774.65,-54.20,-894.53,481.45,0.31,0.76,-2.52,-464.79
41998,798.04,774.12,757.65,768.69,774.62,-35.16,-897.95,475.10,-1.15,-0.66,-0.25,-465.55
42035,798.07,774.09,757.69,768.77,774.66,-46.88,-893.55,485.35,0.20,2.38,-1.10,-465.69
42070,798.05,774.04,757.71,768.72,774.63,-41.50,-913.09,470.21,-2.15,0.21,-1.33,-463.93
42105,797.94,774.05,757.77,768.65,774.60,-45.41,-905.76,479.00,0.10,1.95,-1.89,-461.16
42140,797.93,774.10,757.68,768.69,774.60,-41.02,-909.18,484.86,-0.06,-0.57,1.55,-464.29
42175,797.93,774.07,757.76,768.72,774.62,-54.69,-897.46,477.05,-0.18,1.43,-1.63,-462.53
42210,797.88,774.09,757.72,768.71,774.60,-49.80,-893.55,484.86,0.08,0.76,1.06,-463.54
42248,798.02,774.11,757.68,768.75,774.64,-50.29,-919.92,475.10,0.47,3.05,-0.70,-465.70
42282,798.15,774.08,757.73,768.75,774.68,-57.13,-895.02,472.17,0.72,1.92,-2.40,-464.62
42318,798.24,774.11,757.69,768.72,774.69,-43.95,-903.81,479.98,0.22,0.47,-1.81,-465.75
42353,798.40,774.06,757.71,768.75,774.73,-41.99,-900.39,492.19,-0.05,3.03,1.24,-465.70
42387,798.37,774.05,757.70,768.65,774.69,-50.78,-902.83,485.35,0.42,-0.75,-0.89,-464.34
42422,798.45,774.04,757.73,768.69,774.73,-41.99,-900.88,487.30,0.09,-0.57,-0.25,-464.55
42460,798.43,774.12,757.67,768.70,774.73,-54.69,-916.02,461.43,2.96,-2.17,0.24,-466.64
42495,798.16,774.16,757.80,768.75,774.71,-52.73,-901.86,461.43,0.76,-1.54,0.31,-463.48
42530,798.22,774.21,757.72,768.78,774.73,-42.97,-889.65,486.33,1.11,0.12,-0.57,-466.47
42565,798.29,774.33,757.68,768.89,774.80,-50.78,-897.95,483.40,0.14,2.89,-1.13,-470.22
42600,798.27,774.32,757.70,768.80,774.77,-51.76,-903.32,488.28,-0.97,0.97,-0.16,-468.47
42637,798.21,774.36,757.73,768.87,774.79,-44.43,-897.46,493.16,-2.23,0.48,0.93,-468.83
42672,798.33,774.42,757.72,768.91,774.85,-48.34,-905.76,479.00,-0.58,-0.82,-1.70,-470.58
42707,798.61,774.43,757.79,768.88,774.93,-45.90,-892.09,477.05,-0.52,-0.64,-1.21,-469.40
42742,798.71,774.43,757.73,768.85,774.93,-46.88,-894.53,483.89,1.13,-0.29,1.38,-470.94
42777,798.52,774.41,757.74,768.86,774.88,-46.39,-906.25,485.84,-0.38,-1.00,-1.54,-469.78
42812,798.55,774.37,757.76,768.84,774.88,-57.13,-900.88,491.70,1.02,1.06,0.24,-468.79
42850,798.49,774.40,757.74,768.80,774.86,-42.97,-891.60,476.56,-1.69,-3.14,-0.79,-468.63
42885,798.53,774.27,757.79,768.83,774.86,-49.80,-899.90,486.33,0.54,1.82,-0.61,-467.03
42920,798.33,774.40,757.69,768.90,774.83,-42.48,-893.55,480.96,-2.57,-2.82,-1.91,-471.04
42954,798.34,774.41,757.68,768.94,774.84,-41.02,-895.02,477.54,-1.44,-0.11,-0.48,-472.11
42989,798.31,774.46,757.75,768.95,774.87,-39.55,-905.76,481.45,0.10,0.84,-3.46,-470.57
43024,798.35,774.44,757.71,769.01,774.88,-53.71,-896.00,483.89,0.03,-0.42,-1.90,-472.35
43061,798.08,774.48,757.64,768.97,774.79,-54.69,-902.83,487.79,-0.02,0.97,0.23,-472.86
43096,798.08,774.48,757.73,769.07,774.84,-58.11,-902.34,479.98,-0.62,0.34,0.76,-472.38
43131,798.17,774.57,757.76,769.07,774.89,-39.55,-888.18,495.61,0.75,2.00,-0.15,-472.44
43166,798.34,774.56,757.73,768.98,774.90,-45.41,-906.25,492.68,1.66,2.39,-1.25,-472.47
43201,798.36,774.57,757.80,769.04,774.94,-47.36,-903.32,495.12,-0.84,-0.09,-0.37,-471.93
43236,798.20,774.53,757.71,768.95,774.85,-34.18,-902.83,478.03,0.45,1.92,-1.50,-471.80
43273,798.30,774.42,757.77,768.96,774.86,-43.95,-905.76,479.49,-0.33,0.32,-0.10,-469.99
43308,798.31,774.45,757.78,768.89,774.86,-46.88,-893.07,482.42,-0.11,1.57,-0.68,-469.05
43343,798.08,774.48,757.76,768.96,774.82,-52.25,-896.97,485.35,-1.88,0.79,-4.04,-470.05
43378,798.00,774.41,757.73,769.02,774.79,-60.55,-890.62,484.86,-0.58,-0.55,-0.13,-470.71
43413,798.11,774.48,757.77,769.12,774.87,-44.43,-896.48,472.66,0.34,-0.17,-0.69,-471.99
43450,798.14,774.52,757.75,769.06,774.87,-41.99,-894.04,485.84,0.66,-2.79,-1.06,-472.37
43485,798.19,774.47,757.75,769.03,774.86,-44.43,-898.93,483.89,2.76,-1.52,-2.01,-471.48
43520,798.33,774.57,757.74,769.02,774.92,-57.62,-902.34,476.56,-1.15,2.03,-2.08,-472.76
43555,798.48,774.59,757.74,768.99,774.95,-52.73,-897.46,492.68,-1.02,-0.80,-1.58,-473.04
43590,798.43,774.46,757.64,768.99,774.88,-45.90,-905.27,484.37,-0.83,-0.04,1.17,-474.29
43625,798.26,774.47,757.76,768.95,774.86,-58.11,-906.25,485.84,0.76,1.84,-1.53,-470.22
43663,798.21,774.39,757.77,769.00,774.84,-51.27,-897.95,481.45,-0.14,0.07,-1.80,-469.97
43698,798.25,774.51,757.71,768.98,774.86,-41.50,-902.83,484.86,-1.08,3.20,1.07,-472.21
43733,798.24,774.57,757.84,769.02,774.92,-47.36,-906.74,480.47,-1.41,1.41,0.10,-470.09
43768,798.18,774.54,757.76,769.04,774.88,-48.83,-892.58,476.56,-0.85,-1.08,-0.60,-472.02
43803,798.05,774.60,757.75,769.00,774.85,-45.90,-898.93,473.63,-1.01,-1.15,-0.96,-471.70
43838,797.98,774.61,757.86,769.07,774.88,-51.76,-899.90,484.37,0.62,-0.49,-1.41,-469.66
43876,797.91,774.56,757.81,768.99,774.82,-41.50,-899.90,476.56,0.49,0.56,-3.31,-469.23
43911,797.89,774.56,757.76,769.07,774.82,-36.13,-904.79,477.54,-1.42,0.36,-0.89,-471.44
43945,797.93,774.58,757.81,769.16,774.87,-45.41,-902.83,480.96,-0.28,-0.01,0.86,-471.89
43980,797.96,774.51,757.86,769.23,774.89,-47.85,-896.48,483.40,0.21,-1.19,1.02,-471.21
44016,797.85,774.50,757.80,769.24,774.85,-41.02,-884.28,496.58,-0.91,-3.78,-2.34,-472.37
44051,797.96,774.52,757.78,769.30,774.89,-50.78,-901.37,490.23,0.27,2.42,-0.48,-474.14
44088,797.84,774.51,757.81,769.17,774.83,-42.48,-911.62,483.40,-0.05,2.68,-1.15,-471.10
44123,797.94,774.51,757.81,769.17,774.86,-43.95,-901.37,489.26,-1.59,-0.76,-1.70,-471.40
44158,798.11,774.56,757.71,769.14,774.88,-54.69,-903.32,477.05,-0.31,3.36,1.49,-474.44
44193,797.97,774.50,757.78,769.11,774.84,-52.25,-897.95,492.68,-1.08,2.24,-1.16,-471.46
44228,797.74,774.53,757.75,769.12,774.79,-42.97,-897.46,490.72,-0.10,0.38,2.45,-471.61
44266,797.50,774.51,757.82,769.08,774.73,-46.39,-899.41,477.54,-0.90,0.97,0.50,-468.53
44300,797.44,774.49,757.73,769.05,774.68,-53.71,-902.83,483.40,1.69,2.59,-1.93,-469.90
44335,797.48,774.57,757.79,769.20,774.76,-50.78,-903.32,484.37,1.47,-0.34,-0.29,-471.40
44370,797.60,774.58,757.72,769.14,774.76,-52.73,-902.34,480.47,0.05,0.93,-1.37,-472.58
44404,797.65,774.57,757.80,769.15,774.79,-62.50,-908.20,491.70,1.09,-0.49,-0.91,-470.88
44439,797.58,774.52,757.78,769.08,774.74,-41.99,-906.74,493.16,0.82,0.22,-2.22,-469.79
44477,797.68,774.50,757.79,769.06,774.76,-42.48,-916.50,481.93,-1.01,1.15,0.43,-469.51
44512,797.75,774.50,757.77,769.10,774.78,-34.18,-909.18,480.47,0.51,-0.24,-0.85,-470.79
44547,797.76,774.48,757.82,769.15,774.80,-37.11,-892.09,480.47,-0.97,2.63,-0.63,-470.09
44581,797.54,774.54,757.79,769.12,774.75,-38.09,-903.81,492.19,-1.66,0.62,-2.53,-470.17
44616,797.45,774.48,757.71,769.12,774.69,-56.64,-891.11,478.03,-0.69,1.54,0.69,-471.22
44651,797.49,774.53,757.77,769.08,774.72,-48.34,-893.07,481.45,-0.47,-0.62,-0.92,-469.87
44689,797.54,774.48,757.79,769.12,774.73,-63.48,-906.25,482.42,-0.56,0.59,-2.35,-469.83
44724,797.53,774.51,757.80,769.04,774.72,-51.27,-904.30,484.37,0.43,-0.33,-0.48,-468.38
44759,797.70,774.43,757.81,768.97,774.73,-40.04,-895.02,487.79,-0.41,2.28,0.73,-467.21
44794,797.92,774.36,757.81,768.78,774.72,-56.15,-909.67,472.66,-0.50,0.11,0.65,-464.61
44829,798.32,774.36,757.73,768.86,774.82,-41.99,-896.97,473.63,-1.43,2.55,-3.54,-469.17
44864,798.37,774.40,757.76,768.82,774.84,-55.66,-896.48,478.03,3.53,0.27,-2.66,-468.23
44902,798.59,774.40,757.71,768.84,774.88,-53.71,-901.86,471.68,-0.71,1.27,-0.57,-470.39
44937,798.52,774.41,757.67,768.86,774.87,-42.48,-904.79,484.86,0.05,0.31,0.40,-471.66
44972,798.42,774.45,757.74,768.87,774.87,-44.92,-899.90,494.63,-0.35,-1.51,-0.56,-469.91
45007,798.38,774.36,757.73,768.95,774.86,-38.09,-895.02,479.00,0.59,-1.11,0.13,-470.65
45041,798.34,774.44,757.73,768.95,774.87,-54.20,-900.88,486.33,0.33,0.44,-2.22,-471.19
45077,798.50,774.54,757.77,768.95,774.94,-54.69,-899.41,482.42,0.74,-0.02,0.06,-471.44
45114,798.57,774.56,757.78,768.95,774.97,-45.41,-898.44,500.00,0.03,1.81,-0.26,-471.46
45149,798.52,774.50,757.76,768.95,774.93,-56.15,-903.32,477.54,0.82,1.22,-1.32,-471.48
45184,798.38,774.55,757.76,768.83,774.88,-52.73,-901.86,484.86,-2.26,1.44,0.17,-469.67
45219,798.26,774.48,757.72,768.84,774.83,-48.83,-900.39,480.47,-1.40,1.68,-1.15,-469.66
45254,798.24,774.52,757.78,768.81,774.84,-47.85,-901.86,483.89,-0.12,3.55,-1.04,-468.06
45292,798.25,774.46,757.78,768.73,774.80,-52.25,-890.62,480.96,-0.47,-1.27,2.65,-466.29
45327,798.51,774.40,757.77,768.84,774.88,-47.85,-900.88,484.37,-0.37,1.51,-0.05,-468.70
45362,798.85,774.50,757.73,768.83,774.98,-57.62,-889.65,488.77,1.13,2.00,-0.52,-471.52
45397,798.88,774.48,757.75,768.89,775.00,-55.66,-899.90,480.47,-2.95,0.77,-1.30,-471.89
45432,798.76,774.58,757.79,768.92,775.01,-49.32,-907.71,481.93,-1.00,0.60,-1.02,-471.84
45467,798.34,774.57,757.75,768.99,774.91,-50.29,-908.20,494.14,1.02,-0.15,1.01,-472.16
45505,798.03,774.61,757.76,769.05,774.86,-50.78,-896.00,491.70,-0.71,0.16,-0.47,-472.13
45540,797.62,774.60,757.75,769.06,774.76,-50.78,-908.20,481.93,-2.27,0.42,-0.76,-471.14
45576,797.36,774.67,757.73,769.21,774.74,-42.48,-901.86,483.89,-2.37,0.00,-0.11,-473.44
45611,797.29,774.72,757.71,769.15,774.72,-57.62,-901.86,489.26,0.13,-1.59,-1.50,-473.11
45646,797.11,774.59,757.71,769.07,774.62,-51.76,-894.04,480.47,-0.63,1.27,0.72,-470.25
45681,797.09,774.53,757.81,768.93,774.59,-64.45,-897.46,487.79,-0.22,2.37,-1.72,-465.25
45719,796.91,774.40,757.75,768.89,774.49,-53.71,-893.55,476.56,1.04,2.27,0.59,-464.55
45754,796.92,774.33,757.72,768.74,774.43,-46.39,-892.09,489.26,0.45,0.01,0.15,-462.47
45789,797.16,774.24,757.71,768.68,774.45,-51.27,-904.30,482.42,-0.05,-0.21,-0.78,-462.00
45824,797.47,774.18,757.79,768.70,774.54,-44.92,-904.30,499.51,0.69,1.11,-1.48,-460.92
45859,797.47,774.11,757.68,768.68,774.49,-54.69,-879.88,486.82,1.01,-2.15,-1.23,-462.66
45894,797.55,774.17,757.78,768.65,774.54,-47.85,-904.30,474.12,0.40,1.74,0.22,-460.53
45932,797.42,774.06,757.67,768.67,774.46,-52.25,-902.34,468.26,-0.72,1.15,0.17,-462.22
45966,797.46,773.99,757.73,768.62,774.45,-53.22,-904.79,480.47,-0.29,0.73,-1.03,-459.58
46001,797.46,773.96,757.75,768.53,774.43,-47.36,-902.34,485.84,1.56,-0.30,1.59,-457.63
46036,797.50,773.98,757.68,768.46,774.41,-37.11,-901.37,489.75,-1.51,2.92,-1.93,-458.58
46071,797.71,773.91,757.67,768.41,774.43,-49.80,-914.06,481.93,-1.17,0.41,0.56,-458.32
46106,797.76,773.84,757.72,768.30,774.40,-61.04,-911.62,495.61,-0.65,0.57,2.51,-454.94
46144,797.83,773.81,757.70,768.23,774.39,-44.92,-893.07,489.26,-1.02,0.70,-1.34,-454.25
46179,797.88,773.77,757.73,768.13,774.38,-44.43,-895.51,479.98,0.24,2.41,1.37,-452.17
46213,797.88,773.85,757.69,768.04,774.37,-50.78,-901.37,482.91,-1.40,-0.75,0.21,-452.45
46248,797.88,773.75,757.65,767.90,774.29,-46.39,-894.53,484.37,-0.21,-0.71,0.36,-450.64
46283,798.00,773.81,757.65,767.86,774.33,-51.27,-909.18,486.33,-2.36,-1.85,-2.23,-450.83
46320,798.16,773.74,757.64,767.86,774.35,-41.99,-902.83,489.75,1.55,1.15,-0.83,-451.16
46355,798.19,773.72,757.67,767.82,774.35,-43.46,-905.27,478.52,-1.47,0.66,0.56,-449.70
46391,798.18,773.63,757.65,767.79,774.31,-48.83,-914.06,471.68,-1.53,-1.23,0.26,-448.77
46426,798.18,773.61,757.59,767.71,774.28,-42.97,-902.83,479.00,0.86,-1.56,-2.11,-449.07
46461,798.10,773.65,757.66,767.70,774.28,-52.25,-898.93,479.49,-1.37,1.71,-0.47,-447.20
46496,798.15,773.58,757.63,767.76,774.28,-60.55,-899.90,485.84,1.24,-1.56,-1.25,-448.61
46534,798.14,773.57,757.58,767.86,774.29,-60.06,-912.11,476.07,0.38,0.82,-1.98,-451.27
46569,798.04,773.65,757.58,767.86,774.28,-47.36,-893.07,476.56,-1.77,0.25,-0.76,-451.57
46604,797.86,773.66,757.66,767.88,774.26,-39.06,-902.34,494.63,-0.23,2.91,-1.34,-449.26
46639,797.80,773.71,757.68,767.91,774.27,-40.04,-895.02,482.91,-1.69,0.86,-0.18,-449.37
46674,797.69,773.81,757.63,767.92,774.26,-42.48,-903.81,476.56,-0.79,-0.54,0.22,-451.27
46709,797.63,773.87,757.72,767.97,774.30,-45.41,-908.20,479.98,0.30,-0.40,-1.76,-450.03
46747,797.60,773.84,757.68,767.92,774.26,-52.25,-898.44,482.42,-0.56,0.50,-0.33,-449.72
46782,797.60,773.89,757.63,767.94,774.26,-54.20,-905.76,481.45,0.69,-0.20,-0.80,-451.89
46817,797.40,773.94,757.71,767.96,774.25,-46.39,-895.02,487.30,-1.02,-0.34,0.62,-449.69
46852,797.32,773.87,757.66,767.96,774.21,-52.25,-908.20,482.91,-1.34,-1.88,-1.82,-450.30
46887,797.34,773.87,757.72,767.96,774.22,-41.02,-900.39,487.30,-0.66,1.18,-0.10,-448.82
46922,797.38,773.85,757.68,767.88,774.20,-49.32,-905.27,480.47,2.32,2.34,0.52,-448.57
46960,797.43,773.92,757.68,767.92,774.24,-50.29,-906.25,489.26,-0.06,-1.32,-2.68,-449.95
46995,797.52,773.94,757.69,767.95,774.28,-45.90,-899.90,483.40,0.44,-2.32,1.45,-450.62
47030,797.38,773.99,757.68,768.02,774.27,-51.76,-897.46,486.33,-0.25,2.49,1.47,-451.81
47065,797.44,774.02,757.68,768.03,774.30,-43.46,-894.53,477.54,-1.36,-0.79,0.72,-452.30
47100,797.52,773.98,757.73,768.05,774.32,-55.18,-900.88,479.49,1.57,1.57,1.35,-451.31
47138,797.45,773.97,757.66,767.97,774.26,-54.20,-905.76,465.33,-1.21,-1.06,-0.84,-451.61
47173,797.54,774.02,757.64,767.94,774.29,-48.34,-908.69,474.61,-1.70,-0.90,-1.54,-452.52
47208,797.58,773.87,757.62,768.01,774.27,-42.48,-901.37,482.91,-1.43,1.63,-0.57,-452.95
47243,797.69,773.91,757.60,767.90,774.27,-44.92,-895.51,468.75,-1.05,-1.66,-1.06,-452.28
47278,797.77,773.84,757.64,767.92,774.29,-52.73,-899.41,483.40,-1.31,0.85,0.92,-451.47
47313,797.75,773.87,757.62,767.87,774.28,-45.41,-908.69,477.54,-1.79,1.27,-1.48,-451.20
47351,797.78,773.94,757.63,768.00,774.34,-43.95,-907.71,473.14,-2.50,2.24,0.00,-453.71
47386,797.73,773.93,757.58,767.88,774.28,-51.27,-919.43,479.00,-1.17,1.33,0.26,-452.79
47421,797.62,773.91,757.62,767.94,774.27,-43.95,-900.39,484.37,0.79,-0.08,0.19,-452.35
47457,797.53,773.99,757.67,767.95,774.29,-44.92,-905.27,474.61,0.38,1.32,-0.07,-451.44
47492,797.48,773.96,757.66,768.00,774.27,-45.41,-915.53,475.59,0.07,1.16,-0.69,-452.18
47527,797.40,773.95,757.73,767.97,774.26,-54.69,-904.79,485.35,0.82,-1.92,1.17,-449.50
47565,797.46,774.00,757.69,767.87,774.25,-52.25,-916.02,491.21,-0.04,-0.33,-0.79,-449.57
47600,797.47,773.91,757.63,767.90,774.23,-51.27,-902.34,476.56,0.11,1.69,-1.33,-450.93
47634,797.36,773.94,757.66,767.87,774.21,-61.04,-914.06,475.59,-0.77,0.52,-0.50,-449.62
47669,797.41,773.96,757.64,767.94,774.23,-43.95,-905.27,484.86,0.34,-1.39,-0.37,-451.34
47704,797.40,773.94,757.63,767.85,774.21,-41.02,-898.93,470.70,0.08,1.49,-0.01,-450.34
47739,797.30,773.97,757.63,767.97,774.22,-53.71,-902.83,469.24,0.49,-1.45,0.37,-451.70
47777,797.20,774.00,757.63,767.99,774.20,-50.78,-903.32,488.77,-1.36,0.34,-1.64,-451.98
47812,797.24,774.01,757.75,767.97,774.24,-43.46,-893.55,482.91,0.21,-0.46,0.82,-448.94
47846,797.27,773.98,757.59,768.02,774.21,-60.55,-902.83,468.26,-1.13,-0.24,-2.37,-453.50
47881,797.18,774.06,757.67,767.97,774.22,-50.29,-910.16,469.73,-0.27,0.14,-0.40,-451.10
47915,797.10,773.95,757.61,768.01,774.17,-45.90,-910.64,480.96,-0.89,-1.50,0.63,-451.89
47953,797.11,774.00,757.65,768.01,774.19,-45.90,-901.37,490.23,-0.11,-0.89,0.07,-451.66
47988,797.06,774.00,757.66,767.96,774.17,-31.25,-910.16,480.96,0.13,-1.69,0.53,-450.50
48022,797.09,773.97,757.69,767.97,774.18,-45.90,-917.97,481.93,0.07,1.61,1.47,-449.56
48058,796.99,773.95,757.64,767.93,774.13,-44.92,-899.41,479.49,-0.97,-1.79,-0.81,-449.70
48092,797.17,773.94,757.74,767.91,774.19,-52.25,-907.71,478.52,-1.34,0.04,1.40,-447.48
48127,797.03,773.96,757.66,767.99,774.16,-44.92,-894.53,478.03,-0.52,-0.28,-2.90,-450.46
48165,797.09,774.02,757.65,767.91,774.17,-38.09,-896.48,482.91,1.09,4.10,-0.47,-449.98
48200,797.13,773.93,757.67,767.92,774.16,-44.43,-903.81,472.66,0.70,-1.98,-0.22,-449.23
48235,797.08,773.99,757.71,767.94,774.18,-53.22,-896.00,479.49,0.15,0.65,-2.08,-448.83
48269,797.20,773.93,757.66,767.89,774.17,-53.22,-900.88,471.68,-1.82,-3.56,-0.39,-449.36
48304,797.15,773.89,757.67,767.91,774.15,-39.55,-905.76,490.72,-1.32,-0.63,0.16,-448.73
48339,797.02,773.84,757.70,767.91,774.12,-54.69,-913.09,485.35,-2.11,-1.53,-1.24,-447.06
48377,797.13,773.83,757.67,767.82,774.11,-58.11,-903.81,473.63,-2.05,0.92,1.14,-446.85
48412,797.17,773.81,757.73,767.87,774.15,-58.59,-900.88,476.07,-0.27,1.11,-1.21,-446.24
48447,797.19,773.88,757.72,767.88,774.17,-42.48,-896.97,484.37,-0.90,0.48,1.45,-447.06
48482,797.19,773.93,757.71,767.94,774.19,-50.29,-900.88,483.40,1.53,2.40,-0.17,-448.61
48517,797.26,773.93,757.66,767.85,774.18,-60.06,-907.71,481.45,-0.26,-0.47,-2.06,-448.87
48552,797.22,773.91,757.64,767.83,774.15,-50.29,-889.65,469.24,-0.45,1.11,0.30,-448.93
48590,797.19,773.90,757.70,767.88,774.17,-54.20,-901.37,481.45,-0.27,-1.35,-2.62,-447.69
48624,797.06,773.87,757.74,767.90,774.14,-53.71,-896.48,466.31,0.47,-1.86,-0.34,-446.46
48659,797.13,773.90,757.72,767.86,774.15,-46.39,-897.46,477.54,-0.47,0.90,0.28,-446.78
48694,797.05,773.94,757.70,767.86,774.14,-53.71,-904.79,483.89,0.07,0.02,-1.07,-447.47
48729,797.10,773.97,757.67,767.92,774.16,-45.90,-908.20,477.54,-0.03,3.05,0.50,-449.48
48764,797.06,773.96,757.70,767.90,774.16,-52.25,-897.95,486.33,0.24,0.69,1.75,-448.10
48802,797.17,773.92,757.68,767.94,774.18,-42.48,-904.79,481.45,2.15,0.18,-1.16,-449.42
48836,797.21,773.95,757.63,767.94,774.18,-38.09,-903.32,489.75,-0.12,-0.04,-2.92,-450.81
48871,797.23,773.92,757.66,767.88,774.17,-53.71,-897.95,471.19,-0.14,0.71,-1.43,-449.05
48906,797.21,773.93,757.72,767.87,774.18,-52.73,-903.81,488.28,-0.80,1.44,-1.15,-447.60
48941,797.21,773.86,757.76,767.88,774.18,-46.88,-900.39,491.21,-0.36,2.12,0.08,-446.09
