currTime,s1,s2,s3,s4,s,AccX,AccY,AccZ,GyroX,GyroY,GyroZ,GRF
26,778.83,769.98,773.27,764.94,771.76,115.23,-937.50,361.82,-0.31,0.88,-1.86,77.77
60,778.75,770.06,773.30,764.98,771.77,112.30,-950.68,351.07,0.93,0.36,0.31,77.52
93,778.56,770.09,773.30,764.98,771.73,127.44,-948.24,353.03,-0.94,-1.82,1.09,78.02
127,778.54,770.05,773.40,764.99,771.74,114.75,-944.34,355.47,-0.84,1.75,0.74,80.57
161,778.36,770.13,773.41,765.16,771.77,122.56,-951.17,360.35,0.54,0.53,1.45,78.41
195,778.25,770.17,773.46,765.16,771.76,112.79,-950.68,358.40,1.38,-0.14,-0.75,79.72
229,778.20,770.24,773.42,765.16,771.75,125.49,-937.99,366.21,0.28,0.45,-0.48,78.30
263,778.14,770.25,773.47,765.11,771.74,126.95,-948.73,362.30,-0.44,0.44,-1.42,80.37
297,778.12,770.27,773.43,765.20,771.75,124.02,-957.03,358.40,-0.13,1.10,0.70,77.92
331,777.99,770.33,773.54,765.25,771.78,116.70,-939.45,351.07,2.32,0.05,-0.89,79.91
365,778.06,770.40,773.55,765.27,771.82,114.75,-940.92,364.75,-0.11,3.71,1.69,79.12
399,777.94,770.33,773.57,765.32,771.79,115.72,-944.34,361.33,-0.60,1.65,-0.47,79.89
433,777.93,770.39,773.54,765.30,771.79,112.79,-947.27,365.23,-0.03,-1.84,1.47,79.08
467,777.95,770.42,773.56,765.28,771.80,117.19,-942.38,365.72,2.03,0.26,1.17,79.56
501,777.92,770.38,773.67,765.29,771.82,107.42,-945.80,357.91,-1.20,-0.72,-1.96,82.55
536,777.92,770.39,773.55,765.29,771.79,114.26,-931.15,356.93,0.41,1.39,1.56,79.58
570,777.92,770.28,773.62,765.26,771.77,99.61,-952.15,364.75,-1.00,2.43,-2.06,82.58
604,777.93,770.40,773.58,765.20,771.78,116.21,-945.80,364.75,0.43,0.28,2.70,81.42
638,777.95,770.39,773.57,765.21,771.78,110.35,-929.20,366.70,1.44,1.33,2.75,80.95
672,777.90,770.31,773.54,765.20,771.74,108.40,-942.87,354.98,-0.37,0.95,0.33,81.39
706,777.96,770.32,773.51,765.23,771.76,110.84,-948.73,363.77,0.06,0.58,-1.41,79.78
740,777.89,770.41,773.57,765.22,771.77,121.58,-937.99,358.89,0.66,4.05,1.91,80.89
774,777.90,770.40,773.61,765.26,771.79,112.79,-947.75,369.63,0.00,1.13,1.47,81.41
808,777.91,770.43,773.63,765.24,771.80,123.54,-938.48,348.63,1.56,3.11,2.69,81.90
843,777.90,770.38,773.63,765.28,771.80,117.68,-950.20,349.12,-1.25,1.10,0.08,81.81
877,777.85,770.44,773.67,765.20,771.79,115.72,-948.24,365.23,1.15,1.60,-2.15,83.69
913,777.83,770.40,773.60,765.32,771.79,119.63,-957.03,349.12,0.13,2.73,1.37,80.60
947,777.74,770.36,773.62,765.24,771.74,119.14,-952.64,368.16,0.60,0.90,-3.63,82.63
981,777.75,770.41,773.60,765.25,771.75,127.93,-947.75,363.28,0.28,0.97,1.79,81.78
1015,777.81,770.38,773.60,765.27,771.77,101.56,-949.71,355.96,-0.05,1.44,1.01,81.23
1049,777.79,770.34,773.60,765.28,771.75,98.63,-952.64,367.68,1.56,1.05,-0.37,81.65
1083,777.92,770.34,773.59,765.30,771.79,99.61,-932.13,349.12,-0.42,-0.31,-2.24,80.72
1117,777.85,770.32,773.54,765.30,771.76,121.09,-954.59,356.93,-0.53,1.35,-2.05,79.86
1152,777.85,770.32,773.54,765.30,771.75,136.23,-940.43,356.93,-0.47,1.21,-1.21,79.90
1186,777.88,770.32,773.49,765.35,771.76,128.42,-934.57,366.21,-0.53,1.95,-0.51,77.91
1220,777.93,770.38,773.52,765.33,771.79,124.51,-940.92,366.70,-1.20,1.59,-0.18,78.28
1254,777.93,770.32,773.57,765.25,771.77,117.68,-935.55,373.54,0.84,0.93,-0.70,81.04
1288,777.93,770.36,773.52,765.22,771.76,112.79,-945.31,361.82,-0.02,-2.05,1.60,79.94
1322,778.04,770.33,773.52,765.23,771.78,118.65,-932.13,363.28,2.00,-0.06,-1.79,79.64
1356,778.02,770.35,773.52,765.22,771.78,131.35,-954.59,350.10,-1.06,1.32,-0.95,79.85
1390,778.06,770.29,773.55,765.18,771.77,112.79,-938.48,351.07,1.14,3.00,-0.16,81.46
1424,778.07,770.29,773.53,765.17,771.77,114.26,-948.73,358.89,-0.36,0.24,0.03,81.08
1458,778.04,770.33,773.50,765.19,771.76,121.58,-938.96,357.42,1.79,1.02,0.08,79.75
1492,777.93,770.25,773.46,765.12,771.69,125.00,-935.55,357.42,-0.94,-0.58,0.04,80.75
1525,777.96,770.26,773.51,765.15,771.72,109.86,-947.27,349.12,0.83,-0.26,2.49,81.36
1559,778.05,770.30,773.49,765.15,771.75,106.45,-948.24,365.23,2.67,0.99,-1.83,80.31
1592,778.18,770.22,773.52,765.23,771.79,112.79,-945.80,357.42,0.06,-0.60,-1.17,80.01
1626,778.25,770.39,773.50,765.09,771.81,126.46,-942.38,360.84,0.89,-1.63,1.00,80.11
1660,778.24,770.20,773.42,765.18,771.76,124.51,-949.71,359.86,0.44,1.20,-1.34,78.32
1694,778.28,770.20,773.42,765.08,771.74,115.23,-946.29,341.31,-1.40,1.65,0.89,79.69
1728,778.24,770.16,773.44,765.17,771.75,126.95,-942.38,364.26,3.48,-0.37,-0.09,79.30
1762,778.20,770.19,773.46,765.12,771.74,109.86,-938.48,357.42,0.86,-0.05,1.02,80.29
1795,778.19,770.13,773.41,765.12,771.71,115.23,-947.75,363.77,0.34,0.89,-0.66,79.44
1831,778.15,770.23,773.46,765.00,771.71,115.72,-951.17,367.19,0.97,2.53,0.08,82.01
1865,778.29,770.14,773.39,765.09,771.73,113.77,-950.68,365.72,1.20,0.67,0.83,79.19
1899,778.36,770.13,773.41,765.04,771.74,119.63,-951.17,359.37,1.56,0.99,0.50,80.14
1933,778.43,770.11,773.37,765.05,771.74,112.79,-944.34,354.00,1.11,2.08,-1.79,78.97
1967,778.40,770.14,773.39,764.95,771.72,100.59,-933.59,349.61,0.08,0.85,0.18,80.81
2001,778.33,770.13,773.34,764.99,771.70,112.30,-932.62,352.54,2.60,-0.21,1.11,79.32
2035,778.37,770.05,773.41,764.99,771.71,121.58,-937.01,360.84,1.00,-0.27,2.53,81.47
2069,778.44,770.11,773.41,764.98,771.73,118.65,-953.61,373.05,-1.79,2.94,2.08,80.87
2104,778.49,770.14,773.35,764.95,771.73,121.09,-958.98,350.10,1.10,2.34,-1.14,79.45
2138,778.61,770.07,773.36,764.96,771.75,111.82,-945.80,354.00,1.31,1.15,2.40,79.86
2172,778.61,770.10,773.32,764.88,771.73,118.65,-936.52,368.16,-1.13,-0.74,-0.33,79.62
2206,778.65,770.11,773.31,764.90,771.74,122.07,-942.87,367.68,-0.78,-0.18,0.67,78.86
2240,778.75,770.04,773.30,764.87,771.74,112.30,-939.94,360.84,1.76,1.45,-0.76,79.31
2274,778.75,770.02,773.25,764.86,771.72,111.82,-937.50,352.54,0.98,-0.33,-0.62,78.56
2308,778.80,770.14,773.22,764.87,771.75,106.45,-949.71,347.66,1.64,2.28,-2.57,76.41
2342,778.81,770.12,773.25,764.90,771.77,115.23,-950.20,362.30,-1.94,2.01,-3.41,76.92
2376,778.94,770.17,773.30,764.92,771.83,118.65,-952.64,351.56,0.17,2.60,0.93,76.75
2411,779.08,770.17,773.34,764.90,771.87,122.07,-940.92,364.26,-1.83,-0.83,0.60,77.80
2445,779.17,770.23,773.33,764.98,771.93,122.07,-950.68,363.28,2.24,0.41,2.67,75.49
2479,779.28,770.22,773.32,764.95,771.94,117.19,-942.38,359.86,-1.16,0.37,-1.78,75.42
2513,779.32,770.15,773.34,764.86,771.92,117.68,-944.34,347.17,0.39,0.28,1.47,77.68
2547,779.39,770.21,773.37,764.95,771.98,121.09,-939.94,353.52,-0.89,0.01,-1.58,76.40
2581,779.46,770.25,773.33,764.96,772.00,119.63,-954.10,369.63,0.93,-0.28,0.28,74.74
2615,779.38,770.23,773.29,764.87,771.94,125.98,-950.20,358.89,-0.69,0.46,0.63,75.56
2649,779.44,770.12,773.28,764.95,771.95,125.00,-949.22,359.37,-0.75,-2.05,1.22,74.60
2683,779.48,770.13,773.25,764.91,771.94,114.75,-937.99,364.75,0.89,0.01,-0.46,74.34
2718,779.46,770.13,773.21,764.91,771.93,124.02,-945.31,355.47,-0.45,3.89,0.62,73.38
2752,779.55,770.12,773.14,764.85,771.91,124.51,-925.78,358.89,0.90,0.02,-0.47,72.14
2787,779.54,770.10,773.18,764.86,771.92,127.44,-945.31,355.47,0.57,2.44,1.94,73.30
2822,779.47,770.08,773.13,764.83,771.88,120.12,-954.10,367.68,-0.24,-0.37,-1.17,72.90
2856,779.51,770.08,773.13,764.80,771.88,123.05,-932.13,366.70,1.59,0.82,-1.06,73.13
2890,779.44,770.03,773.10,764.75,771.83,110.84,-943.36,350.10,-1.15,1.92,-1.68,73.94
2924,779.40,770.05,773.08,764.77,771.83,118.65,-946.29,362.79,-1.00,1.65,0.63,73.03
2958,779.50,769.99,773.09,764.76,771.84,110.35,-938.96,365.23,-0.95,0.47,1.03,73.40
2992,779.46,770.01,773.09,764.77,771.83,110.84,-939.45,364.75,1.60,2.00,-0.96,73.30
3026,779.43,769.97,773.09,764.75,771.81,127.93,-952.64,367.68,2.26,-0.46,-1.56,74.04
3060,779.35,769.95,773.15,764.79,771.81,119.63,-937.50,365.23,-0.98,1.87,1.89,75.28
3094,779.27,769.93,773.13,764.76,771.77,121.09,-945.80,352.05,-0.27,0.85,0.30,75.82
3127,779.11,769.90,773.18,764.77,771.74,110.35,-945.31,349.61,1.31,0.03,-1.15,77.79
3161,779.23,769.87,773.10,764.84,771.76,125.00,-935.06,357.42,-0.36,1.77,1.62,74.59
3195,779.23,769.97,773.08,764.81,771.77,120.61,-942.87,354.49,1.45,1.81,-0.97,73.52
3228,779.21,770.03,773.14,764.79,771.79,125.49,-948.73,358.89,1.11,2.89,-0.94,75.00
3262,779.06,770.03,773.13,764.84,771.77,116.21,-944.82,354.00,-0.06,0.85,2.19,74.59
3296,779.04,769.97,773.20,764.84,771.76,118.16,-954.10,351.56,1.35,0.92,0.85,76.96
3330,778.97,769.98,773.19,764.89,771.76,109.86,-937.01,358.89,1.11,3.45,1.26,76.15
3364,779.00,770.04,773.15,764.87,771.77,114.75,-957.52,349.12,0.03,2.24,-2.41,74.79
3397,778.97,770.09,773.26,764.83,771.79,127.44,-935.55,364.75,-0.82,1.92,-1.30,77.81
3431,778.98,770.04,773.25,764.91,771.79,125.49,-944.82,359.37,2.62,0.63,2.12,76.71
3465,778.98,770.07,773.26,764.89,771.80,118.65,-932.13,359.86,1.11,2.16,-1.08,77.10
3499,779.04,770.06,773.20,764.91,771.81,115.23,-930.18,356.45,-0.78,-0.15,-2.04,75.08
3533,778.98,770.00,773.25,764.99,771.81,127.44,-944.82,357.42,-1.62,0.89,-0.66,75.90
3567,778.91,770.01,773.25,764.96,771.78,124.02,-936.04,370.12,1.83,2.17,-1.46,76.46
3601,778.97,770.07,773.24,764.96,771.81,114.75,-943.85,367.19,1.12,3.24,2.13,75.59
3635,778.94,770.03,773.20,764.96,771.78,124.02,-943.85,352.05,-2.98,3.17,-0.82,74.95
3669,779.03,770.02,773.23,764.92,771.80,112.30,-927.73,370.61,1.17,2.60,-0.47,76.11
3705,778.98,770.06,773.23,764.96,771.81,128.42,-958.50,351.56,1.48,3.39,1.34,75.27
3739,778.93,770.08,773.27,764.89,771.79,113.77,-953.12,374.51,-0.10,1.04,0.70,77.26
3773,778.90,770.10,773.20,764.99,771.80,116.21,-948.73,366.21,1.31,1.63,1.35,74.16
3807,778.83,770.16,773.21,764.98,771.80,114.75,-949.71,362.30,-1.74,1.40,0.72,74.40
3841,778.80,770.17,773.35,765.04,771.84,122.56,-937.99,366.21,1.05,-0.32,-0.16,76.77
3875,778.61,770.16,773.36,765.07,771.80,121.58,-944.82,362.79,-2.39,1.68,-0.19,77.36
3910,778.65,770.20,773.30,765.07,771.81,117.68,-948.73,346.68,-0.42,-0.52,0.92,75.51
3944,778.51,770.23,773.33,765.10,771.79,112.30,-944.82,361.82,0.98,3.44,2.65,75.94
3978,778.39,770.26,773.32,765.16,771.78,110.35,-938.48,364.26,-1.03,-3.54,1.79,75.17
4012,778.43,770.32,773.38,765.13,771.81,114.26,-948.73,357.42,0.41,0.59,1.82,76.55
4046,778.44,770.30,773.41,765.20,771.84,116.21,-951.17,359.86,0.37,3.68,1.86,76.33
4080,778.29,770.23,773.36,765.10,771.74,119.14,-943.85,350.59,0.68,-0.44,-0.61,77.47
4114,778.26,770.24,773.40,765.19,771.77,120.12,-948.24,363.28,-1.68,1.55,0.00,77.18
4148,778.18,770.28,773.39,765.18,771.76,110.35,-938.96,353.03,1.60,3.05,1.20,77.10
4182,778.17,770.11,773.38,765.08,771.69,120.12,-947.75,366.70,2.31,0.66,-1.22,79.58
4216,778.18,770.14,773.26,765.08,771.66,104.98,-944.34,364.75,-0.78,3.34,0.02,76.53
4250,778.21,770.07,773.09,765.07,771.61,121.58,-955.57,353.03,0.12,2.26,1.33,72.75
4284,778.24,770.00,773.03,764.87,771.53,116.21,-936.04,361.82,0.85,4.62,-0.24,74.82
4319,778.32,769.93,772.95,764.86,771.51,109.86,-940.43,353.52,1.02,-0.55,-0.71,73.13
4353,778.34,769.87,772.87,764.80,771.47,122.07,-950.68,365.72,3.18,0.50,-2.15,72.48
4387,778.44,769.85,772.73,764.71,771.44,115.72,-954.59,369.14,2.05,1.05,-2.56,70.12
4421,778.65,769.74,772.70,764.78,771.47,113.28,-930.18,349.12,-2.67,0.86,-0.66,68.51
4455,778.77,769.75,772.72,764.80,771.51,113.77,-950.68,353.03,-0.91,2.34,-0.46,68.07
4489,778.84,769.82,772.67,764.70,771.51,111.33,-940.43,365.72,0.50,1.98,2.69,67.52
4523,778.86,769.83,772.60,764.76,771.51,119.14,-941.89,380.37,-0.66,1.05,0.27,64.84
4557,778.90,769.75,772.62,764.68,771.49,124.51,-940.43,362.30,-2.47,1.08,0.96,67.07
4591,778.88,769.75,772.65,764.64,771.48,116.21,-938.96,355.47,-0.07,2.22,-0.76,68.32
4626,778.88,769.78,772.67,764.77,771.53,124.51,-947.75,362.30,2.55,1.69,1.35,66.92
4661,778.94,769.82,772.64,764.77,771.54,124.02,-939.45,368.65,0.38,0.37,-2.79,65.60
4696,779.04,769.85,772.71,764.77,771.59,111.33,-939.45,353.03,-0.07,1.43,3.64,66.62
4730,779.02,769.92,772.76,764.77,771.62,125.00,-936.04,369.63,0.32,0.06,1.29,67.36
4763,778.75,770.05,772.85,764.88,771.63,119.14,-946.29,370.12,0.63,1.02,0.33,67.90
4797,778.51,770.07,772.92,764.99,771.62,123.05,-942.38,358.40,-1.18,1.31,1.45,68.77
4830,778.45,770.21,773.02,765.12,771.70,111.33,-958.01,367.19,2.06,2.12,-0.33,68.25
4864,778.36,770.29,773.06,765.15,771.72,125.49,-945.31,369.14,0.04,2.89,1.11,68.64
4898,778.14,770.25,773.13,765.17,771.67,125.49,-951.66,373.05,0.53,-1.30,-0.48,71.06
4931,778.04,770.24,773.04,765.19,771.63,117.19,-946.78,374.51,0.10,1.73,2.77,68.89
4965,777.95,770.20,773.05,765.18,771.60,98.14,-948.73,346.68,1.27,-0.07,0.87,70.11
4999,777.87,770.17,773.06,765.12,771.56,105.47,-949.22,361.82,-1.29,1.69,0.84,71.75
5033,777.57,770.11,773.02,765.18,771.47,125.98,-940.43,370.61,2.25,2.06,1.37,71.31
5067,777.39,770.20,773.00,765.08,771.42,98.63,-948.24,356.93,1.02,-1.06,0.21,72.17
5101,777.19,770.20,773.00,765.04,771.36,140.14,-930.66,364.75,0.08,1.37,2.43,73.27
5134,776.85,770.22,773.11,765.08,771.32,123.05,-935.06,361.33,3.06,1.87,-1.50,76.55
5168,776.72,770.16,773.01,765.01,771.23,122.56,-941.41,357.42,0.43,-0.21,0.32,76.05
5202,776.66,770.10,773.01,765.00,771.19,99.61,-941.41,354.00,1.19,0.53,1.47,76.98
5236,776.56,770.19,772.93,764.94,771.15,108.89,-953.61,358.40,0.04,0.72,-0.27,75.50
5270,776.35,770.15,772.88,764.91,771.07,108.89,-929.69,351.07,3.31,3.89,0.10,75.58
5305,776.32,770.18,772.83,764.84,771.04,127.93,-952.15,348.14,-0.55,-0.21,-1.00,75.21
5339,776.04,770.11,772.82,764.84,770.95,114.26,-920.41,384.28,-1.74,2.61,2.26,76.52
5373,775.90,770.12,772.81,764.80,770.91,114.75,-933.11,374.51,-0.82,2.64,-0.06,77.22
5407,775.55,770.21,772.77,764.81,770.84,107.91,-974.61,351.07,1.78,1.66,1.29,76.71
5441,775.01,770.11,772.77,764.82,770.68,127.93,-952.15,347.17,1.47,0.66,0.72,78.99
5475,774.55,770.22,772.86,764.75,770.60,120.61,-944.34,360.35,-1.00,2.09,1.31,83.09
5509,773.87,770.18,772.88,764.85,770.45,119.14,-960.45,340.33,2.22,5.05,0.44,84.69
5543,773.27,770.16,772.90,764.92,770.31,-40.53,-979.98,407.23,-7.08,-7.60,-1.18,86.59
5579,772.67,770.20,773.01,764.98,770.21,141.60,-909.18,404.79,9.01,1.15,1.92,90.03
5613,772.21,770.31,773.09,765.04,770.16,108.40,-907.23,370.61,-2.91,4.56,0.72,91.75
5647,771.88,770.35,773.14,765.16,770.13,107.91,-952.15,335.45,-0.73,-3.54,0.72,92.11
5681,771.42,770.40,773.24,765.21,770.07,119.63,-929.20,374.51,1.37,2.89,1.62,95.28
5715,771.06,770.57,773.34,765.33,770.07,111.33,-959.96,359.37,-0.78,-0.32,-3.38,95.82
5750,770.71,770.53,773.48,765.42,770.03,112.30,-938.96,364.75,-2.28,2.03,1.56,99.54
5784,770.49,770.58,773.49,765.37,769.98,101.07,-987.79,338.38,3.60,4.21,-1.25,100.72
5818,770.38,770.58,773.49,765.42,769.97,120.61,-938.48,359.86,2.53,3.78,-1.76,100.39
5852,770.20,770.59,773.59,765.46,769.96,117.68,-937.50,357.42,-0.05,5.01,-0.56,102.72
5886,770.18,770.58,773.54,765.54,769.96,142.58,-921.39,383.30,-0.21,4.97,0.34,100.55
5920,770.14,770.59,773.57,765.60,769.98,132.32,-1005.86,339.36,9.60,3.66,2.38,100.47
5954,770.08,770.61,773.57,765.63,769.97,83.50,-911.62,361.33,8.03,6.52,-2.08,100.07
5988,770.19,770.68,773.58,765.60,770.01,105.47,-935.55,358.40,-1.05,-1.50,-0.79,99.98
6022,770.13,770.72,773.69,765.60,770.03,96.19,-954.59,375.00,4.85,2.95,-0.10,102.38
6057,770.05,770.80,773.70,765.59,770.03,113.77,-917.97,364.26,-0.63,-3.79,1.12,102.53
6091,769.95,770.86,773.80,765.71,770.08,105.96,-959.47,344.24,0.25,3.99,-4.07,102.95
6125,769.82,770.91,773.91,765.77,770.10,105.96,-958.01,373.54,1.73,0.91,1.14,105.14
6159,769.70,770.97,773.97,765.78,770.11,131.35,-937.99,363.77,1.47,3.31,1.57,106.26
6193,769.46,771.06,774.02,765.93,770.12,109.37,-958.98,357.91,0.00,1.84,1.08,105.48
6227,769.27,771.11,774.06,765.94,770.10,98.63,-985.84,319.82,-0.47,14.74,-4.09,106.57
6261,768.97,771.28,774.20,766.01,770.11,106.93,-906.25,404.30,4.04,0.47,-1.51,108.69
6295,768.56,771.41,774.35,766.05,770.09,15.14,-939.45,380.37,2.30,4.91,1.20,112.21
6329,767.93,771.47,774.63,766.26,770.07,139.65,-932.62,348.14,-7.56,-7.82,0.37,117.74
6364,767.42,771.67,774.83,766.35,770.07,139.16,-925.29,396.48,-7.52,-3.66,0.66,121.47
6397,766.88,771.73,775.05,766.47,770.03,116.21,-977.54,329.59,-2.42,4.52,1.15,126.51
6431,766.45,771.87,775.22,766.69,770.06,125.00,-946.29,386.23,0.92,4.31,2.02,127.98
6464,765.97,771.98,775.42,766.72,770.02,119.14,-947.75,383.30,1.14,5.63,0.18,133.28
6498,765.56,771.94,775.58,766.74,769.96,124.51,-953.61,355.96,2.95,1.56,-2.08,138.70
6533,765.27,771.99,775.81,766.76,769.96,117.19,-946.29,360.35,0.62,-0.25,2.44,144.50
6566,765.13,771.94,775.87,766.78,769.93,113.28,-942.87,352.54,2.26,0.72,3.00,146.62
6601,765.09,771.91,775.89,766.80,769.92,103.52,-940.92,361.82,1.87,-3.11,0.98,147.37
6635,764.91,771.95,775.89,766.81,769.89,109.37,-940.92,373.05,-2.28,0.94,1.69,147.52
6668,764.80,772.01,775.96,766.81,769.89,104.49,-947.27,373.54,0.31,2.94,0.20,149.12
6702,764.69,772.05,776.06,766.89,769.92,119.14,-943.85,354.00,1.81,3.47,-0.13,150.65
6736,764.53,772.07,776.10,766.88,769.90,105.47,-937.99,360.84,0.68,0.97,1.21,152.12
6770,764.41,772.00,776.06,766.85,769.83,123.54,-944.34,358.89,-0.18,0.02,-0.04,152.39
6803,764.26,771.91,776.01,766.81,769.74,115.72,-941.41,368.16,-0.44,-0.20,0.66,152.96
6838,764.01,771.70,775.92,766.75,769.60,104.00,-955.57,365.72,-0.38,3.15,1.60,154.25
6872,763.60,771.59,775.75,766.72,769.41,100.10,-939.45,350.10,-0.63,0.82,1.04,152.85
6906,763.09,771.08,775.50,766.55,769.05,107.42,-956.54,355.96,-2.04,2.71,-0.69,154.89
6940,762.63,770.39,775.08,766.20,768.58,108.89,-949.71,354.00,2.24,3.27,-0.24,156.73
6974,762.07,769.97,774.80,765.92,768.19,104.49,-932.13,376.46,0.41,0.81,-1.99,159.07
7008,761.17,769.77,774.42,765.70,767.76,110.35,-952.15,352.05,-1.07,0.37,0.17,157.57
7042,760.32,769.67,774.28,765.45,767.43,111.33,-939.45,346.19,-0.73,-0.57,-0.07,161.42
7076,759.80,769.63,774.09,765.48,767.25,108.89,-946.78,369.63,0.93,2.52,3.08,158.49
7110,759.49,769.69,774.12,765.38,767.17,119.14,-945.31,360.84,0.32,0.85,0.27,161.26
7145,759.77,769.85,774.20,765.34,767.29,114.26,-958.98,363.77,-2.09,3.54,-1.31,161.45
7179,760.44,770.08,774.43,765.55,767.62,102.05,-956.05,353.03,1.64,0.57,-0.49,160.18
7213,761.33,770.28,774.80,765.93,768.09,107.42,-944.34,346.68,5.11,1.69,-2.27,158.92
7247,762.71,770.68,775.14,766.36,768.72,108.40,-954.59,350.59,4.96,0.73,-0.97,153.26
7281,764.58,770.94,775.59,766.71,769.45,115.72,-955.57,358.40,0.96,-0.95,-1.79,150.89
7315,768.25,771.30,776.11,767.13,770.70,116.21,-925.29,353.52,-0.45,-2.25,-1.85,141.97
7349,775.87,772.10,776.71,767.48,773.04,126.95,-939.45,373.05,-0.44,-5.94,-3.61,119.07
7383,788.62,773.24,777.74,768.35,776.99,128.42,-941.41,377.44,0.40,-8.37,-0.39,79.36
7417,799.21,773.93,778.32,769.12,780.14,123.54,-960.45,344.73,-3.53,-2.64,-1.14,40.49
7453,804.01,774.06,778.22,769.08,781.34,125.98,-960.45,357.91,-4.11,-0.92,-0.69,20.93
7487,806.34,773.94,777.99,768.84,781.78,123.54,-958.50,344.24,-3.89,-0.70,-0.37,11.91
7522,808.06,773.73,778.05,768.67,782.13,134.28,-961.43,353.03,-1.23,1.94,-0.60,11.66
7556,808.10,773.51,778.19,768.75,782.14,122.56,-949.22,342.77,3.95,3.83,1.18,15.67
7590,806.79,773.45,778.51,768.88,781.91,138.67,-956.05,348.63,6.31,3.37,-1.27,26.53
7624,805.39,773.23,778.79,769.11,781.63,122.56,-949.22,349.12,2.15,2.97,-0.65,36.84
7658,804.27,773.13,778.86,769.23,781.37,120.12,-952.64,354.49,2.69,2.49,2.58,41.37
7692,803.34,773.14,778.97,769.28,781.18,125.00,-945.31,346.68,-4.83,1.84,0.78,46.63
7726,802.86,773.13,779.18,769.38,781.14,120.61,-958.01,349.12,-1.55,3.05,-0.93,52.01
7760,802.73,773.02,779.49,769.60,781.21,119.14,-955.57,341.31,0.30,2.44,-0.24,57.77
7794,802.44,772.96,779.87,769.91,781.29,112.30,-957.52,345.21,1.15,3.05,0.94,64.13
7828,802.08,772.64,780.09,769.87,781.17,113.28,-937.50,356.93,-1.97,0.97,-1.86,74.09
7863,799.95,772.11,780.10,769.55,780.43,131.84,-944.34,332.03,-0.33,1.06,1.93,90.42
7897,793.15,771.15,779.52,768.85,778.17,140.14,-971.68,340.82,-2.15,2.88,1.16,117.39
7931,779.75,769.86,778.32,767.70,773.91,132.81,-989.75,329.59,-4.53,5.07,1.32,160.83
7965,759.24,767.58,776.25,766.19,767.31,181.64,-1056.15,217.77,14.85,16.10,6.28,220.05
7998,752.26,764.43,774.26,764.22,763.79,213.87,-1366.70,833.50,-26.91,-26.37,40.30,248.60
8032,751.63,762.23,771.21,761.31,761.59,963.87,-2000.00,691.89,-189.44,13.21,110.93,235.48
8066,751.65,761.53,765.39,760.30,759.72,490.72,-1747.07,354.49,54.34,30.53,121.41,110.80
8099,751.64,761.21,763.02,759.70,758.89,804.20,-491.21,-581.05,160.66,155.08,41.68,63.33
8133,751.51,761.08,762.94,759.44,758.74,652.34,-763.18,-195.31,20.98,188.10,-39.62,66.66
8166,751.41,761.03,762.80,759.40,758.66,531.25,-730.47,-91.80,12.71,224.66,-60.99,64.43
8200,751.33,760.84,762.69,759.36,758.55,436.52,-869.14,-62.50,7.42,219.24,-88.54,63.86
8234,751.27,760.72,762.69,759.28,758.49,368.65,-1007.81,-126.95,15.88,211.50,-120.31,66.26
8268,751.23,760.74,762.69,759.25,758.48,250.49,-1062.01,-218.75,10.79,205.22,-142.62,66.81
8302,751.12,760.70,762.68,759.17,758.42,153.81,-1159.18,-302.73,0.98,193.32,-150.69,68.38
8336,751.05,760.70,762.67,759.19,758.40,101.56,-1197.27,-354.00,-9.01,181.12,-153.22,68.01
8369,750.98,760.67,762.72,759.11,758.37,40.04,-1226.07,-393.07,-19.26,171.70,-149.28,71.15
8405,750.83,760.69,762.57,759.11,758.30,25.39,-1221.68,-365.23,-48.73,164.73,-124.06,67.63
8439,750.80,760.62,762.58,759.01,758.25,-113.77,-1367.68,-236.82,-71.92,160.27,-121.89,70.04
8473,750.67,760.57,762.52,759.04,758.20,-845.21,-1276.37,-67.87,-61.39,175.79,-122.95,68.86
8507,750.68,760.51,762.55,758.97,758.18,-972.66,-1426.27,238.77,-77.02,123.56,-112.89,71.20
8541,750.67,760.63,762.48,759.00,758.20,-1295.41,-1375.98,3.42,38.35,112.13,-83.22,68.00
8575,750.72,760.64,762.49,759.08,758.23,-1367.19,-686.04,-306.15,-23.60,47.98,-33.15,66.85
8609,751.96,760.87,762.26,758.86,758.49,-478.52,-893.07,7.32,-78.76,-10.74,19.66,58.23
8643,770.51,761.81,762.39,759.00,763.43,831.54,-125.98,936.04,141.80,3.69,62.36,-11.85
8678,794.49,763.87,766.03,760.14,771.13,-975.10,-1221.19,1502.93,73.39,-83.49,57.01,-36.62
8712,797.50,766.75,768.38,761.95,773.65,-234.86,-698.24,141.60,7.67,-15.27,11.07,-38.25
8746,800.35,770.64,771.88,763.35,776.56,19.04,-871.09,277.83,-39.40,-17.95,17.85,-12.57
8780,804.35,772.66,775.68,765.50,779.55,80.08,-916.50,326.17,-2.56,0.55,3.10,20.58
8814,805.07,774.11,778.16,767.62,781.24,144.04,-931.64,374.51,-2.53,-0.10,1.90,37.04
8848,802.03,775.60,779.90,769.35,781.72,132.81,-968.26,350.59,-7.89,-1.43,5.15,53.46
8882,796.63,776.90,780.83,770.60,781.24,128.91,-966.80,335.94,-6.24,-1.66,4.29,66.21
8916,791.28,777.77,781.43,771.56,780.51,111.82,-960.45,339.84,-0.48,1.82,4.75,78.47
8950,786.92,778.35,782.24,772.79,780.08,116.70,-967.29,318.85,7.34,6.34,2.16,90.88
8985,782.90,778.80,783.29,774.29,779.82,122.07,-941.41,369.63,3.83,6.73,3.50,105.07
9019,779.16,779.57,784.89,776.13,779.94,118.16,-950.68,345.70,5.91,4.44,0.47,124.66
9053,775.96,780.28,787.02,778.40,780.41,115.72,-946.78,348.14,5.96,4.79,-0.47,149.47
9087,772.54,780.99,789.32,780.75,780.90,104.49,-968.26,353.52,4.53,1.73,0.21,178.27
9121,768.76,781.93,792.11,783.29,781.52,99.61,-931.64,392.09,5.58,1.11,4.37,215.81
9155,764.64,782.76,795.86,785.64,782.23,99.12,-965.33,343.26,0.33,5.53,2.59,281.99
9189,760.07,783.39,801.01,788.45,783.23,95.21,-991.21,330.57,8.40,5.48,2.47,379.58
9223,756.34,783.36,806.84,791.59,784.53,121.58,-1021.97,355.96,3.89,4.40,10.18,491.79
9257,752.86,782.27,812.18,794.13,785.36,138.67,-996.09,385.25,12.80,5.74,28.85,608.27
9292,751.22,779.77,816.52,795.45,785.74,118.16,-979.49,383.30,9.88,18.24,29.92,722.57
9327,750.83,774.31,819.56,792.65,784.34,392.58,-1319.34,421.39,-30.90,49.67,71.95,884.42
9361,750.60,768.26,819.92,785.51,781.07,182.62,-1400.88,369.63,-65.37,36.43,114.75,1048.06
9396,750.44,764.69,814.58,774.35,776.02,236.33,-1592.29,199.22,12.46,27.75,180.19,1108.20
9430,750.27,762.67,786.85,766.44,766.56,-104.98,-1749.51,548.83,56.50,40.03,209.89,550.80
9464,750.26,761.85,764.34,761.72,759.54,149.90,-2000.00,199.22,107.35,33.87,184.37,65.95
9498,750.14,761.32,762.59,760.40,758.61,1044.43,-1148.93,-610.35,93.39,144.63,-21.31,46.48
9532,750.09,761.07,762.37,760.08,758.40,498.05,-608.89,-234.37,145.26,201.24,-61.52,47.70
9566,750.10,760.92,762.24,759.74,758.25,318.36,-662.60,-207.03,55.52,168.90,-52.13,50.76
9599,750.01,760.87,762.23,759.68,758.20,380.86,-939.94,-129.88,44.37,135.27,-99.12,52.04
9633,750.09,760.80,762.28,759.45,758.15,261.23,-858.40,-157.23,46.12,104.42,-140.95,57.10
9666,750.11,760.75,762.21,759.36,758.11,162.11,-940.43,-229.98,32.68,77.42,-176.53,56.75
9700,750.14,760.70,762.27,759.25,758.09,151.37,-1057.62,-325.20,10.11,65.77,-207.09,60.20
9733,750.09,760.73,762.38,759.10,758.07,39.06,-1174.32,-359.37,-18.43,81.73,-222.37,65.19
9768,750.04,760.69,762.33,759.05,758.03,8.79,-1242.19,-357.91,-57.98,103.65,-220.29,65.20
9801,749.98,760.69,762.39,759.02,758.02,-59.57,-1413.57,-248.05,-61.85,113.50,-201.58,67.26
9835,749.93,760.61,762.44,758.99,757.99,-190.43,-1458.98,-143.55,-74.46,83.90,-176.11,69.90
9869,749.92,760.62,762.45,759.08,758.02,-435.55,-1617.19,-120.61,-58.50,76.46,-144.96,68.92
9903,749.83,760.59,762.38,758.96,757.94,-1286.62,-1488.77,89.36,-59.90,65.50,-145.21,69.50
9937,749.85,760.54,762.22,758.91,757.88,-1947.75,-1379.39,334.47,-58.25,-9.29,-105.54,66.27
9970,749.91,760.52,762.08,758.95,757.87,-1799.32,-1376.46,367.68,-18.79,-73.17,-47.95,62.28
10004,751.16,760.58,761.92,758.99,758.16,-2000.00,-2000.00,1649.41,-184.39,-65.38,143.25,52.94
10039,769.77,760.49,761.92,758.95,762.78,763.18,-960.45,133.79,-69.01,0.77,100.51,-9.72
10073,793.66,760.80,762.31,759.03,768.95,-373.54,-874.02,1631.84,-10.58,51.27,163.97,-85.44
10107,797.52,761.83,765.63,759.26,771.06,-532.23,-1659.67,-459.47,96.34,115.52,23.88,-27.82
10141,802.80,763.73,771.44,760.52,774.62,-86.91,-1170.41,503.42,43.52,0.19,13.17,65.24
10175,806.67,765.57,776.00,761.95,777.55,106.93,-1000.00,372.56,15.04,-3.27,8.82,129.68
10209,806.50,767.24,779.58,763.46,779.19,134.77,-982.42,369.14,3.74,-3.37,5.50,183.77
10243,804.72,768.37,781.61,764.81,779.88,128.91,-977.05,354.49,-1.27,2.79,0.58,211.55
10279,803.67,769.85,782.31,766.53,780.59,108.40,-909.18,394.53,-0.13,0.30,3.34,195.41
10313,802.50,771.07,782.68,768.23,781.12,125.00,-938.96,386.23,-2.25,2.14,2.91,173.76
10347,801.95,772.22,782.75,769.67,781.65,120.12,-940.92,376.95,-4.15,-2.07,5.36,146.91
10381,801.13,772.96,783.12,770.59,781.95,124.02,-937.99,363.28,1.04,2.37,2.18,139.48
10415,799.42,773.46,783.36,771.39,781.91,118.16,-940.92,377.93,-1.48,-1.56,2.28,135.57
10450,797.26,773.63,783.02,771.63,781.39,131.84,-932.62,378.42,-2.91,-1.74,0.85,129.77
10484,795.04,773.73,782.47,771.77,780.75,113.77,-949.71,373.05,-2.02,-0.41,1.87,120.75
10518,793.51,773.93,782.00,772.08,780.38,115.72,-938.48,363.77,0.25,3.09,5.45,108.22
10552,792.49,774.10,781.89,772.41,780.22,123.54,-955.57,346.68,-3.99,-1.69,3.29,102.64
10586,791.73,774.64,782.02,772.96,780.34,56.15,-949.22,362.30,1.15,1.55,1.10,96.13
10620,790.53,775.42,782.51,773.81,780.57,123.54,-933.59,382.32,-4.66,1.50,3.58,93.63
10654,788.46,776.52,783.26,774.74,780.75,117.68,-924.80,392.58,-1.73,1.23,0.92,96.93
10688,786.25,777.94,784.44,775.69,781.08,109.37,-949.22,375.98,-4.95,-0.33,5.23,108.58
10722,783.71,779.93,786.26,777.17,781.76,103.52,-938.96,360.84,-5.31,-1.32,4.54,124.82
10757,778.64,781.92,788.58,779.60,782.18,128.42,-974.12,338.87,0.79,4.63,9.04,148.21
10791,768.91,783.70,792.47,783.13,782.05,136.72,-973.63,334.96,12.83,8.79,7.02,212.44
10825,758.62,784.84,798.33,788.28,782.52,102.54,-1009.77,229.49,26.53,10.96,4.92,308.63
10859,752.07,782.90,805.09,793.46,783.38,60.06,-1253.91,314.45,54.71,16.82,43.48,438.93
10893,751.30,777.11,811.00,794.87,783.57,210.94,-1049.80,259.28,30.50,29.77,64.05,614.45
10927,750.96,770.29,814.92,790.14,781.58,75.20,-1069.34,604.49,-8.78,79.29,139.35,837.81
10961,750.65,766.19,814.73,781.11,778.17,209.47,-1506.35,386.23,-39.77,65.60,185.87,999.92
10995,750.46,763.46,805.90,771.59,772.86,63.96,-2000.00,169.43,-23.59,33.44,248.90,942.53
11029,750.28,762.03,782.70,765.62,765.16,38.09,-1764.16,377.44,18.11,-12.85,250.13,464.41
11063,750.28,761.55,762.94,761.17,758.99,388.67,-1522.95,110.84,112.09,-1.50,245.85,41.49
11097,750.19,761.15,762.64,760.26,758.56,1036.13,-1402.34,-109.37,51.83,10.47,43.18,50.90
11131,750.13,760.70,762.39,759.91,758.28,513.18,-114.26,-100.59,25.61,8.40,-43.89,53.66
11164,750.07,760.61,762.26,759.62,758.14,559.57,-383.30,-5.37,-21.57,8.72,-62.48,55.52
11200,750.06,760.45,762.24,759.47,758.06,575.20,-500.98,9.77,-23.41,22.25,-134.67,58.62
11233,750.08,760.40,762.18,759.38,758.01,350.10,-631.35,76.66,-51.70,37.64,-187.48,58.78
11267,750.03,760.34,762.37,759.13,757.97,224.61,-921.87,204.10,-52.18,36.72,-201.63,67.80
11300,750.04,760.38,762.66,759.04,758.03,-22.95,-1112.79,271.48,-38.68,1.87,-208.65,75.97
11335,749.96,760.43,762.83,758.97,758.05,-40.53,-1493.16,333.50,-30.60,-31.63,-195.33,81.25
11368,749.92,760.32,763.09,758.87,758.05,-191.89,-1440.92,238.28,-24.08,-41.78,-189.79,90.12
11402,749.84,760.37,763.17,758.81,758.05,-181.15,-1485.35,165.04,-65.18,-36.02,-138.10,92.94
11436,749.82,760.31,763.07,758.75,757.99,-497.07,-1472.66,324.71,-95.69,-36.49,-110.07,91.93
11470,749.84,760.23,762.69,758.75,757.88,-714.84,-1704.59,501.46,-103.47,-50.50,-117.89,83.15
11504,749.74,760.28,762.43,758.73,757.80,-1117.68,-1447.27,527.83,-20.34,-21.40,-122.94,76.73
11538,749.71,760.29,762.06,758.83,757.72,-1651.86,-982.91,431.64,1.16,-54.98,-86.62,66.14
11572,750.20,760.26,761.75,758.84,757.76,-906.74,-2000.00,706.54,-21.95,-94.69,9.34,56.82
11606,757.55,760.20,761.69,758.89,759.58,22.46,-278.81,728.52,203.46,47.32,159.02,29.80
11640,778.63,760.58,761.66,758.92,764.95,271.48,8.79,287.60,250.13,119.20,152.45,-46.72
11674,805.00,762.84,763.24,759.09,772.54,-197.75,-1996.58,235.84,6.41,-15.43,173.38,-118.62
11708,805.77,763.88,769.90,760.53,775.02,-653.81,79.10,161.13,96.27,8.51,4.31,15.25
11742,803.84,765.77,775.35,762.33,776.82,122.07,-573.73,500.00,1.89,-4.52,6.82,115.97
11776,801.13,768.16,781.17,764.39,778.71,160.64,-857.42,410.16,-21.17,-12.73,10.31,220.88
11811,800.20,769.84,785.21,766.46,780.43,156.74,-959.47,366.21,-15.83,-8.16,6.58,280.71
11845,798.21,771.14,788.16,768.46,781.49,121.58,-932.62,396.97,-4.60,-0.44,1.15,321.28
11879,794.14,772.69,790.54,770.15,781.88,121.58,-935.06,396.00,-8.70,0.80,6.55,357.21
11913,790.47,774.18,793.12,771.76,782.38,98.63,-965.82,348.63,2.36,4.56,3.27,398.19
11947,787.04,775.12,794.92,773.32,782.60,115.72,-919.43,398.44,-1.43,1.90,4.37,424.55
11981,784.01,775.74,795.54,774.45,782.43,123.05,-923.34,386.23,-0.62,3.48,1.08,428.66
12015,782.06,775.87,795.43,774.95,782.08,110.84,-931.15,408.69,0.68,2.50,-0.87,424.28
12049,780.80,776.19,795.02,775.34,781.84,108.89,-916.02,379.39,-4.21,0.82,2.76,410.02
12083,780.52,776.41,794.40,775.59,781.73,105.96,-950.68,376.95,-2.55,0.24,2.34,389.95
12118,781.26,776.75,793.60,775.83,781.86,108.40,-925.29,392.58,-0.78,-0.27,2.40,361.32
12153,782.06,776.86,792.58,775.85,781.84,124.02,-929.69,388.18,-2.07,-1.85,1.69,331.91
12187,782.01,777.24,791.96,775.91,781.78,113.28,-925.78,390.62,-6.66,-1.56,-1.37,312.92
12221,781.81,778.03,791.67,776.17,781.92,100.10,-949.22,370.12,-4.91,-0.06,0.83,296.07
12256,779.92,778.83,791.93,777.04,781.93,105.47,-936.04,374.02,3.28,0.34,3.16,289.97
12290,776.08,779.78,792.78,778.37,781.75,113.28,-951.17,361.82,1.37,3.49,2.85,297.11
12324,770.05,781.06,794.55,780.67,781.58,131.84,-960.94,379.39,6.03,5.43,5.34,317.68
12358,763.30,782.04,797.41,784.22,781.74,103.03,-963.87,353.52,14.40,11.32,1.82,352.03
12392,757.49,781.75,800.83,788.29,782.09,143.55,-1064.94,453.12,20.15,9.30,16.25,399.57
12426,752.51,779.79,804.43,791.85,782.15,47.85,-995.12,364.75,41.00,12.08,33.76,469.80
12460,751.15,775.76,807.35,793.16,781.86,111.33,-960.94,587.89,5.15,22.44,31.97,560.03
12494,750.82,769.61,809.41,789.26,779.78,348.63,-1415.04,472.66,-48.00,57.84,91.06,719.41
12528,750.52,765.24,809.65,780.79,776.55,145.51,-1280.76,414.55,-62.27,32.10,123.28,886.04
12563,750.30,762.71,805.24,770.57,772.21,67.38,-1299.80,398.44,11.90,49.15,169.45,947.57
12597,750.20,761.54,782.10,764.52,764.59,-37.60,-1262.21,217.29,59.54,29.60,189.50,469.90
12631,750.23,761.02,767.06,761.36,759.92,65.43,-1569.34,295.41,70.34,3.84,198.69,145.95
12665,750.26,760.82,762.88,760.11,758.52,499.02,-843.75,95.21,4.89,49.42,84.79,61.49
12698,750.17,760.57,762.60,759.91,758.31,298.83,-562.01,181.15,-65.68,-18.95,-8.98,59.85
12732,750.20,760.52,762.49,759.60,758.20,345.21,-742.19,228.52,-13.49,-4.39,-8.13,61.79
12766,750.23,760.44,762.33,759.51,758.13,319.34,-504.39,200.20,-13.34,-26.21,-55.37,59.71
12799,750.14,760.41,762.33,759.39,758.07,317.87,-517.09,219.24,-35.56,-23.55,-80.41,62.18
12833,750.10,760.39,762.31,759.29,758.02,243.65,-615.72,316.41,-53.48,-22.99,-114.95,63.30
12866,750.05,760.28,762.36,759.17,757.97,134.28,-832.52,453.12,-59.82,-1.43,-129.09,67.45
12900,750.08,760.27,762.31,759.14,757.95,-43.95,-1006.84,597.66,-41.60,-1.56,-137.56,66.47
12934,749.99,760.26,762.39,758.94,757.89,-22.46,-1067.87,538.09,-27.03,-11.20,-139.96,71.98
12968,749.93,760.17,762.40,758.99,757.87,83.98,-975.10,349.61,-22.63,12.66,-131.39,72.43
13002,749.92,760.12,762.23,758.94,757.80,105.96,-1060.55,312.99,-45.66,45.14,-93.76,69.26
13084,749.88,760.13,762.11,758.96,757.77,-508.30,-1518.07,415.04,-1.95,42.35,-150.15,65.98
13119,749.83,760.08,762.04,758.99,757.73,-632.32,-1235.35,344.24,16.42,18.00,-95.66,64.59
13181,749.86,760.09,761.99,758.93,757.72,-409.18,-1077.15,95.70,31.17,10.46,-27.93,63.83
13236,749.80,760.13,761.93,759.01,757.71,-192.38,-889.16,146.97,-7.40,-19.63,-25.40,61.19
13277,749.77,760.19,761.98,759.01,757.74,79.59,-960.94,236.33,-1.12,-33.06,-8.80,62.11
13311,750.24,760.15,762.00,758.94,757.83,8.30,-987.30,266.11,9.78,-21.02,-11.40,62.17
13345,754.91,760.12,762.08,758.88,759.00,-791.02,-974.61,389.16,-15.82,-5.51,86.98,49.23
13380,776.80,760.33,762.14,758.86,764.53,519.04,-1278.32,-272.46,26.47,-18.15,108.21,-25.47
13414,800.01,760.63,762.71,759.07,770.60,-69.34,-1505.86,486.82,50.98,33.55,108.61,-96.65
13448,804.72,761.57,764.40,759.08,772.44,-394.04,-1818.36,442.38,64.45,60.05,66.98,-78.40
13482,808.63,762.73,768.52,759.76,774.91,124.02,-901.37,869.63,23.92,-10.18,14.17,-8.48
13516,816.32,764.12,771.82,760.64,778.22,183.59,-1020.02,400.88,-5.83,-16.40,9.02,23.26
13550,822.02,765.37,774.17,761.40,780.74,151.37,-1010.25,365.23,-7.39,-5.20,7.63,41.01
13584,824.59,765.94,775.48,762.04,782.01,162.60,-976.56,365.23,4.62,4.17,1.11,50.92
13618,826.32,766.21,776.47,762.57,782.89,126.95,-929.69,413.09,0.44,1.53,-1.04,59.88
13652,827.39,766.60,777.41,762.95,783.59,126.95,-914.06,416.50,-0.80,-2.44,-0.95,70.79
13686,828.69,766.86,778.07,763.32,784.23,117.19,-935.06,333.98,0.95,-1.30,3.37,75.15
13721,829.30,767.00,778.12,763.52,784.49,139.65,-932.62,385.25,4.57,-0.08,1.61,70.22
13755,829.89,766.94,778.05,763.56,784.61,137.70,-936.52,389.16,4.81,0.77,1.28,66.22
13789,830.07,766.98,778.28,763.76,784.77,143.07,-928.22,402.83,2.50,1.40,0.24,68.16
13823,830.07,766.93,778.43,763.81,784.81,126.46,-920.90,415.53,2.15,2.53,2.60,71.65
13857,830.29,766.76,778.51,763.73,784.82,118.65,-924.32,396.97,-0.93,-0.81,2.21,75.35
13891,830.45,766.82,778.45,763.59,784.83,129.88,-918.46,412.60,-2.17,-1.02,3.11,74.96
13925,830.41,766.85,778.63,763.57,784.86,131.35,-921.39,406.74,-7.56,-2.19,1.51,79.62
13959,829.94,767.06,779.02,763.65,784.92,120.61,-940.92,391.11,-8.51,-1.17,0.72,88.28
13994,829.26,767.27,779.46,763.75,784.93,133.30,-939.94,381.84,-8.01,-4.63,4.87,98.27
14029,828.59,767.38,779.50,763.70,784.79,118.65,-932.13,375.00,-7.26,-3.37,3.09,101.40
14064,827.77,767.54,779.51,763.67,784.63,120.61,-938.48,375.00,-2.76,-2.18,2.40,103.60
14098,827.06,767.43,779.67,763.66,784.45,128.42,-949.71,363.28,-3.71,-1.05,3.11,110.98
14132,825.74,767.38,779.51,763.49,784.03,123.54,-934.08,390.14,-4.03,-0.54,-0.66,114.49
14166,822.99,767.17,779.41,763.40,783.24,126.46,-947.75,346.68,-0.51,-0.18,1.57,124.37
14200,816.77,766.94,779.13,763.34,781.55,142.58,-956.05,383.30,1.29,3.31,2.13,141.42
14234,807.97,766.47,778.90,763.11,779.11,119.63,-909.67,363.77,3.16,6.46,-1.45,173.28
14268,800.02,766.11,778.51,763.01,776.91,123.54,-929.20,384.28,3.05,4.58,4.23,195.20
14302,794.62,766.02,778.05,762.85,775.38,108.40,-926.76,391.60,-2.34,3.05,-0.21,205.16
14336,790.82,765.90,777.27,762.60,774.15,123.54,-948.24,359.37,-3.69,1.37,1.05,203.63
14370,787.33,765.88,776.42,762.40,773.00,116.70,-927.73,381.35,0.59,2.60,-0.79,197.32
14404,784.95,766.09,775.46,762.37,772.22,122.56,-929.69,374.51,-0.08,3.50,1.60,180.40
14437,781.72,766.47,774.67,762.40,771.32,118.65,-946.78,375.00,0.64,1.15,1.28,168.23
14471,774.45,766.39,774.07,762.70,769.40,136.23,-941.89,355.47,-0.08,2.91,2.54,174.65
14504,764.79,766.08,773.08,762.60,766.64,135.74,-1001.46,321.78,3.02,8.66,0.77,186.87
14538,757.92,764.72,769.91,761.71,763.57,82.03,-935.06,381.84,26.65,14.53,-2.31,155.59
14572,754.77,762.68,766.38,760.57,761.10,117.68,-993.16,350.59,19.79,11.76,4.45,111.63
14606,753.58,761.40,763.67,759.79,759.61,8.30,-717.77,287.60,-10.48,-6.92,-3.29,69.93
14640,753.67,761.04,762.74,759.41,759.21,352.54,-1214.36,515.14,13.76,-46.03,-12.16,55.08
14674,754.24,761.01,762.46,759.35,759.26,136.23,-672.85,189.45,17.07,21.35,-1.24,47.13
14707,755.36,761.52,763.01,759.80,759.92,377.44,-267.09,1244.63,178.21,32.89,-20.47,46.35
14741,757.66,762.61,764.34,760.53,761.28,321.29,-1095.21,439.45,66.10,27.92,-12.95,51.88
14775,759.58,764.20,766.24,761.38,762.85,363.28,-1240.23,156.25,-42.81,-26.30,10.95,67.44
14809,759.68,765.01,768.03,762.04,763.69,143.55,-1097.17,255.37,-19.03,-15.40,4.32,95.58
14843,759.39,765.51,769.72,762.49,764.28,95.70,-940.43,401.37,-1.16,-0.59,4.05,128.14
14877,759.26,766.01,771.57,762.72,764.89,111.82,-921.87,387.21,-4.40,-0.27,5.92,167.27
14913,760.41,766.70,773.79,763.03,765.98,124.51,-920.90,386.72,2.72,-0.73,5.02,208.54
14947,766.48,768.34,776.63,763.61,768.77,110.84,-864.75,427.73,-4.77,-11.43,2.46,236.66
14981,777.22,770.42,780.97,764.88,773.37,129.88,-999.51,319.34,-8.99,-11.77,2.37,272.46
15015,787.39,771.80,783.90,766.07,777.29,106.45,-953.61,324.71,-7.94,-2.31,-0.98,281.97
15050,791.37,772.73,785.66,767.46,779.31,114.26,-980.96,359.37,4.05,-0.48,3.75,284.41
15084,791.48,773.14,786.15,768.37,779.78,104.98,-946.78,378.91,5.90,3.01,-0.79,279.63
15118,790.67,773.06,785.67,768.49,779.47,107.42,-942.87,356.45,0.54,1.07,-0.06,269.22
15152,790.52,772.79,784.67,768.43,779.10,125.49,-936.04,361.33,2.50,4.16,-0.04,247.70
15186,790.64,772.22,782.99,768.03,778.47,124.51,-942.38,398.93,-2.01,1.30,0.36,215.91
15220,789.94,771.41,780.91,767.16,777.36,123.05,-948.73,362.30,-1.44,1.22,0.70,185.92
15254,788.67,770.38,779.25,766.27,776.14,120.61,-932.62,369.14,2.85,1.58,-1.05,170.34
15288,786.79,769.42,777.54,765.37,774.78,122.07,-947.27,361.82,5.56,4.66,-3.75,155.19
15322,784.96,768.52,775.92,764.28,773.42,115.72,-919.43,372.07,-1.14,1.82,-0.52,144.27
15357,783.71,767.82,774.60,763.49,772.41,108.89,-939.45,367.19,-4.24,2.47,-0.53,132.75
15391,783.01,767.54,773.81,762.93,771.82,96.19,-938.96,375.49,-2.85,-0.85,-1.12,126.14
15425,782.93,767.51,773.51,762.62,771.64,109.37,-941.89,362.79,-6.68,-1.30,1.85,123.72
15459,782.88,767.63,773.52,762.59,771.65,125.00,-948.73,364.26,-1.95,0.78,-0.15,123.46
15493,782.11,767.69,773.60,762.70,771.52,126.46,-941.41,365.72,-1.52,-0.24,0.45,126.13
15527,780.53,767.72,773.86,762.78,771.22,111.33,-940.92,357.42,0.34,2.98,2.16,136.62
15561,778.81,767.84,774.01,762.85,770.88,118.16,-952.15,367.68,2.10,3.43,3.43,144.37
15595,777.56,768.00,774.30,763.02,770.72,123.05,-945.31,362.79,0.31,4.82,3.11,151.93
15629,777.25,768.10,774.38,763.08,770.70,114.26,-941.41,354.98,1.79,2.50,2.08,153.21
15664,777.56,768.20,774.50,763.19,770.86,112.30,-927.25,379.88,-1.64,-1.98,2.11,152.76
15698,778.10,768.38,774.75,763.35,771.15,118.65,-920.90,367.68,0.83,0.47,1.63,153.49
15732,778.26,768.58,774.77,763.44,771.26,125.49,-947.27,369.14,-1.21,-1.50,0.76,150.38
15766,778.25,768.82,774.88,763.42,771.34,127.93,-943.85,375.49,-1.41,-1.76,0.19,151.60
15800,778.05,769.07,775.02,763.55,771.42,119.14,-948.24,361.33,-0.44,-0.15,1.55,151.78
15836,777.94,769.33,775.30,763.68,771.56,116.21,-940.92,365.23,-1.02,0.97,0.35,155.04
15871,778.14,769.63,775.48,763.81,771.77,104.00,-933.59,362.79,1.21,0.18,-0.60,154.66
15905,777.91,769.87,775.87,763.92,771.89,117.19,-936.52,364.75,-0.87,2.83,2.92,161.56
15939,777.78,770.22,776.28,764.26,772.14,120.61,-938.96,355.96,-0.51,2.05,3.45,164.35
15972,777.58,770.59,776.66,764.49,772.33,110.35,-931.15,367.68,0.90,1.72,-2.43,168.29
16006,777.18,770.89,776.98,764.71,772.44,117.68,-939.94,362.30,-1.55,0.23,0.43,171.95
16040,776.77,771.34,777.30,764.94,772.59,125.00,-943.85,366.21,0.48,-0.83,2.34,174.43
16073,776.28,771.67,777.61,764.99,772.64,114.75,-941.89,369.63,-0.48,4.32,4.49,180.24
16107,775.98,771.86,777.75,765.18,772.69,97.17,-946.78,357.91,-0.09,1.94,-0.02,180.63
16140,775.77,771.91,777.85,765.28,772.70,120.61,-948.24,365.23,1.84,0.82,2.95,181.99
16175,775.68,771.90,777.98,765.35,772.73,116.21,-952.15,360.35,0.96,1.45,-1.73,184.42
16208,775.58,772.03,778.09,765.43,772.79,113.28,-933.11,360.84,0.53,-0.26,0.82,185.38
16242,775.54,772.02,778.08,765.46,772.77,105.47,-961.91,359.86,-1.14,0.21,0.64,185.01
16276,775.54,772.01,778.06,765.40,772.76,113.77,-937.99,365.23,-0.98,1.68,-3.16,185.43
16310,775.63,771.94,778.07,765.50,772.78,124.51,-937.50,366.21,-0.32,0.39,0.50,184.34
16344,775.78,771.91,778.01,765.42,772.78,115.72,-942.87,358.40,-1.15,3.80,-1.38,183.84
16377,775.86,771.88,778.03,765.36,772.78,122.56,-942.87,358.89,0.18,0.36,1.00,185.12
16411,776.07,771.83,777.91,765.34,772.79,114.75,-937.01,364.75,0.85,-0.15,-2.95,182.00
16446,776.47,771.74,777.75,765.29,772.81,114.26,-953.12,374.51,-0.16,2.94,-1.47,178.27
16480,776.82,771.60,777.62,765.18,772.80,112.79,-932.62,368.65,-0.33,-0.63,1.03,176.45
16514,777.41,771.45,777.35,765.06,772.82,112.30,-937.50,360.35,0.13,4.58,-1.12,170.68
16548,777.92,771.23,777.08,764.87,772.78,102.54,-934.08,357.42,2.04,2.41,-0.34,166.83
16582,778.50,770.99,776.81,764.76,772.77,114.75,-938.48,358.40,-1.43,1.83,1.02,161.66
16616,779.03,770.82,776.49,764.57,772.73,107.42,-946.29,361.33,1.00,-0.88,-1.62,156.03
16650,779.40,770.74,776.28,764.48,772.72,117.19,-945.31,357.42,0.08,2.39,-2.69,151.44
16684,779.88,770.49,776.13,764.38,772.72,118.16,-941.41,374.51,-0.85,-0.50,0.11,149.68
16719,780.29,770.45,775.91,764.27,772.73,110.84,-939.94,362.30,1.53,-1.43,-0.47,144.56
16753,780.79,770.37,775.70,764.19,772.76,117.68,-936.52,357.91,-0.21,2.82,-2.45,139.42
16788,781.49,770.25,775.60,764.09,772.86,104.49,-937.50,362.79,-0.37,2.21,-1.78,136.90
16822,782.09,770.03,775.35,763.97,772.86,103.03,-937.99,362.79,-0.84,0.83,-0.21,132.29
16857,782.76,769.88,775.10,763.81,772.89,110.35,-926.76,374.02,-0.28,3.24,-2.66,127.34
16891,783.66,769.71,774.87,763.76,773.00,114.75,-949.71,358.89,1.34,2.88,0.50,120.70
16925,784.53,769.71,774.79,763.78,773.20,126.95,-953.61,363.77,-0.31,0.77,-0.13,115.29
16959,784.92,769.46,774.56,763.65,773.15,121.09,-951.66,352.05,0.61,3.52,-1.65,112.19
16993,784.97,769.17,774.35,763.44,772.98,112.30,-943.85,361.82,0.36,0.86,-0.52,112.20
17027,785.08,768.94,774.11,763.39,772.88,112.30,-947.27,351.07,0.51,2.01,-1.10,108.37
17061,785.10,768.78,774.02,763.29,772.80,120.12,-944.82,355.47,1.43,-0.59,0.59,108.90
17095,785.06,768.63,773.85,763.15,772.67,114.26,-937.01,365.23,2.56,2.13,-3.56,108.17
17129,784.96,768.63,773.74,763.12,772.61,110.35,-950.68,367.68,0.86,2.01,0.40,106.01
17164,784.76,768.47,773.73,763.09,772.51,115.23,-943.36,366.21,-0.65,2.18,2.76,108.07
17198,784.62,768.38,773.67,763.03,772.42,110.35,-950.68,370.12,1.69,0.88,1.51,109.05
17232,784.44,768.35,773.66,763.11,772.39,113.77,-944.34,354.49,0.66,0.18,1.29,108.32
17266,784.17,768.47,773.57,763.08,772.32,120.61,-938.48,365.23,2.02,1.05,-0.40,106.45
17300,783.91,768.49,773.71,763.11,772.31,114.75,-937.99,353.52,1.02,-1.15,0.24,110.20
17334,783.46,768.65,773.87,763.18,772.29,114.26,-940.43,362.79,0.54,0.16,3.56,113.34
17368,782.98,768.79,773.91,763.34,772.25,118.16,-945.31,356.45,1.98,1.91,1.08,112.49
17402,782.49,768.93,774.16,763.47,772.26,114.75,-949.22,352.54,1.08,-0.39,2.17,117.50
17436,782.08,769.05,774.33,763.55,772.25,126.95,-933.59,374.02,-0.48,1.11,0.03,121.11
17471,781.86,769.32,774.41,763.65,772.31,127.44,-941.89,368.65,0.10,1.15,-0.27,120.16
17505,781.80,769.36,774.56,763.78,772.38,123.54,-947.75,363.77,-1.41,0.10,-0.09,121.69
17539,781.86,769.40,774.56,763.81,772.41,117.68,-950.68,370.12,-0.04,-2.09,1.45,120.82
17572,781.92,769.43,774.54,763.82,772.43,118.16,-943.36,369.14,-0.77,3.43,0.40,119.69
17606,781.99,769.40,774.58,763.74,772.43,109.37,-943.36,361.82,1.25,-0.55,0.65,121.86
17640,782.04,769.43,774.67,763.89,772.51,116.21,-946.78,373.05,-2.24,-0.40,-0.58,121.43
17673,782.23,769.43,774.55,763.89,772.52,118.65,-936.04,354.98,0.47,-0.08,-0.85,117.97
17709,782.33,769.42,774.52,763.82,772.52,117.19,-935.55,367.68,-0.56,1.50,0.72,117.91
17743,782.34,769.58,774.60,763.85,772.59,126.95,-950.68,366.70,-0.25,0.36,-0.14,118.20
17777,782.31,769.65,774.58,763.89,772.61,107.42,-943.36,372.56,3.29,1.30,0.74,116.47
17811,782.17,769.64,774.68,763.89,772.59,121.58,-941.41,386.72,1.85,2.53,-0.89,119.48
17845,782.08,769.69,774.78,764.06,772.65,121.09,-941.41,365.72,-0.30,1.33,2.18,119.55
17879,782.11,769.75,774.77,764.02,772.66,128.91,-934.57,358.40,0.40,-2.18,3.00,119.37
17912,782.01,769.79,774.77,764.08,772.66,102.54,-937.50,353.03,1.91,2.56,-0.60,118.52
17946,781.91,769.78,774.89,764.12,772.68,130.37,-934.57,368.65,0.31,4.69,-0.27,121.41
17980,781.92,769.81,774.91,764.14,772.70,118.65,-934.57,354.49,-0.23,-0.56,2.99,121.26
18014,781.89,769.79,774.94,764.23,772.71,106.93,-946.29,362.79,1.12,-0.42,0.01,120.69
18048,781.85,769.81,775.02,764.18,772.71,120.12,-946.29,362.30,-0.04,2.36,1.31,123.43
18082,781.76,769.90,775.08,764.27,772.75,116.21,-938.48,346.68,1.31,1.45,0.41,123.38
18116,781.64,769.94,774.98,764.28,772.71,114.26,-937.01,363.28,1.83,1.84,1.04,120.76
18151,781.58,770.01,775.09,764.31,772.75,123.54,-943.36,369.14,0.47,2.97,0.76,122.79
18185,781.46,769.89,775.20,764.30,772.71,105.47,-944.34,362.79,1.56,1.46,0.05,126.93
18219,781.26,769.98,775.23,764.33,772.70,126.46,-946.29,359.37,-0.66,3.13,1.33,127.38
18253,781.23,770.00,775.33,764.42,772.75,121.58,-955.57,373.54,0.18,0.29,-2.85,128.39
18287,781.12,769.96,775.43,764.39,772.73,120.12,-937.01,373.54,0.59,3.04,-0.03,131.87
18321,781.08,770.03,775.41,764.37,772.72,108.89,-955.57,360.35,2.67,1.24,1.53,131.51
18355,780.88,769.99,775.58,764.41,772.71,118.16,-950.20,358.89,1.62,3.02,-1.80,136.21
18389,780.80,770.02,775.60,764.49,772.73,125.00,-939.45,375.00,-1.48,2.80,0.98,135.52
18424,780.56,770.05,775.65,764.49,772.69,128.42,-958.50,360.84,1.86,2.27,-0.01,137.21
18458,780.58,770.07,775.66,764.51,772.71,98.63,-932.62,368.65,-1.67,1.28,-1.15,137.10
18492,780.48,770.00,775.80,764.47,772.69,110.84,-942.87,366.70,1.21,3.18,-1.69,141.86
18526,780.44,770.09,775.91,764.55,772.75,104.49,-944.34,364.26,-0.56,1.05,-1.92,142.98
18560,780.40,770.01,776.00,764.57,772.74,114.75,-944.82,357.91,1.09,-0.05,1.95,145.60
18594,780.27,770.04,776.08,764.42,772.70,123.05,-936.52,362.79,2.89,3.69,-0.30,150.05
18628,780.25,770.05,776.05,764.55,772.73,114.75,-934.08,353.52,0.80,1.88,-1.09,147.31
18664,780.06,770.14,776.08,764.59,772.72,107.42,-948.73,359.37,2.27,1.92,2.34,147.44
18698,779.98,770.18,776.06,764.65,772.72,103.52,-938.48,374.02,0.24,2.00,-0.72,146.02
18732,779.83,770.24,776.12,764.71,772.72,127.93,-924.32,364.26,1.03,1.66,0.18,146.57
18767,779.78,770.34,776.11,764.68,772.73,131.35,-947.27,372.56,-1.58,2.63,-1.05,146.35
18801,779.65,770.36,775.95,764.79,772.69,126.95,-945.80,362.30,-0.24,0.10,3.33,140.78
18835,779.60,770.43,775.72,764.90,772.66,108.40,-932.13,373.54,0.05,-1.53,-0.61,133.23
18869,779.44,770.36,775.67,764.95,772.61,111.82,-934.57,364.26,-0.50,2.58,0.97,132.20
18903,779.43,770.49,775.60,764.97,772.62,120.12,-934.08,370.12,0.11,0.70,-1.62,129.21
18937,779.28,770.49,775.58,765.00,772.59,120.12,-935.06,364.26,0.27,3.25,2.35,128.77
18971,779.29,770.48,775.54,765.07,772.60,116.70,-942.38,359.37,2.59,0.25,1.11,126.84
19005,779.31,770.48,775.54,765.06,772.60,123.05,-945.31,371.58,1.18,0.47,4.20,126.88
19039,779.20,770.62,775.53,765.02,772.59,113.28,-933.11,363.77,1.39,-0.94,-0.39,126.51
19074,779.15,770.57,775.49,765.07,772.57,117.68,-944.34,373.05,0.64,1.34,0.53,125.37
19108,779.19,770.54,775.45,765.13,772.58,114.26,-939.94,371.58,1.56,0.91,0.18,123.74
19142,779.08,770.53,775.51,765.10,772.56,129.39,-940.92,366.70,1.82,1.35,-2.31,126.05
19175,779.06,770.57,775.47,765.15,772.56,123.05,-936.52,368.16,1.28,-0.56,0.66,123.97
19209,778.99,770.58,775.53,765.24,772.58,114.26,-931.15,354.98,1.37,0.98,-1.57,124.28
19242,778.98,770.58,775.50,765.25,772.58,119.14,-947.27,373.54,1.31,1.34,-0.55,123.33
19276,778.96,770.60,775.47,765.15,772.55,112.79,-935.55,363.77,2.01,-2.32,1.32,124.18
19310,778.93,770.57,775.52,765.22,772.56,112.30,-928.71,372.07,1.50,0.74,1.72,124.57
19343,778.85,770.55,775.54,765.25,772.55,118.16,-945.31,365.23,0.47,2.05,0.35,125.26
19377,779.02,770.53,775.53,765.24,772.58,131.35,-934.08,375.49,0.11,-0.15,-2.11,124.66
19411,778.92,770.51,775.48,765.15,772.52,120.12,-939.94,368.65,0.03,1.18,-0.92,125.05
19445,779.12,770.57,775.39,765.16,772.56,114.75,-938.96,360.35,-1.87,-1.70,-1.29,121.66
19479,779.06,770.47,775.37,765.17,772.52,126.46,-953.12,363.77,-1.03,1.94,0.03,121.95
19513,779.20,770.50,775.41,765.17,772.57,117.19,-953.12,357.91,-0.07,1.34,-1.01,122.22
19546,779.27,770.46,775.36,765.12,772.55,117.19,-939.45,355.47,-0.42,1.98,1.22,121.80
19582,779.37,770.48,775.30,765.08,772.56,115.72,-943.36,364.26,1.82,1.71,0.00,120.50
19616,779.43,770.39,775.34,765.00,772.54,114.26,-931.64,363.28,1.43,0.66,0.29,123.16
19650,779.52,770.42,775.23,765.01,772.55,114.75,-948.24,371.58,0.50,0.46,1.67,119.73
19684,779.67,770.44,775.22,764.97,772.58,128.42,-949.71,362.79,1.55,2.08,1.56,119.27
19718,779.72,770.39,775.26,765.00,772.59,110.84,-928.22,364.26,0.55,2.11,-0.27,120.09
19752,779.75,770.43,775.22,765.01,772.60,118.16,-934.57,370.61,1.01,-0.72,0.41,118.43
19786,779.80,770.52,775.23,764.96,772.63,117.68,-943.85,358.40,0.73,2.29,0.31,118.58
19821,779.82,770.42,775.21,764.97,772.61,130.86,-955.57,357.42,0.69,0.00,0.82,118.84
19855,779.85,770.45,775.18,764.92,772.60,115.23,-944.34,367.19,1.78,0.95,1.79,118.22
19889,779.88,770.44,775.21,764.99,772.63,107.42,-934.57,370.12,-0.37,1.89,1.56,118.00
19923,779.95,770.45,775.23,765.04,772.66,118.65,-944.82,364.26,2.82,-0.70,-0.15,117.61
19957,779.94,770.48,775.17,765.00,772.65,122.07,-941.89,374.51,-1.13,2.39,1.42,116.48
19991,779.90,770.41,775.20,764.95,772.62,125.00,-939.45,355.96,-0.49,-0.03,0.38,118.54
20025,779.93,770.41,775.15,764.97,772.62,113.77,-946.29,354.49,0.31,1.91,0.10,116.88
20059,779.93,770.44,775.15,765.00,772.63,113.28,-940.92,366.21,-0.78,1.65,-1.82,116.27
20093,779.99,770.37,775.15,765.01,772.63,126.46,-937.99,367.68,1.49,1.47,0.81,116.54
20128,780.00,770.35,775.06,764.92,772.58,106.93,-951.66,357.91,1.70,2.71,0.24,115.84
20162,779.98,770.38,775.10,764.91,772.59,116.21,-948.73,380.86,1.44,1.12,0.76,116.58
20196,780.03,770.31,775.07,764.86,772.57,121.58,-937.50,370.61,0.95,0.60,-0.07,116.95
20230,780.08,770.32,775.08,764.85,772.58,119.14,-937.50,359.86,1.48,-0.34,-0.06,117.36
20264,780.23,770.32,775.06,764.91,772.63,112.79,-937.01,363.28,-0.34,0.79,1.92,115.20
20298,780.33,770.32,775.02,764.82,772.62,118.65,-929.69,379.39,0.10,-0.24,-1.98,115.19
20332,780.45,770.27,774.97,764.87,772.64,122.56,-950.68,354.00,-0.63,3.11,1.00,113.44
20366,780.68,770.16,774.92,764.78,772.63,123.05,-936.04,366.70,1.05,1.62,0.83,113.56
20401,781.03,770.07,774.86,764.67,772.66,110.35,-947.75,362.30,-1.41,1.27,0.83,113.09
20435,781.30,770.02,774.63,764.54,772.62,120.12,-941.89,371.09,-1.69,1.98,-1.05,108.70
20469,781.56,769.94,774.50,764.58,772.64,110.84,-945.31,355.47,-1.21,-0.15,1.02,104.62
20503,781.81,769.81,774.49,764.49,772.65,120.12,-941.89,361.33,0.66,2.11,-0.28,105.97
20539,782.03,769.81,774.37,764.42,772.66,119.14,-936.52,373.05,-1.63,0.24,-1.73,103.16
20573,782.34,769.75,774.22,764.34,772.66,117.19,-946.29,369.63,1.73,1.24,0.30,99.99
20607,782.72,769.56,774.11,764.20,772.65,116.70,-935.55,350.59,1.52,0.55,-0.71,99.63
20641,782.90,769.48,774.01,764.12,772.63,106.45,-934.08,373.54,3.40,1.21,-1.51,98.31
20675,783.01,769.41,773.95,764.11,772.62,111.33,-955.08,369.63,2.47,1.65,0.28,97.10
20709,782.91,769.38,773.94,764.11,772.59,124.02,-945.31,354.98,-0.38,-0.07,0.51,97.60
20743,782.80,769.41,773.91,764.10,772.55,117.19,-950.68,363.77,0.43,1.83,0.15,97.00
20777,782.73,769.48,773.90,764.20,772.58,126.46,-955.08,360.35,0.79,1.21,1.25,94.98
20810,782.59,769.46,774.02,764.25,772.58,109.37,-943.85,355.47,0.73,2.28,1.68,98.03
20844,782.46,769.40,773.97,764.30,772.53,123.05,-940.43,369.14,0.96,2.67,0.26,96.91
20878,782.23,769.40,773.97,764.30,772.47,124.02,-942.38,362.30,0.21,0.99,0.43,97.61
20911,782.09,769.46,774.03,764.30,772.47,109.37,-936.52,372.07,0.40,2.86,-0.85,99.15
20945,782.21,769.38,774.01,764.36,772.49,121.58,-920.90,360.84,1.05,3.16,-2.34,97.95
20979,782.58,769.42,774.01,764.48,772.62,121.09,-937.50,360.35,3.17,0.42,0.15,94.82
21013,782.67,769.34,773.97,764.40,772.59,114.75,-937.50,370.12,-1.36,2.11,-1.69,95.16
21046,782.02,769.44,773.98,764.48,772.48,110.84,-946.29,364.75,1.83,2.30,-0.82,95.52
21080,781.60,769.43,774.10,764.62,772.44,116.70,-942.38,358.89,0.25,3.69,0.36,97.99
21114,781.42,769.35,774.19,764.69,772.41,117.19,-946.29,356.93,1.58,2.35,2.01,100.45
21148,781.41,769.37,774.16,764.73,772.42,118.16,-936.52,362.30,1.37,1.74,-2.37,99.08
21182,780.44,769.56,774.37,764.93,772.32,109.37,-939.94,351.56,3.23,0.59,-0.66,103.12
21216,779.59,769.86,774.73,765.39,772.39,121.58,-939.94,374.51,3.86,5.95,0.99,105.87
21250,778.05,770.25,775.27,766.01,772.39,125.00,-951.17,375.00,2.42,3.38,1.27,112.55
21284,776.67,770.66,776.00,766.72,772.51,125.00,-952.64,363.77,2.03,1.48,0.08,121.56
21318,775.65,771.14,776.64,767.41,772.71,116.21,-937.01,369.63,0.89,1.49,2.02,127.05
21352,774.95,771.53,777.32,768.01,772.95,121.09,-924.80,374.51,3.13,2.32,2.52,134.54
21386,774.13,771.88,777.96,768.55,773.13,107.42,-933.11,374.02,-1.14,3.64,2.85,142.39
21420,772.88,771.94,778.33,768.82,773.00,118.16,-939.45,379.39,1.18,3.10,1.91,151.44
21470,770.99,771.92,778.69,768.94,772.63,106.45,-939.45,367.68,1.89,4.15,3.07,165.16
21504,770.56,772.01,778.73,768.88,772.55,119.14,-938.96,386.72,0.05,1.85,0.00,167.85
21538,770.54,771.95,778.89,768.87,772.56,121.58,-925.78,373.05,-1.05,0.17,1.02,172.70
21572,770.70,771.98,778.72,768.71,772.53,117.68,-937.50,368.65,-3.80,1.11,-1.73,169.76
21606,771.03,771.87,778.54,768.46,772.48,100.10,-940.43,360.84,1.14,1.15,-0.84,169.01
21641,771.16,771.83,778.43,768.29,772.43,121.09,-947.75,369.14,-2.60,0.73,0.50,168.35
21675,771.01,771.86,778.29,768.08,772.31,109.37,-943.85,363.28,-2.81,0.29,0.60,168.32
21709,770.81,771.86,778.20,767.97,772.21,109.86,-941.89,370.61,2.53,2.82,0.54,168.46
21743,770.63,771.74,778.23,767.97,772.14,123.54,-942.87,371.58,2.27,4.19,2.07,170.76
21777,770.51,771.72,778.35,767.93,772.13,110.35,-932.13,376.95,-2.82,3.02,3.16,174.92
21811,770.17,771.77,778.44,768.09,772.12,101.56,-936.52,368.16,1.16,2.17,0.74,175.68
21845,769.92,771.57,778.33,768.00,771.96,97.66,-924.80,379.39,-0.97,0.63,-1.03,176.63
21879,769.04,771.34,778.19,767.83,771.60,111.33,-963.38,371.09,0.05,3.83,-0.19,180.53
21913,767.78,771.17,778.21,767.74,771.22,112.30,-950.20,359.86,2.55,4.19,2.44,187.97
21948,767.62,770.68,777.73,767.29,770.83,104.49,-933.59,387.21,2.53,2.58,-2.60,187.33
21982,768.34,770.43,777.51,767.04,770.83,106.45,-965.82,408.69,5.19,-0.27,1.24,184.89
22016,769.51,770.47,777.31,766.95,771.06,116.21,-948.24,404.79,-2.84,-0.10,-1.13,176.85
22050,771.08,770.45,776.98,766.72,771.31,116.21,-931.64,391.11,-0.57,-1.69,0.15,166.89
22084,771.79,770.40,776.54,766.20,771.23,124.51,-958.01,356.45,-3.13,1.30,1.61,161.54
22118,771.93,770.50,776.28,765.89,771.15,116.70,-945.31,365.72,-3.32,-1.93,0.47,158.32
22152,771.78,770.42,775.90,765.52,770.90,108.89,-963.87,357.91,-2.77,-1.73,0.79,155.33
22186,771.52,770.07,775.48,765.13,770.55,120.61,-949.22,363.28,1.21,0.18,1.08,154.49
22220,771.64,769.53,775.16,764.82,770.29,111.82,-961.91,328.61,0.95,2.38,-1.88,154.92
22255,770.35,769.57,774.91,764.73,769.89,118.16,-922.36,412.11,6.67,5.08,2.68,154.21
22289,770.57,769.77,774.88,764.65,769.97,93.26,-935.06,394.04,1.69,-0.82,4.29,152.22
22323,769.48,769.47,774.92,764.67,769.64,121.09,-1007.81,325.68,21.75,4.95,2.66,159.19
22357,770.11,768.61,774.43,763.93,769.27,93.26,-890.62,416.99,22.80,7.66,-2.12,162.44
22391,770.02,768.12,774.43,763.65,769.06,159.18,-935.06,412.60,16.18,1.12,-0.40,170.89
22426,769.62,767.59,773.93,763.20,768.59,116.70,-937.01,406.25,9.53,4.02,0.76,170.62
22460,770.02,767.44,774.20,763.19,768.71,97.17,-860.84,488.77,9.85,-1.07,-0.75,177.42
22493,768.83,767.86,774.89,763.66,768.81,120.12,-968.26,394.53,7.84,3.82,2.80,188.46
22527,767.45,767.89,775.63,764.09,768.76,119.63,-983.89,401.37,16.70,6.34,12.55,204.86
22560,767.10,768.07,776.93,764.79,769.22,84.96,-838.38,473.14,21.21,0.45,11.44,226.69
22594,765.45,768.15,778.23,765.85,769.42,113.77,-982.42,412.11,5.88,4.34,4.57,248.59
22628,763.97,768.37,780.17,767.17,769.92,56.64,-816.41,499.51,31.27,6.85,16.24,280.88
22662,762.14,768.87,783.18,769.30,770.87,97.17,-922.85,463.87,12.19,3.66,10.98,326.55
22696,759.18,768.72,786.03,771.25,771.29,86.91,-936.52,469.73,22.70,3.79,10.71,380.27
22730,757.96,768.71,789.07,773.32,772.27,46.39,-811.52,506.35,36.10,2.91,16.47,429.74
22763,756.56,768.97,792.27,776.18,773.50,71.29,-836.43,497.07,11.17,3.02,5.28,470.27
22797,755.05,768.79,795.67,778.52,774.51,64.45,-976.56,487.30,6.53,1.72,14.09,527.08
22831,754.26,768.75,798.35,780.28,775.41,55.18,-850.59,519.04,13.42,7.20,15.21,571.20
22865,753.98,768.73,800.83,781.89,776.36,13.18,-875.98,555.66,12.33,11.56,15.13,610.30
22899,753.59,768.46,802.86,782.64,776.89,89.84,-885.25,548.34,-0.59,6.94,20.63,653.37
22933,753.44,768.18,804.76,782.26,777.16,-26.86,-824.71,489.75,5.51,15.34,24.81,709.13
22968,753.34,768.23,806.47,782.71,777.69,12.70,-896.00,515.62,1.87,-3.47,17.30,744.70
23002,753.34,768.10,807.71,782.83,778.00,-13.67,-859.86,533.69,3.52,5.95,21.07,775.07
23036,753.24,767.92,808.53,782.85,778.14,-39.06,-831.05,520.02,7.41,7.19,16.80,797.05
23070,753.24,768.01,809.26,783.35,778.46,-39.55,-872.56,515.14,4.64,5.22,10.36,806.92
23104,753.22,768.03,809.72,783.99,778.74,-62.99,-832.52,527.83,12.80,4.02,10.95,809.13
23138,753.20,768.26,810.02,784.97,779.11,-106.93,-860.35,503.42,6.21,-9.76,5.09,800.31
23172,753.17,768.31,810.30,786.07,779.46,-97.17,-924.32,458.50,14.97,-28.21,6.73,790.86
23206,753.12,768.31,810.65,786.90,779.75,-7.81,-780.76,594.73,21.96,-36.27,5.59,787.52
23240,753.11,768.27,810.50,787.47,779.84,28.32,-797.36,585.94,17.84,-31.95,0.35,775.62
23275,753.00,768.36,810.01,787.47,779.71,-16.60,-802.73,596.19,12.23,-35.75,-6.11,763.05
23309,753.12,768.38,807.56,786.84,778.97,80.08,-756.35,607.91,5.01,-27.02,-9.18,710.71
23344,753.66,768.21,801.50,785.62,777.25,164.06,-660.64,454.59,17.65,13.27,-11.64,577.36
23378,754.56,767.98,798.53,783.57,776.16,43.95,-911.13,546.87,-24.06,-10.40,-20.25,532.32
23413,755.45,767.63,796.06,781.75,775.22,12.70,-792.97,596.19,-15.06,-1.32,-20.16,497.28
23447,756.22,767.36,793.85,779.74,774.29,69.34,-824.22,562.99,-28.62,1.42,-18.60,471.33
23481,756.76,767.07,792.51,778.21,773.64,63.96,-886.23,549.80,-24.20,-1.79,-15.12,460.89
23515,757.46,766.91,791.80,776.98,773.29,43.95,-808.59,560.06,-22.13,-2.75,-14.82,460.33
23549,758.57,766.71,790.62,775.38,772.82,49.80,-892.09,515.14,-27.01,-2.40,-20.09,452.07
23583,759.31,766.64,789.68,773.89,772.38,106.45,-867.68,500.98,-23.69,-1.26,-12.87,448.75
23617,760.13,766.60,789.29,772.51,772.13,104.00,-873.54,482.42,-34.60,-4.11,-12.65,456.88
23651,760.94,766.58,788.49,771.13,771.79,130.86,-912.11,456.05,-34.97,-3.97,-13.40,454.42
23685,761.74,766.65,787.59,769.88,771.46,120.12,-903.32,453.12,-20.29,-2.41,-8.82,447.09
23719,762.12,766.66,786.33,768.62,770.93,136.23,-936.04,432.62,-19.79,-5.91,-5.63,433.04
23753,763.34,766.66,785.06,767.30,770.59,90.82,-867.68,457.03,-14.02,-4.48,-4.73,416.62
23788,765.20,766.86,784.39,766.34,770.70,152.83,-948.24,383.30,-11.34,-5.27,4.02,406.06
23822,766.53,766.91,783.77,765.66,770.72,120.12,-899.90,429.69,-13.42,-6.92,2.61,395.60
23856,766.97,767.03,783.14,765.02,770.54,150.88,-957.52,380.37,-10.38,-4.41,3.65,386.97
23890,768.06,767.11,782.98,764.50,770.66,129.39,-927.25,409.67,-8.60,-4.14,3.05,386.08
23924,769.15,767.26,782.43,764.08,770.73,125.00,-904.79,409.18,-3.08,-3.21,1.02,373.75
23958,769.55,767.50,781.84,763.76,770.66,127.44,-941.41,396.97,-4.64,-0.90,5.15,360.30
23992,771.08,767.82,781.34,763.40,770.91,123.54,-941.41,381.35,-5.33,-2.76,4.69,345.47
24025,771.72,768.10,781.24,763.34,771.10,122.56,-958.01,391.60,-3.74,-0.30,2.52,339.42
24059,771.22,768.60,780.59,763.12,770.88,126.46,-916.50,373.54,-7.24,-1.57,6.28,323.98
24092,769.80,769.43,780.39,763.05,770.67,148.93,-963.38,350.10,-4.30,-1.78,4.69,318.35
24126,766.09,771.02,780.82,763.42,770.34,134.77,-942.87,365.23,-1.83,1.31,6.05,323.68
24159,761.31,772.72,782.02,764.25,770.08,143.07,-974.12,354.49,14.12,8.79,10.29,343.97
24194,758.89,773.77,784.07,764.94,770.42,107.42,-1038.09,394.04,37.46,14.51,20.82,384.95
24227,758.19,774.18,785.55,765.37,770.82,106.93,-824.71,496.58,32.09,-25.85,25.09,414.45
24261,758.47,774.71,786.08,765.87,771.28,84.47,-733.89,553.22,1.22,1.77,-2.60,415.01
24296,759.67,775.45,786.18,766.06,771.84,64.94,-894.53,403.81,-17.83,-16.22,-11.05,404.95
24330,763.69,775.26,784.90,765.96,772.45,79.59,-981.45,368.65,-3.95,-7.07,-15.61,362.10
24364,767.93,774.66,782.94,765.32,772.71,124.51,-947.75,406.74,9.73,-1.50,-3.04,312.93
24398,770.06,773.98,781.43,764.87,772.59,101.07,-950.20,394.53,10.09,4.92,-4.62,280.03
24432,773.12,772.84,778.09,764.80,772.21,87.40,-920.90,404.79,2.15,5.47,-7.73,196.48
24466,776.01,772.30,775.10,764.74,772.04,118.16,-924.32,408.69,2.08,5.21,-3.74,117.48
24500,778.36,772.11,773.56,764.85,772.22,115.23,-910.64,410.16,-0.62,0.24,-3.78,70.74
24534,779.07,771.85,773.33,764.85,772.27,116.70,-931.64,410.16,-4.41,1.37,0.03,64.70
24568,778.84,772.04,773.58,764.79,772.31,117.19,-924.80,408.69,-10.34,-2.39,0.39,71.13
24602,778.60,772.12,773.94,764.61,772.32,113.28,-944.82,386.23,-4.15,-0.77,3.73,83.03
24636,778.57,772.11,773.94,764.29,772.23,112.79,-939.45,390.14,-1.95,-3.32,1.71,87.92
24670,779.54,772.24,773.85,764.06,772.42,113.77,-920.41,386.23,-10.44,-1.18,2.58,84.53
24704,781.20,772.42,773.79,763.94,772.84,113.77,-906.25,392.58,-6.18,-1.40,2.36,77.62
24738,783.75,772.39,773.77,763.88,773.45,123.54,-961.91,346.68,-2.52,2.49,-0.61,69.57
24773,783.48,772.46,774.01,763.80,773.44,128.42,-944.82,359.37,6.24,2.76,0.13,77.05
24807,782.54,772.43,774.27,764.00,773.31,128.91,-925.29,390.62,3.66,0.92,-0.93,84.08
24841,781.23,772.52,774.52,764.19,773.11,109.37,-944.82,375.00,4.77,4.62,0.68,91.40
24875,780.64,772.70,774.75,764.36,773.11,117.68,-928.22,403.81,0.76,1.60,1.69,95.16
24909,780.38,772.92,774.97,764.47,773.19,120.61,-957.52,373.54,1.41,0.85,-0.18,98.13
24943,779.64,773.08,775.04,764.74,773.13,121.09,-934.08,408.69,1.94,4.10,1.52,97.25
24977,779.07,773.13,775.23,764.70,773.03,115.23,-926.76,396.00,-3.17,1.48,1.07,104.04
25011,777.88,773.34,775.48,764.83,772.88,129.88,-963.87,371.58,-0.44,1.00,3.45,110.73
25045,776.09,773.70,775.83,765.03,772.66,121.09,-941.89,375.00,-3.50,1.39,4.85,119.82
25079,773.59,774.29,776.56,765.23,772.42,114.26,-930.66,386.72,0.61,2.39,5.17,138.85
25114,770.44,774.92,777.76,765.79,772.23,114.75,-927.73,367.68,-0.78,6.49,2.60,166.38
25148,766.88,775.83,779.22,766.47,772.10,111.33,-948.73,379.39,4.77,4.99,8.34,197.58
25182,763.30,776.76,781.01,767.39,772.12,122.56,-931.15,378.42,5.43,7.03,3.98,233.38
25218,760.28,777.92,783.15,768.47,772.46,102.54,-948.73,396.00,12.06,4.82,11.82,271.86
25252,757.96,778.44,785.05,769.30,772.69,96.68,-944.82,415.53,17.69,8.58,15.18,310.81
25286,755.59,779.06,786.88,770.03,772.89,-157.71,-794.92,103.03,42.19,15.40,5.36,348.76
25320,753.91,779.07,788.53,770.69,773.05,43.95,-947.27,398.44,6.75,-1.14,14.34,385.82
25354,752.96,778.39,789.16,770.97,772.87,63.96,-924.32,450.68,3.61,-22.21,14.54,406.10
25388,752.60,778.10,789.24,770.87,772.70,104.49,-878.91,501.95,4.75,-12.53,4.91,413.07
25422,752.69,778.11,789.47,770.97,772.81,41.99,-826.66,468.75,4.00,4.24,-3.67,417.26
25456,753.23,777.89,788.98,770.88,772.74,64.45,-879.88,450.20,-14.47,-9.08,-12.17,406.07
25490,754.88,777.50,787.36,770.32,772.51,67.87,-857.42,450.20,-21.13,-9.53,-19.77,371.42
25524,756.63,777.26,786.64,770.04,772.64,132.81,-1040.04,435.55,-32.04,-8.44,-16.98,353.64
25558,757.55,775.06,785.76,769.48,771.96,135.74,-994.14,362.30,6.16,4.53,-4.95,354.41
25592,758.98,773.82,784.33,768.68,771.45,99.61,-904.30,430.66,-0.44,1.10,-2.95,335.59
25626,760.67,773.34,782.50,767.75,771.06,119.14,-920.90,408.20,-13.79,-3.27,-4.89,301.87
25659,762.38,772.70,780.93,766.88,770.72,148.44,-978.03,378.42,-6.01,2.53,-1.25,274.88
25693,764.47,771.95,779.94,766.34,770.67,126.95,-945.31,388.67,-1.29,3.96,-2.02,257.03
25726,766.38,771.43,779.13,765.88,770.70,124.51,-918.95,395.02,0.47,3.47,-4.24,240.92
25760,766.47,770.80,778.18,765.64,770.28,122.56,-953.61,373.05,-1.05,3.97,-0.60,225.59
25794,767.36,769.88,777.27,765.05,769.89,137.70,-949.22,349.12,8.36,6.02,-1.79,216.03
25828,768.84,769.58,776.54,764.75,769.93,123.54,-925.29,408.20,19.06,8.50,0.08,199.58
25862,769.69,769.32,775.93,764.52,769.87,106.45,-942.38,372.07,11.18,6.85,-3.11,186.74
25896,772.42,768.56,775.38,764.14,770.12,136.23,-937.01,392.58,9.63,4.30,-1.90,175.62
25929,774.26,768.24,774.63,763.69,770.21,78.61,-844.73,523.93,26.37,4.15,-1.11,159.79
25963,777.01,768.35,773.44,762.94,770.44,105.47,-936.04,418.95,19.60,3.38,4.87,130.78
25997,778.95,768.25,772.99,762.34,770.63,125.00,-944.34,430.66,26.90,8.07,2.02,122.59
26031,778.57,767.63,772.22,761.84,770.07,76.66,-884.28,479.49,5.85,6.15,-1.16,116.94
26065,779.24,767.55,772.38,761.85,770.26,131.84,-877.93,466.31,7.58,1.00,0.27,119.05
26099,778.14,767.35,772.43,762.02,769.98,135.74,-902.83,437.99,3.34,1.53,-2.89,123.45
26133,775.88,767.84,773.14,762.37,769.81,127.44,-919.43,458.01,6.13,4.15,2.30,139.69
26169,774.01,768.60,774.64,763.25,770.13,134.77,-937.99,416.50,8.53,6.57,2.66,164.50
26203,771.97,768.96,775.96,764.24,770.28,105.47,-907.71,457.52,2.30,1.79,2.52,186.72
26237,769.41,768.77,776.69,764.77,769.91,104.98,-891.11,459.47,0.89,1.53,-0.52,207.49
26271,768.02,768.92,777.78,765.56,770.07,137.21,-947.75,415.53,2.31,4.72,4.23,226.50
26306,766.35,768.96,779.07,766.79,770.29,119.14,-907.71,479.00,22.20,3.78,13.24,246.14
26340,764.18,768.81,780.32,767.69,770.25,127.93,-924.80,442.87,19.35,6.37,9.49,272.61
26374,762.60,768.88,781.98,769.11,770.64,96.19,-872.56,477.05,28.46,6.47,10.00,298.07
26408,761.25,769.15,784.30,771.00,771.42,88.38,-875.00,494.63,18.61,4.09,11.24,330.39
26442,759.73,769.47,786.65,773.16,772.25,88.87,-878.42,492.19,17.44,5.26,13.79,359.70
26476,758.03,769.92,789.12,775.39,773.12,61.52,-835.45,529.79,17.35,3.76,10.11,390.76
26510,756.40,770.21,791.55,777.39,773.89,45.90,-870.12,543.46,9.53,3.01,14.30,425.12
26544,755.65,770.70,793.81,779.10,774.82,42.97,-818.36,533.69,12.74,7.82,13.10,454.77
26578,754.77,771.37,796.62,781.31,776.02,84.47,-866.21,528.81,6.76,2.53,9.18,489.89
26612,753.98,771.46,798.77,782.82,776.76,28.81,-897.95,534.18,11.15,2.98,11.96,523.28
26647,753.92,771.88,800.59,784.09,777.62,7.81,-827.64,553.71,8.90,6.78,11.22,546.79
26681,753.78,772.28,802.10,785.58,778.43,59.08,-835.94,570.31,7.40,-0.59,3.41,559.92
26715,753.79,772.35,802.95,786.25,778.83,19.53,-852.05,542.97,-0.51,-0.08,3.31,570.56
26749,753.92,772.24,802.69,786.28,778.78,2.93,-835.94,552.25,8.02,-2.27,-1.31,563.99
26783,754.21,771.86,801.75,785.57,778.35,42.48,-844.24,556.64,8.13,0.53,-1.41,553.00
26817,754.44,771.57,800.21,784.45,777.66,36.62,-764.65,574.71,3.53,-2.22,-2.60,532.81
26851,755.01,771.21,798.28,782.61,776.78,48.34,-883.30,543.46,-4.63,-3.14,-9.33,512.76
26885,755.67,770.47,796.23,780.58,775.74,36.13,-851.56,555.66,-2.83,-2.13,-9.37,495.16
26919,756.86,769.86,793.31,778.41,774.61,60.06,-870.61,559.08,-4.46,-3.77,-12.11,455.15
26953,758.28,769.02,790.62,776.10,773.51,26.86,-851.56,560.55,-2.69,-4.85,-15.98,424.07
26988,759.79,768.35,787.81,773.91,772.47,88.87,-844.24,552.25,-22.28,-4.49,-18.33,386.43
27022,761.31,767.70,785.05,771.78,771.46,111.82,-877.93,528.32,-15.72,-2.15,-13.60,349.00
27057,763.30,767.03,782.59,769.58,770.63,76.66,-859.37,513.18,-18.66,-2.51,-14.28,318.54
27092,765.32,766.56,780.27,767.95,770.03,94.73,-829.10,525.39,-21.33,-4.67,-15.27,281.65
27126,767.14,766.10,778.22,766.39,769.46,134.28,-926.27,466.31,-27.76,-3.16,-15.21,250.99
27160,769.13,765.58,776.49,765.26,769.11,124.51,-903.32,471.19,-18.97,-3.97,-11.64,221.82
27193,770.50,765.12,774.94,764.20,768.69,125.49,-833.98,494.14,-18.84,-2.11,-13.48,197.84
27227,772.25,764.76,773.90,763.63,768.63,122.56,-895.51,447.27,-15.43,0.61,-12.33,177.16
27260,773.86,764.68,773.23,763.21,768.74,167.48,-962.40,443.36,-2.18,2.85,-2.39,161.84
27294,775.93,764.29,772.63,762.89,768.93,125.98,-867.19,487.30,-7.99,3.68,-1.89,147.70
27328,778.17,763.97,771.65,762.30,769.02,145.51,-890.14,462.89,-0.98,2.60,-0.71,126.76
27362,780.22,763.57,770.73,761.69,769.05,136.72,-891.60,462.40,-6.19,0.33,-1.07,109.02
27395,779.93,763.58,770.55,761.68,768.94,164.55,-915.04,383.79,-12.78,-1.17,2.63,105.56
27429,780.41,763.31,770.03,761.24,768.75,136.72,-878.42,456.54,-11.63,-2.24,1.27,99.57
27463,781.37,762.99,769.61,760.87,768.71,104.98,-910.16,478.52,1.40,2.99,0.79,93.80
27497,781.40,762.47,768.06,760.18,768.03,171.87,-922.36,349.12,-18.85,-3.21,1.15,69.48
27531,780.03,762.46,767.66,760.11,767.56,96.19,-924.80,512.21,1.37,1.09,3.93,65.38
27564,779.68,762.30,767.48,759.94,767.35,157.23,-947.27,388.18,6.91,2.63,0.80,65.68
27598,779.63,761.84,766.75,759.68,766.97,86.43,-913.09,454.10,-5.84,4.17,-2.02,55.28
27633,775.64,761.59,765.45,759.28,765.49,178.22,-848.14,419.43,-32.06,-7.36,4.18,44.42
27667,773.46,762.18,766.15,759.58,765.34,-10.74,-789.06,551.27,17.89,11.21,8.07,60.11
27701,773.72,761.81,765.83,759.48,765.21,65.43,-914.55,344.24,8.75,6.71,-1.52,55.91
27735,774.47,761.40,764.61,759.05,764.88,-30.76,-909.18,603.52,-37.93,6.18,-5.88,32.55
27769,775.02,761.36,764.23,759.04,764.91,201.66,-797.85,297.36,16.11,7.49,-16.85,21.58
27803,778.62,761.50,764.01,759.00,765.78,108.89,-959.47,479.00,15.69,21.18,23.20,3.38
27837,783.85,761.92,764.25,759.05,767.27,261.23,-863.28,388.18,4.81,-1.04,4.63,-12.75
27871,787.79,762.15,764.51,759.08,768.38,119.63,-894.04,389.65,-26.81,-10.54,-0.19,-22.22
27905,790.21,762.51,764.88,759.25,769.21,94.24,-886.72,413.57,4.05,-1.69,3.61,-26.52
27940,789.88,762.88,765.41,759.34,769.38,163.57,-929.69,412.11,8.37,1.00,1.40,-16.48
27975,787.98,763.09,766.23,759.67,769.24,114.75,-897.95,428.22,-2.56,-0.57,2.49,3.78
28009,787.08,763.41,767.12,759.98,769.40,120.12,-939.94,388.67,-3.62,-1.47,4.08,21.90
28043,786.22,763.84,767.70,760.31,769.52,145.02,-923.83,394.04,-8.58,-0.75,3.11,31.11
28078,785.75,764.16,768.32,760.62,769.71,126.95,-934.08,401.37,-9.85,-2.92,0.75,40.88
28112,785.03,764.67,768.89,760.88,769.87,132.81,-921.87,389.16,-7.60,-4.12,3.78,49.70
28146,784.85,765.02,769.38,761.19,770.11,129.39,-918.95,391.11,-6.18,-6.27,3.15,55.18
28180,785.32,765.23,769.76,761.40,770.43,114.26,-931.64,391.60,-7.49,-4.53,3.40,58.43
28214,786.46,765.44,769.89,761.43,770.81,127.93,-936.52,392.58,-12.21,-4.09,0.55,55.33
28248,786.73,765.38,769.96,761.49,770.89,161.13,-986.33,342.29,-12.25,0.26,3.50,56.03
28282,786.11,765.38,770.23,761.62,770.84,132.81,-935.06,393.55,6.66,2.40,-0.07,62.66
28316,784.34,765.28,770.32,761.81,770.44,127.44,-916.50,405.27,3.76,4.10,3.05,69.11
28350,783.69,765.38,770.50,761.83,770.35,123.05,-927.25,376.95,1.03,1.51,1.34,74.70
28384,783.59,765.61,770.94,762.01,770.54,120.12,-924.80,392.58,1.03,2.73,1.23,81.53
28419,783.55,765.86,771.62,762.43,770.87,123.54,-933.59,390.14,-0.03,0.90,0.70,90.61
28453,783.14,765.98,772.17,762.61,770.98,133.30,-922.36,394.53,1.76,3.46,0.50,101.92
28487,782.35,766.07,772.42,762.68,770.88,126.95,-930.66,385.74,-2.86,1.28,2.15,109.10
28521,781.75,766.06,772.51,762.83,770.79,119.63,-937.01,376.95,-0.60,0.54,-0.15,111.25
28555,781.51,766.09,772.65,762.92,770.79,124.02,-931.15,385.25,-1.44,3.49,2.98,114.15
28589,781.48,766.22,772.84,763.03,770.89,116.21,-942.38,379.39,-0.44,1.80,2.53,116.32
28623,781.49,766.37,773.07,763.15,771.02,118.16,-929.20,375.98,0.15,1.18,-1.49,119.05
28657,781.61,766.56,773.15,763.31,771.16,134.77,-939.45,381.35,-0.27,0.49,-2.59,116.65
28691,781.67,766.69,773.27,763.41,771.26,114.75,-928.22,374.51,-0.93,2.17,1.02,116.98
28726,781.89,766.79,773.37,763.57,771.40,123.05,-927.73,378.91,-0.35,1.70,0.50,115.57
28760,781.72,766.91,773.44,763.76,771.46,139.16,-936.52,392.09,0.80,2.89,0.58,114.06
28793,781.21,766.99,773.69,763.95,771.46,119.63,-937.50,383.79,-0.16,3.21,2.70,118.47
28827,780.66,767.10,774.00,764.07,771.46,128.91,-935.06,381.84,-1.28,1.57,0.08,125.58
28860,779.61,767.38,774.38,764.34,771.43,128.42,-942.38,382.32,2.55,2.84,2.49,132.62
28894,778.58,767.48,774.99,764.43,771.37,109.37,-944.34,387.21,1.99,-0.17,-0.46,149.21
28929,777.42,767.57,775.73,764.62,771.33,120.61,-931.64,386.72,2.44,3.02,-0.69,167.96
28963,776.16,767.74,776.75,764.81,771.36,116.21,-924.32,385.74,-0.38,2.21,0.08,193.51
28997,773.51,767.98,778.31,765.21,771.25,130.86,-942.38,383.79,1.64,3.13,2.85,233.79
29031,770.45,768.06,780.23,765.51,771.07,112.30,-929.20,380.86,-0.09,-1.15,0.40,286.91
29064,766.75,768.24,782.10,765.96,770.76,120.12,-925.78,383.30,2.27,1.97,4.22,338.15
29098,763.28,768.33,784.11,766.37,770.53,125.49,-932.13,379.39,1.10,0.25,1.77,393.41
29132,761.60,768.24,785.42,766.66,770.48,100.10,-915.04,416.50,5.09,-0.87,2.05,428.28
29166,761.90,768.30,785.92,766.80,770.73,103.52,-897.95,435.55,-2.34,1.98,-0.40,437.00
29199,762.06,768.53,785.85,766.88,770.83,120.61,-950.68,368.16,-7.02,-0.27,0.53,431.85
29234,762.17,768.57,785.59,766.88,770.80,134.28,-930.18,376.95,-0.70,3.09,-1.69,424.58
29268,762.26,768.35,785.32,766.86,770.70,112.79,-933.11,395.02,-3.24,0.79,0.31,419.71
29302,762.06,767.99,784.83,766.40,770.32,129.39,-917.97,388.18,3.64,4.54,0.04,417.71
29336,762.77,767.75,784.43,766.21,770.29,119.63,-933.59,391.11,-1.37,2.05,-2.93,410.19
29370,762.71,767.76,783.66,765.85,769.99,127.44,-948.24,375.98,-0.23,2.82,-0.35,396.25
29404,763.77,767.79,783.21,765.72,770.12,91.31,-945.80,364.26,0.61,0.41,1.18,383.31
29438,764.54,767.56,782.56,765.37,770.01,108.89,-927.73,380.86,7.92,4.24,-0.16,371.30
29472,766.62,767.69,782.12,764.95,770.34,114.75,-939.45,374.51,11.76,3.27,-0.92,358.36
29506,766.69,767.84,781.47,764.78,770.20,130.37,-889.16,414.06,4.53,1.73,3.63,343.22
29541,767.09,768.04,780.89,764.69,770.18,111.82,-949.71,395.51,14.88,3.22,3.27,327.16
29575,766.22,768.08,780.70,764.70,769.92,105.47,-942.38,396.48,11.43,6.96,2.63,324.96
29609,765.60,767.71,780.98,764.59,769.72,143.07,-895.02,430.66,11.02,2.88,2.15,338.62
29643,765.74,767.34,780.98,764.17,769.56,118.16,-919.92,401.37,9.28,0.89,1.38,347.26
29677,764.96,767.48,780.85,764.32,769.40,126.95,-898.44,461.43,14.60,-0.98,1.03,343.43
29711,764.99,768.02,780.69,764.71,769.60,72.27,-859.37,451.17,11.42,-0.48,2.49,329.08
29745,763.80,768.17,782.04,765.73,769.93,132.32,-1026.86,408.20,-0.31,3.54,9.66,350.73
29779,763.23,768.05,783.42,766.20,770.22,115.23,-867.68,497.07,14.56,4.77,11.22,381.07
29813,763.78,768.21,784.02,766.30,770.58,75.20,-874.51,454.59,16.50,-2.15,5.57,391.51
29849,763.61,768.79,784.78,767.12,771.07,116.70,-910.16,459.96,8.89,5.99,4.85,394.09
29883,762.37,769.13,785.23,768.63,771.34,142.58,-976.56,439.45,13.56,9.93,11.11,384.87
29917,761.87,769.81,787.01,770.51,772.30,49.32,-808.11,521.97,23.49,1.34,12.44,397.58
29951,760.34,770.30,790.28,772.69,773.40,94.24,-993.16,454.10,4.79,2.18,13.13,448.43
29985,757.68,770.38,793.25,774.27,773.89,95.21,-957.03,491.21,26.98,5.23,18.69,507.53
30020,755.94,770.57,796.03,775.89,774.61,21.97,-870.61,492.19,27.28,8.52,18.69,557.56
30054,754.71,770.93,798.70,777.82,775.54,28.32,-851.56,500.49,9.60,5.72,11.21,596.92
30088,753.86,770.91,800.89,779.66,776.33,37.11,-912.11,526.37,8.30,-5.76,16.10,627.57
30122,753.72,770.35,802.09,780.29,776.61,50.29,-862.30,543.95,-1.30,18.20,22.86,653.14
30156,753.51,770.80,803.84,781.34,777.38,-62.01,-746.58,563.48,8.85,-0.34,10.57,678.39
30190,753.42,771.32,805.51,782.95,778.30,59.08,-855.96,548.34,-4.18,8.34,6.05,692.39
30224,753.36,771.63,806.49,783.66,778.78,7.32,-878.42,490.72,-0.04,1.52,2.97,703.98
30258,753.38,772.25,806.69,784.28,779.15,-36.62,-811.52,517.58,5.15,-9.19,-3.92,694.88
30292,753.32,772.87,806.06,784.90,779.29,57.13,-867.19,557.62,0.55,-6.89,-9.47,665.21
30326,753.34,773.16,804.60,784.50,778.90,6.35,-822.75,543.46,1.01,-13.30,-9.02,632.53
30361,753.75,773.38,802.35,783.56,778.26,44.92,-930.18,625.49,-0.94,-15.47,-11.08,587.14
30394,754.07,773.04,800.11,781.78,777.25,31.74,-876.95,543.95,-2.15,-2.86,-7.85,559.23
30428,754.98,772.56,797.81,779.96,776.33,35.16,-803.71,541.50,-1.34,0.11,-14.49,529.34
30461,755.78,772.09,795.18,778.22,775.32,52.25,-845.21,524.41,-13.76,-4.24,-17.04,490.25
30495,756.92,771.18,792.77,776.52,774.34,70.31,-955.57,491.70,-2.28,-1.07,-10.63,458.70
30528,758.17,770.35,790.45,774.98,773.49,78.12,-812.50,554.20,-6.67,-1.27,-12.02,425.84
30562,759.56,769.56,788.40,773.61,772.78,73.73,-906.25,494.14,-12.82,-2.33,-13.65,396.61
30596,760.55,769.04,786.73,772.36,772.17,102.05,-863.77,502.93,-13.66,-2.22,-11.69,374.25
30630,761.60,768.41,785.46,771.47,771.73,94.73,-864.26,506.84,-7.28,0.05,-9.18,357.00
30664,762.39,767.96,784.45,770.64,771.36,105.96,-856.93,511.23,-14.39,-2.05,-10.78,345.13
30697,762.92,767.60,784.08,770.13,771.18,114.26,-909.18,474.61,-11.36,0.37,-7.07,344.45
30731,763.42,767.34,783.97,769.69,771.11,99.12,-863.77,485.84,-7.00,0.63,-6.53,348.45
30766,763.80,767.20,783.85,769.30,771.04,115.23,-875.49,481.93,-19.82,-0.10,-8.21,350.98
30801,764.40,767.02,783.83,768.73,771.00,133.79,-923.34,447.27,-10.46,0.73,-2.70,358.22
30835,765.21,766.94,783.68,768.16,771.00,141.11,-920.41,447.27,-12.01,-0.24,-5.33,361.00
30869,765.82,766.80,783.91,767.80,771.08,140.62,-885.25,466.31,-5.08,-1.69,-1.04,370.93
30903,766.16,766.59,783.95,767.13,770.96,132.32,-920.90,422.36,-21.03,-2.28,0.51,382.36
30937,766.56,766.41,784.12,766.48,770.89,100.10,-885.25,466.31,-2.66,-0.35,1.24,396.04
30971,767.13,766.38,784.15,765.64,770.82,118.16,-928.22,407.71,-14.12,-2.37,3.37,407.52
31005,767.42,766.21,783.81,764.86,770.57,137.21,-909.18,454.59,-6.18,-1.67,1.18,411.04
31039,766.95,765.97,783.24,764.04,770.05,114.75,-940.92,389.16,-8.73,-3.39,-0.25,412.28
31073,766.77,766.03,782.68,763.38,769.71,125.49,-903.32,418.95,-9.41,-3.33,-0.45,408.41
31108,766.68,766.11,782.73,763.11,769.66,116.70,-913.09,420.90,-6.38,-2.95,4.26,413.08
31142,764.74,766.31,782.61,762.75,769.10,159.18,-898.44,434.08,-6.56,-2.92,2.93,420.51
31176,764.13,766.46,782.37,762.56,768.88,145.02,-913.57,397.95,-7.56,-3.89,4.46,418.25
31210,763.66,766.69,782.54,762.75,768.91,131.84,-922.85,392.58,0.78,-0.92,2.11,419.32
31244,763.40,766.93,782.87,762.94,769.03,126.46,-931.64,402.83,2.37,1.38,-0.42,423.96
31278,764.01,767.11,784.30,763.55,769.74,121.09,-912.60,412.11,8.97,5.46,-0.35,446.94
31312,764.79,767.43,785.19,764.24,770.41,129.88,-913.57,419.43,0.62,0.80,-1.12,453.72
31346,765.76,767.60,785.58,764.56,770.88,125.00,-922.36,383.30,0.05,0.07,-3.51,454.00
31380,766.62,767.71,785.55,764.63,771.13,125.49,-935.55,386.23,0.19,-0.57,-0.31,448.30
31414,767.77,767.64,785.08,764.44,771.23,126.46,-924.32,400.88,0.10,0.18,-3.38,436.00
31449,768.85,767.61,784.31,764.13,771.23,124.02,-929.69,401.86,-0.69,-1.85,1.69,418.11
31483,770.27,767.76,783.70,763.78,771.38,121.09,-906.74,415.04,-2.07,-0.46,3.53,402.04
31517,773.22,768.13,783.44,763.64,772.11,123.05,-913.57,396.48,-6.30,-0.92,2.82,384.37
31551,776.59,768.40,783.76,763.92,773.17,124.51,-935.55,381.35,-10.63,-2.73,2.53,374.40
31585,777.38,768.43,784.05,764.14,773.50,143.55,-966.31,357.91,-2.00,0.15,-0.18,375.43
31619,775.80,768.22,784.21,764.19,773.10,129.88,-934.08,381.35,5.29,3.21,1.66,385.96
31653,773.43,767.93,784.20,764.18,772.44,129.88,-949.22,385.74,1.56,3.79,-0.46,396.22
31687,771.80,767.74,784.23,764.25,772.01,115.72,-925.78,392.58,3.20,5.73,-1.39,402.97
31723,771.70,767.44,783.88,764.21,771.81,125.49,-936.04,375.49,1.60,2.33,-0.67,397.67
31757,772.49,767.35,783.57,764.08,771.87,125.00,-936.04,404.30,2.38,1.21,1.39,390.01
31791,773.64,766.91,782.99,763.79,771.83,118.16,-934.08,391.60,0.34,1.15,-0.76,379.41
31825,775.35,766.63,782.11,763.39,771.87,120.61,-906.25,400.39,-1.65,1.30,-2.48,359.64
31859,776.61,766.53,781.42,763.14,771.92,127.44,-937.50,379.39,-3.76,1.08,-0.55,342.59
31894,777.26,766.38,780.90,762.97,771.88,133.79,-934.08,370.12,0.56,1.63,0.57,331.13
31928,777.46,766.29,780.76,762.92,771.86,119.63,-934.57,379.88,-0.47,1.36,-0.11,328.35
31961,777.22,766.31,780.52,762.88,771.73,124.51,-929.20,385.25,0.79,1.27,1.94,323.73
31995,776.75,766.41,780.46,762.85,771.62,125.98,-927.25,379.39,4.06,0.42,1.42,323.41
32028,776.51,766.57,780.58,762.90,771.64,123.05,-923.34,388.67,1.43,2.82,1.02,325.22
32062,776.26,766.73,780.79,763.14,771.73,130.37,-930.18,388.67,0.50,1.54,-0.73,326.54
32095,775.78,767.08,781.15,763.33,771.84,109.86,-940.92,399.41,1.91,2.24,3.37,331.58
32129,775.65,767.24,781.43,763.55,771.97,112.79,-939.94,382.32,0.47,1.69,0.15,334.49
32163,775.49,767.46,781.85,763.75,772.14,131.84,-935.06,394.04,1.77,2.74,0.94,340.76
32197,775.61,767.44,781.98,763.92,772.24,117.19,-924.80,394.04,1.60,0.78,0.82,341.21
32231,775.77,767.50,781.97,763.97,772.30,116.70,-924.80,392.09,0.00,3.49,-0.59,339.23
32265,775.94,767.45,781.86,763.92,772.29,112.79,-948.73,374.02,-0.54,2.76,-1.24,337.17
32298,776.49,767.36,781.67,763.96,772.37,120.12,-929.69,393.55,1.62,-0.34,-0.27,330.66
32332,777.27,767.23,781.45,763.76,772.43,122.56,-927.25,389.16,-2.80,1.56,-1.82,326.31
32366,777.44,767.12,781.17,763.66,772.35,125.49,-932.62,381.35,0.51,3.47,-0.07,321.08
32400,777.05,767.21,781.30,763.65,772.30,125.49,-923.83,390.62,2.77,1.15,-0.04,325.19
32434,776.42,767.30,781.40,763.73,772.21,119.63,-927.25,396.00,1.40,-1.69,1.10,327.96
32468,775.19,767.46,781.80,764.05,772.13,136.72,-918.95,381.35,0.37,4.89,0.23,336.16
32502,773.13,767.70,782.28,764.38,771.87,127.93,-936.04,379.88,-0.63,0.86,2.43,348.38
32536,769.69,768.00,782.76,764.75,771.30,140.14,-958.50,370.12,0.66,5.32,3.31,364.34
32571,767.62,768.57,783.63,765.27,771.27,126.95,-906.25,360.35,6.98,6.30,1.93,380.68
32605,768.81,768.84,784.25,765.94,771.96,100.10,-890.62,449.22,-0.51,-0.03,-1.40,380.20
32640,769.68,768.98,783.99,765.84,772.12,141.11,-972.17,355.47,0.44,-0.22,-0.63,371.13
32674,769.70,769.00,783.83,765.80,772.08,135.74,-952.15,390.62,0.53,1.71,0.55,367.42
32708,769.63,768.81,783.48,765.71,771.91,108.89,-962.89,368.16,1.76,0.40,0.91,361.82
32743,768.75,768.44,783.17,765.49,771.46,124.02,-942.87,374.51,2.34,3.02,0.37,363.35
32777,768.07,768.00,782.74,765.11,770.98,130.37,-925.29,396.00,0.53,3.15,-1.54,364.20
32811,767.56,767.42,782.47,764.78,770.56,114.75,-916.50,380.37,2.18,2.51,0.13,368.48
32845,768.37,767.30,782.55,764.63,770.71,106.45,-915.53,418.95,1.40,-0.30,-1.56,370.94
32879,768.23,767.29,782.46,764.54,770.63,138.67,-943.85,367.68,0.79,0.72,1.40,370.40
32913,768.41,767.30,782.46,764.43,770.65,116.21,-911.13,412.11,1.11,0.44,1.95,371.56
32947,768.91,767.59,782.88,764.68,771.01,136.23,-919.92,430.66,1.32,1.57,0.43,374.34
32981,768.55,767.81,783.33,764.73,771.11,124.02,-932.13,374.51,9.63,-2.18,1.23,384.05
33015,768.37,767.82,783.39,764.66,771.06,149.90,-967.77,355.96,8.20,4.50,1.44,387.35
33050,769.74,768.01,783.44,764.66,771.46,125.49,-955.57,398.93,9.65,0.89,-3.37,382.16
33084,770.73,768.41,783.69,764.93,771.94,77.64,-969.73,401.86,23.31,2.44,1.00,377.87
33118,767.71,768.56,783.16,765.05,771.12,115.72,-922.36,433.59,4.31,4.89,1.84,372.06
33152,768.31,769.01,783.26,765.24,771.45,96.19,-882.81,424.32,10.82,3.63,0.57,366.00
33186,768.08,768.83,782.76,765.37,771.26,114.26,-947.75,411.13,12.95,0.92,1.61,353.98
33220,767.78,768.63,781.47,764.76,770.66,113.77,-887.70,442.87,15.91,4.11,0.78,333.37
33254,767.67,769.06,781.33,765.00,770.77,120.61,-907.71,434.57,7.47,1.32,2.34,323.46
33288,766.50,769.19,781.41,765.54,770.66,92.77,-873.54,461.43,4.48,0.52,2.27,320.53
33322,765.23,769.15,781.76,766.29,770.61,102.05,-935.55,422.36,-0.16,6.05,2.41,322.72
33356,764.78,769.19,782.44,767.10,770.88,113.28,-867.68,459.96,16.56,6.33,5.24,328.97
33391,763.79,769.28,783.41,768.40,771.22,139.16,-945.80,427.73,10.54,6.65,5.18,336.58
33425,761.59,769.06,784.61,769.59,771.21,143.07,-926.27,466.31,10.50,2.47,9.37,358.40
33459,759.86,769.08,786.58,771.34,771.71,105.96,-904.30,473.14,16.99,4.60,16.71,387.63
33493,758.53,769.32,788.93,773.24,772.51,84.47,-874.51,487.79,14.85,1.47,10.39,420.82
33527,756.74,769.90,791.57,775.16,773.34,76.66,-879.39,491.21,10.21,1.73,12.79,459.76
33561,754.69,770.13,794.02,776.90,773.94,65.43,-932.13,489.26,10.80,1.20,18.35,500.39
33596,753.68,770.27,796.16,778.64,774.69,88.38,-846.68,522.46,21.48,16.75,17.74,530.37
33630,753.27,770.60,798.73,780.62,775.80,29.30,-895.02,491.70,10.56,5.95,12.13,564.12
33663,753.10,770.43,802.27,781.51,776.83,72.75,-903.32,536.62,4.53,19.24,22.34,640.94
33697,752.94,770.00,805.77,781.64,777.59,15.63,-864.75,542.48,1.05,17.03,26.47,730.40
33730,752.85,769.55,809.80,781.40,778.40,-5.37,-875.00,528.32,3.59,15.17,19.17,838.32
33765,752.78,769.36,812.08,781.37,778.90,-40.04,-841.80,501.95,11.35,10.79,12.92,897.21
33798,752.74,769.61,813.00,782.12,779.37,-52.73,-841.80,524.41,3.83,-3.66,5.14,907.08
33832,752.78,769.82,813.55,782.64,779.70,-48.34,-839.36,535.16,9.73,-1.05,-2.24,911.47
33866,752.55,769.90,813.48,782.67,779.65,-34.18,-855.96,541.99,6.28,1.79,-5.47,909.42
33900,752.45,769.85,813.15,781.95,779.35,16.60,-857.91,566.89,-2.27,-11.53,-9.73,912.52
33934,752.24,769.16,812.63,780.03,778.52,2.93,-890.62,540.04,-0.76,3.08,-8.39,934.08
33967,752.07,768.89,812.05,777.76,777.69,-33.20,-784.67,563.48,-1.68,-1.79,-4.72,955.95
34001,751.86,769.25,811.48,776.76,777.34,-0.98,-821.78,508.79,-12.17,-8.53,-28.70,954.33
34036,752.02,769.43,810.93,777.10,777.37,20.51,-925.29,466.31,13.89,-13.13,-26.63,933.36
34070,752.50,768.87,810.74,777.18,777.32,324.71,-774.90,576.17,-9.73,2.98,-17.32,930.28
34104,753.52,768.15,810.52,775.97,777.04,76.17,-932.13,464.36,7.52,-6.14,-5.45,944.99
34138,754.47,768.16,808.35,774.87,776.46,37.11,-710.94,610.84,-14.54,-0.66,-16.44,903.86
34172,755.52,768.03,804.74,773.75,775.51,88.87,-980.96,430.18,-21.50,-0.60,-17.11,827.81
34206,756.40,767.63,803.13,772.61,774.94,87.89,-837.89,513.18,-10.66,1.18,-12.17,804.57
34240,757.88,767.34,801.49,771.47,774.55,79.59,-889.16,479.49,3.41,1.92,-7.77,777.83
34274,759.47,767.37,798.93,770.34,774.03,100.10,-819.82,504.88,-19.17,-4.09,-13.56,725.06
34308,760.73,767.36,796.73,768.98,773.45,134.28,-952.64,456.54,-39.20,-6.66,-18.77,685.83
34342,762.07,767.23,795.07,767.88,773.06,134.77,-944.34,427.25,-13.92,-2.76,-8.38,657.29
34377,763.67,767.01,793.81,766.95,772.86,160.16,-958.98,496.09,-24.27,-5.40,-5.15,635.85
34411,764.84,766.86,793.30,766.33,772.83,115.23,-902.83,421.39,1.71,0.67,-0.32,629.20
34445,766.18,766.96,792.75,765.81,772.92,142.58,-959.96,409.18,-13.24,-4.60,2.92,617.85
34479,767.19,766.99,792.23,765.35,772.94,118.16,-913.57,437.50,-13.42,-0.89,0.79,608.05
34515,767.55,766.88,791.55,764.74,772.68,86.43,-900.39,446.78,-2.24,-0.50,2.05,599.66
34549,766.87,766.87,791.67,764.52,772.48,121.58,-968.26,386.23,-5.13,0.63,2.44,608.18
34583,766.39,766.92,792.20,764.27,772.44,125.49,-922.85,422.85,-1.55,0.84,1.18,626.51
34617,764.29,767.00,792.86,764.38,772.13,164.06,-929.69,396.00,-9.79,-1.31,3.73,647.85
34651,763.04,767.30,793.82,764.55,772.18,126.46,-918.95,414.55,-5.19,-3.36,5.57,671.25
34685,762.14,767.53,793.93,764.56,772.04,127.93,-904.30,399.90,-5.44,-2.34,6.27,675.13
34719,761.64,767.76,793.67,764.55,771.90,117.68,-929.20,404.79,-7.95,-4.38,-1.52,668.49
34753,761.61,767.68,793.49,764.51,771.82,97.17,-941.41,396.48,-1.38,0.85,-3.04,665.49
34787,762.42,767.47,793.09,764.67,771.91,101.07,-934.57,394.04,6.22,5.24,-2.95,652.10
34822,763.37,767.29,792.71,764.89,772.06,140.14,-930.18,407.23,2.03,2.81,-0.52,637.52
34856,764.58,767.36,792.46,765.07,772.37,116.70,-906.74,429.20,1.25,0.69,-0.02,623.96
34890,765.95,767.54,792.33,765.20,772.76,124.51,-938.48,392.58,0.39,-1.04,-0.26,612.65
34924,767.36,767.63,791.78,765.24,773.00,116.70,-937.50,410.16,-2.50,-1.97,-0.64,592.83
34958,768.80,767.55,790.86,765.06,773.07,118.16,-908.20,408.69,-3.44,-0.93,1.23,568.20
34992,770.27,767.35,789.88,764.79,773.07,154.79,-938.48,360.84,-7.46,-1.82,-2.37,544.30
35026,771.45,767.12,788.64,764.35,772.89,123.05,-927.73,398.44,-6.85,-1.98,2.98,517.63
35060,773.75,767.11,787.70,764.05,773.15,125.00,-915.53,401.86,-4.52,-1.63,2.95,490.94
35094,775.94,767.28,787.06,764.06,773.58,115.72,-936.52,362.79,-6.33,-1.05,0.47,465.88
35128,775.86,767.26,786.82,764.22,773.54,139.16,-950.20,383.79,0.59,0.77,-0.91,458.00
35162,774.70,767.22,786.84,764.25,773.25,121.58,-925.29,383.30,1.37,1.22,-0.15,462.25
35195,773.39,767.19,787.08,764.37,773.01,122.56,-928.71,403.32,1.34,2.72,2.05,471.24
35229,772.45,767.12,787.26,764.43,772.81,124.51,-935.55,396.00,0.67,1.54,-0.37,478.64
35262,772.22,767.00,787.29,764.46,772.74,112.30,-931.15,404.30,0.66,1.28,-1.97,480.89
35296,772.22,766.92,787.11,764.37,772.66,129.39,-938.48,382.81,-0.24,2.35,-1.24,478.32
35329,772.29,766.94,787.05,764.29,772.64,136.72,-929.20,385.74,-0.68,1.84,-1.09,477.59
35364,772.37,766.92,787.00,764.31,772.65,114.75,-923.34,403.81,-0.24,2.11,-0.63,475.90
35397,771.98,766.90,787.16,764.32,772.59,128.91,-935.06,393.07,-0.40,3.18,2.55,481.15
35431,771.56,767.01,787.36,764.40,772.58,127.44,-942.38,396.97,-0.01,0.10,-0.50,485.53
35466,771.18,766.96,787.61,764.56,772.58,126.95,-924.80,401.86,0.93,0.37,1.90,491.14
35500,770.78,767.11,787.82,764.64,772.59,118.16,-931.15,396.97,1.56,1.37,0.76,495.36
35534,770.59,767.13,788.05,764.77,772.64,122.07,-934.08,402.34,1.48,0.22,-1.21,499.57
35568,770.41,767.24,788.26,764.96,772.72,121.09,-929.69,392.58,2.14,2.02,-0.69,501.68
35602,770.09,767.46,788.46,765.13,772.79,113.28,-938.96,406.25,-0.44,1.28,-1.83,503.74
35636,770.03,767.67,788.49,765.25,772.86,110.35,-934.08,391.60,-1.96,2.02,-0.31,501.19
35670,769.81,767.84,788.86,765.47,772.99,115.23,-926.27,388.18,-0.08,4.96,2.15,506.35
35704,769.89,767.93,789.03,765.62,773.12,138.67,-932.62,396.97,1.76,3.20,2.08,507.53
35738,769.99,768.10,789.16,765.82,773.27,113.28,-928.22,397.95,-0.12,0.94,0.15,505.96
35772,770.12,768.16,789.09,765.86,773.31,119.14,-924.32,391.60,0.10,1.18,2.75,502.77
35806,770.40,768.14,789.00,765.84,773.34,117.68,-904.79,397.46,-0.19,-0.69,1.37,500.08
35840,770.79,768.03,788.80,765.72,773.34,120.61,-924.80,388.67,-0.58,-0.06,-1.29,496.43
35874,771.31,767.99,788.62,765.62,773.38,126.95,-933.59,391.60,2.64,2.08,0.02,491.97
35908,772.15,767.92,788.31,765.40,773.44,125.00,-936.52,393.55,2.22,1.56,-1.17,485.09
35942,773.45,767.68,787.72,765.13,773.50,125.98,-936.52,409.18,0.29,-0.64,-1.56,471.98
35977,775.46,767.39,786.77,764.66,773.57,123.05,-923.83,394.53,-2.02,0.15,-0.90,450.53
36011,778.11,767.16,785.44,764.11,773.71,137.21,-931.15,388.67,-3.65,-1.12,-0.17,418.33
36045,781.10,766.94,784.15,763.55,773.94,127.44,-929.20,385.74,-3.44,0.37,0.39,385.78
36079,783.91,766.66,782.75,763.05,774.09,125.49,-944.34,403.32,0.02,3.80,-2.27,351.04
36113,785.98,766.38,781.31,762.62,774.07,129.88,-946.78,370.12,0.50,1.76,1.46,316.74
36147,787.63,766.21,780.33,762.45,774.16,128.91,-930.66,388.18,-0.76,4.73,-3.93,290.28
36181,788.64,766.09,779.77,762.39,774.22,132.32,-924.32,395.51,2.54,2.49,-2.02,274.78
36215,788.37,765.99,779.51,762.37,774.06,136.72,-930.18,390.14,1.11,2.09,0.35,270.33
36249,786.20,765.98,779.59,762.39,773.54,123.05,-927.25,387.21,1.21,4.20,2.82,279.52
36283,781.00,766.11,780.05,762.56,772.43,116.21,-940.43,393.07,1.06,6.65,1.50,305.24
36317,772.64,766.37,780.95,763.04,770.75,149.90,-959.96,344.24,-1.89,5.81,5.95,347.18
36351,768.38,766.82,782.11,763.68,770.25,134.28,-883.79,396.97,-7.50,-0.27,4.08,377.68
36387,768.81,767.05,782.88,764.15,770.72,74.71,-868.65,451.17,1.29,-0.05,-1.92,386.68
36421,769.12,767.49,783.56,764.80,771.24,134.77,-978.52,348.14,-0.40,2.57,-1.09,389.46
36455,769.75,767.70,783.86,765.12,771.61,115.23,-922.85,394.53,0.66,3.22,-1.94,388.48
36489,768.58,767.70,783.93,765.18,771.35,130.37,-940.92,386.72,-0.92,3.24,1.18,393.15
36523,768.27,767.83,783.95,765.06,771.28,106.45,-948.73,360.84,-1.54,4.40,0.57,395.40
36557,768.16,767.77,783.76,765.06,771.19,130.86,-958.01,378.91,3.56,3.44,1.91,391.76
36592,767.96,767.60,783.35,764.85,770.94,145.51,-956.54,377.44,1.66,3.45,4.08,386.66
36626,770.29,767.75,783.78,764.96,771.69,119.14,-930.66,353.52,8.38,-0.70,0.11,386.49
36660,768.68,767.71,783.84,765.16,771.35,126.46,-916.99,407.23,0.87,1.48,-1.60,390.99
36694,769.07,767.97,783.76,765.19,771.50,116.70,-887.21,431.64,6.41,0.49,2.69,384.96
36728,769.65,768.04,783.75,765.02,771.62,129.88,-904.79,418.95,8.24,-3.10,3.06,384.65
36761,768.78,768.64,783.62,765.23,771.57,125.00,-877.44,445.80,5.27,1.28,6.85,376.49
36795,769.45,769.81,784.07,765.54,772.22,99.12,-946.29,398.93,12.56,-0.69,5.02,371.57
36828,769.40,770.54,784.46,765.86,772.57,120.61,-962.40,406.74,12.44,2.11,5.63,371.03
36862,769.40,770.70,784.12,765.88,772.52,107.42,-915.04,408.20,11.47,4.43,-0.19,360.81
36895,770.19,770.51,783.63,766.05,772.60,85.45,-950.20,401.86,15.27,7.02,-1.56,344.77
36929,769.91,769.94,783.15,765.89,772.22,122.56,-931.15,450.20,8.56,3.13,0.08,341.01
36963,768.82,769.30,782.83,766.04,771.74,148.44,-896.97,417.48,-3.95,4.09,-1.52,339.75
36997,768.05,768.86,783.11,766.45,771.62,125.49,-941.89,466.80,2.79,0.00,2.73,346.74
37031,766.82,768.76,783.57,767.15,771.57,123.05,-907.71,467.29,13.22,2.29,4.96,352.87
37064,765.19,768.84,784.16,767.88,771.52,130.86,-903.32,462.89,18.46,5.22,13.02,361.66
37098,764.20,769.17,785.09,768.96,771.86,87.89,-856.45,459.47,21.26,4.95,13.66,369.83
37132,762.85,769.71,786.55,770.62,772.43,122.07,-911.62,482.42,10.18,7.56,9.78,381.92
37166,761.53,770.04,787.93,771.98,772.87,82.52,-899.90,493.16,16.97,3.35,12.59,398.18
37200,761.06,770.31,789.23,773.17,773.44,50.78,-811.04,533.20,18.91,5.69,9.09,412.42
37234,760.55,770.69,790.33,774.57,774.03,75.68,-875.98,513.18,4.10,4.09,4.73,418.12
37268,760.54,770.98,791.83,775.79,774.79,58.59,-846.68,534.67,12.30,0.63,10.08,435.23
37302,760.71,771.34,792.93,776.72,775.42,22.95,-840.33,528.81,6.83,0.89,4.82,445.54
37338,760.79,771.54,793.50,777.18,775.75,28.32,-855.47,523.44,1.36,5.32,2.68,451.13
37372,760.94,771.44,793.22,776.94,775.64,58.11,-886.72,539.06,1.42,-0.11,-0.32,447.84
37406,761.32,771.03,792.34,776.13,775.21,63.48,-861.82,535.64,0.95,-0.15,-5.37,439.84
37440,761.93,770.44,790.91,774.99,774.57,59.57,-847.66,527.83,-2.23,-3.58,-8.61,423.66
37474,762.61,769.67,789.20,773.68,773.79,65.92,-886.72,504.88,-12.04,-1.99,-12.85,404.05
37508,763.29,768.79,787.33,772.21,772.90,93.26,-876.95,519.53,-11.31,-1.28,-11.18,383.99
37542,764.30,767.85,785.63,770.85,772.16,98.14,-952.15,471.19,-7.65,0.89,-7.97,365.76
37576,765.48,767.04,783.72,769.35,771.40,98.63,-810.06,525.88,-8.97,-2.23,-10.33,342.56
37610,766.16,766.49,782.43,768.11,770.80,118.16,-881.35,484.37,-23.45,-3.26,-10.27,330.99
37644,766.98,766.07,781.45,767.05,770.39,87.89,-807.62,521.48,-19.29,-5.06,-13.74,322.60
37678,767.21,766.02,781.60,766.66,770.37,122.07,-942.87,439.45,-32.51,-3.06,-12.65,331.50
37713,768.00,765.85,781.24,766.22,770.33,120.61,-854.49,484.37,-20.24,-1.85,-11.44,327.63
37747,768.77,765.59,781.06,765.41,770.21,146.48,-968.75,374.51,-23.65,-2.66,-10.93,334.84
37781,769.37,765.31,781.20,764.99,770.22,132.32,-897.46,429.20,-3.66,3.08,-1.22,344.54
37815,770.64,765.07,781.07,764.65,770.36,133.30,-929.69,432.13,4.69,2.35,-0.75,343.80
37849,771.32,764.75,780.70,764.14,770.23,154.30,-916.99,431.64,-5.73,4.44,-0.49,342.44
37883,771.68,764.69,780.70,763.89,770.24,128.42,-899.90,428.22,-11.88,-0.96,0.34,345.31
37917,772.19,764.52,780.69,763.72,770.28,142.58,-920.41,424.80,-5.08,-1.38,1.93,347.27
37951,772.09,764.32,780.40,763.38,770.05,127.44,-910.16,432.13,-9.44,1.46,-1.11,346.76
37985,772.37,764.22,780.15,762.94,769.92,133.30,-932.62,409.18,-5.87,3.07,0.79,346.99
38019,771.72,764.22,780.30,762.80,769.76,129.39,-916.99,416.50,-6.85,0.28,2.32,355.12
38053,771.71,763.99,779.79,762.42,769.48,126.46,-907.71,411.13,-11.67,1.52,-0.08,349.89
38087,772.02,763.85,779.11,762.06,769.26,137.21,-923.34,430.66,-3.54,0.72,-1.91,338.10
38122,771.86,763.85,778.73,761.74,769.04,147.95,-955.08,366.70,-2.17,-1.20,2.73,334.07
38156,771.19,764.14,778.53,761.68,768.89,126.95,-943.85,381.35,-11.02,-4.47,5.01,329.71
38190,770.10,764.08,777.92,761.57,768.42,125.49,-935.55,380.37,-9.85,-1.78,3.66,320.58
38224,770.00,764.30,777.57,761.45,768.33,128.42,-956.54,358.89,3.10,1.67,3.39,312.25
38259,770.18,764.38,777.77,761.63,768.49,140.62,-929.69,389.65,10.13,5.49,1.59,313.08
38294,769.89,764.43,778.17,761.83,768.58,132.81,-921.87,396.48,6.21,1.76,-0.98,320.65
38328,769.81,764.62,778.73,762.08,768.81,111.82,-920.90,391.11,4.69,2.73,0.43,329.93
38361,770.37,764.89,779.12,762.32,769.17,125.98,-916.99,396.48,1.15,-0.02,5.08,332.01
38395,771.16,764.99,779.58,762.38,769.53,144.53,-929.20,397.46,2.11,1.36,2.09,338.93
38428,772.04,765.18,779.71,762.36,769.82,118.65,-932.13,366.70,-4.44,-3.24,0.90,338.09
38462,773.37,765.38,780.23,762.50,770.37,136.23,-959.47,363.28,-0.69,-1.48,1.40,342.73
38495,773.55,765.50,780.83,762.82,770.68,126.46,-927.73,399.90,1.27,3.64,0.05,351.43
38529,773.11,765.47,781.06,762.99,770.65,136.72,-930.66,388.67,3.21,1.87,-0.82,356.37
38563,772.11,765.49,781.43,763.05,770.52,126.46,-923.83,390.62,5.05,4.96,2.60,367.96
38597,770.97,765.55,782.15,763.21,770.47,123.05,-916.99,393.55,3.82,3.34,1.48,386.87
38630,770.77,765.65,782.53,763.46,770.60,122.07,-925.78,406.25,1.89,2.15,-1.38,392.71
38664,771.12,765.71,782.66,763.62,770.78,113.77,-922.36,393.07,-0.15,1.34,0.12,391.84
38698,771.74,765.68,782.55,763.58,770.89,129.88,-930.66,385.25,-2.21,1.12,0.34,387.80
38732,772.49,765.61,782.30,763.42,770.95,123.54,-933.11,384.28,-0.06,0.08,0.87,381.81
38765,773.56,765.61,781.92,763.25,771.09,115.72,-931.15,389.65,-1.57,-0.44,-1.37,371.38
38800,775.08,765.45,781.44,763.03,771.25,134.77,-920.90,378.91,-1.82,-0.85,-0.05,358.81
38834,776.99,765.30,780.87,762.75,771.48,127.44,-923.83,392.09,-0.42,0.82,-0.21,343.14
38868,778.10,765.25,780.46,762.68,771.62,133.30,-941.41,371.58,0.24,1.46,-1.59,330.71
38902,778.56,765.20,780.24,762.67,771.67,119.14,-914.55,406.74,0.00,1.23,-0.65,324.12
38936,778.91,765.20,780.19,762.72,771.75,125.98,-922.85,397.95,-0.14,3.37,1.70,320.84
38970,779.40,765.20,780.08,762.62,771.82,123.05,-939.45,368.16,0.43,1.34,0.63,318.10
39004,779.71,765.15,780.07,762.66,771.90,129.88,-934.57,383.79,2.24,-2.11,0.48,316.38
39038,779.98,765.10,779.96,762.54,771.90,130.86,-947.75,386.72,0.24,-0.48,-0.26,315.08
39072,780.41,765.11,779.90,762.52,771.98,128.91,-939.94,382.81,-1.28,-0.08,0.61,312.19
39106,780.47,765.16,779.93,762.51,772.02,127.93,-942.38,372.07,1.56,-0.12,-0.24,312.44
39140,780.31,765.16,779.94,762.51,771.98,125.00,-927.73,385.74,2.26,-0.24,-0.21,313.28
39174,780.05,765.20,780.00,762.58,771.96,129.88,-938.96,372.56,-0.53,1.85,0.18,314.26
39210,779.68,765.24,780.14,762.69,771.94,122.07,-925.29,380.37,2.31,1.74,0.53,317.05
39244,779.43,765.36,780.35,762.69,771.96,131.35,-936.04,397.95,-0.34,0.76,3.04,322.26
39278,779.14,765.46,780.49,762.97,772.01,119.63,-931.64,389.16,-0.63,0.73,-0.63,322.02
39312,778.64,765.72,780.84,763.12,772.08,139.65,-946.29,375.00,-1.92,0.91,0.85,328.12
39346,777.99,765.88,781.15,763.36,772.09,118.16,-919.43,386.23,0.37,2.07,2.66,333.13
39380,777.26,765.97,781.33,763.51,772.02,130.37,-942.87,381.84,-0.40,-1.31,1.24,337.24
39414,776.51,766.06,781.63,763.71,771.98,121.58,-924.32,385.25,0.30,0.68,0.18,343.57
39448,775.64,766.22,782.04,764.02,771.98,145.51,-919.92,388.67,0.19,1.91,-0.72,350.95
39483,774.92,766.39,782.33,764.22,771.97,120.12,-941.41,388.67,1.19,1.24,-0.44,356.34
39517,774.15,766.59,782.73,764.63,772.02,127.93,-931.15,381.84,-0.67,3.05,1.67,361.27
39551,773.69,766.72,782.87,764.82,772.03,123.54,-922.36,404.79,-0.59,3.34,2.15,362.58
39585,773.17,766.97,783.12,765.10,772.09,128.91,-924.80,398.44,2.04,3.17,2.71,364.25
39619,772.83,767.15,783.50,765.50,772.25,125.49,-935.55,393.07,0.27,-0.92,-0.87,367.72
39653,772.43,767.24,783.57,765.74,772.24,132.32,-937.99,381.35,-0.33,2.24,1.60,366.54
39687,771.67,767.55,784.07,766.13,772.36,117.19,-930.18,389.65,2.47,3.66,-0.89,373.50
39721,771.06,767.73,784.28,766.46,772.38,125.49,-933.59,392.58,1.12,1.24,0.42,374.49
39755,771.05,767.76,784.36,766.77,772.48,119.63,-932.62,377.93,-0.37,1.54,-1.48,371.57
39789,771.24,767.94,784.33,766.88,772.60,140.14,-936.04,374.51,2.97,1.67,1.06,367.30
39823,771.92,768.05,784.18,767.19,772.84,118.65,-909.18,416.50,3.55,-0.54,-0.88,355.72
39857,772.95,768.02,783.43,767.00,772.85,122.56,-946.78,383.79,-1.81,0.91,0.02,336.45
39891,774.27,767.66,782.20,766.54,772.67,120.61,-933.59,401.37,0.99,0.93,-1.44,311.06
39926,775.35,767.15,780.67,765.68,772.21,126.46,-930.66,390.14,-0.10,2.37,-2.82,285.94
39959,776.65,766.62,779.20,764.94,771.85,137.70,-936.52,399.41,3.92,1.84,-0.54,259.87
39993,778.14,766.13,777.97,764.15,771.60,124.02,-949.71,381.84,5.46,2.56,-2.15,239.84
40026,778.82,765.67,776.64,763.57,771.18,117.68,-928.71,388.67,1.92,0.62,-2.15,216.56
40060,778.33,765.31,775.86,763.15,770.66,135.25,-915.04,396.48,0.82,3.92,0.49,207.73
40093,777.47,765.14,775.24,762.91,770.19,125.49,-920.90,418.95,-0.31,1.27,-1.11,200.35
40128,776.41,765.15,774.90,762.86,769.83,131.84,-916.02,407.71,-3.71,-2.68,1.13,196.01
40163,775.16,765.06,774.77,762.84,769.46,127.44,-927.73,406.25,-5.92,-0.43,-0.24,198.17
40196,773.93,765.25,775.10,763.02,769.33,140.62,-942.87,384.77,-5.55,-0.27,-1.12,206.45
40230,773.34,765.45,775.41,763.19,769.35,139.16,-960.94,376.95,2.93,5.34,-0.55,211.94
40264,773.56,765.78,775.69,763.47,769.63,119.14,-937.99,389.65,4.82,3.22,-0.53,211.48
40298,773.54,765.85,775.73,763.58,769.67,139.65,-876.46,408.69,10.47,3.05,1.63,210.41
40331,775.14,766.09,776.07,763.69,770.25,150.88,-896.97,414.55,4.24,-1.95,-1.15,209.92
40365,773.29,766.29,776.49,763.73,769.95,138.18,-904.30,411.13,8.63,0.01,1.84,224.46
40399,772.54,766.90,777.26,763.96,770.17,131.84,-922.36,396.00,7.80,0.77,5.22,237.93
40433,772.64,767.61,778.33,764.49,770.77,136.23,-912.11,428.71,12.28,-1.54,2.42,250.68
40467,770.32,767.33,778.18,764.32,770.04,140.62,-934.57,382.81,5.43,2.14,4.95,259.57
40501,771.38,767.39,778.15,763.99,770.23,98.63,-945.80,392.09,5.84,4.04,-0.82,259.54
40535,771.71,767.23,778.38,764.03,770.34,96.19,-928.22,437.50,22.05,5.18,-0.12,264.88
40569,770.94,766.90,777.99,763.73,769.89,111.33,-937.01,398.44,4.10,3.63,-3.69,265.13
40604,771.45,766.91,778.14,763.65,770.03,108.40,-906.25,434.57,12.21,2.28,-1.66,268.05
40638,770.70,766.91,778.33,763.93,769.97,104.49,-922.36,424.32,1.84,0.24,3.27,271.24
40672,769.90,766.75,778.16,764.07,769.72,115.23,-921.39,431.15,-0.20,-0.08,-1.61,268.99
40706,768.60,766.77,778.28,764.32,769.49,142.09,-934.57,454.10,4.01,4.44,8.65,272.59
40740,767.82,766.95,778.85,765.02,769.66,150.39,-879.88,427.73,9.91,4.69,10.98,277.82
40774,766.24,767.14,779.94,766.02,769.84,128.42,-902.83,451.17,11.59,5.18,8.22,294.09
40808,764.67,767.19,780.91,767.02,769.95,88.38,-873.05,492.19,19.52,2.92,4.44,308.43
40842,762.98,767.18,781.69,767.94,769.95,77.64,-917.97,457.52,8.72,4.49,7.66,320.22
40876,762.04,767.31,783.15,769.50,770.50,83.01,-885.74,488.28,21.78,7.24,8.17,335.88
40910,760.99,767.67,785.08,771.51,771.31,86.91,-898.44,485.84,18.63,6.66,9.88,355.08
40944,759.61,767.84,787.02,773.36,771.96,75.20,-889.65,500.98,20.53,7.20,11.86,379.69
40978,758.18,768.30,788.82,775.20,772.62,81.05,-846.68,501.46,16.89,7.43,12.00,398.37
41013,757.10,769.02,791.24,777.29,773.66,81.05,-831.54,528.32,12.31,4.39,12.09,426.01
41047,756.16,769.94,793.91,779.26,774.82,51.76,-900.39,520.02,8.73,6.73,9.73,459.36
41082,756.01,770.73,796.17,780.69,775.90,52.73,-850.10,526.37,14.55,4.60,8.98,488.90
41116,756.23,771.64,797.86,782.23,776.99,38.57,-825.68,569.34,1.77,-3.71,1.57,500.21
41150,756.50,772.06,798.88,783.26,777.68,56.15,-912.11,494.14,0.76,0.53,-1.69,506.11
41185,756.65,772.11,798.63,783.23,777.66,32.71,-823.73,541.02,3.59,2.43,-1.82,499.52
41219,757.09,771.88,797.36,782.26,777.15,66.41,-882.32,521.00,-4.53,-0.54,-6.05,482.37
41253,757.46,771.41,795.68,780.65,776.30,57.13,-808.11,550.29,-1.18,-4.35,-4.65,466.75
41287,758.16,770.98,793.63,778.59,775.34,63.96,-891.11,528.32,-11.69,-3.66,-9.84,447.15
41321,758.98,770.34,791.21,776.56,774.27,83.01,-894.53,523.93,-12.12,-2.19,-13.53,419.05
41355,759.96,769.25,788.78,774.65,773.16,96.68,-910.64,492.68,-8.02,-0.65,-11.30,391.99
41389,761.06,768.20,786.81,773.23,772.33,65.43,-827.64,533.20,-9.68,-0.24,-10.84,368.24
41423,762.46,767.55,784.82,771.77,771.65,96.68,-908.69,473.14,-12.22,4.92,-10.23,340.78
41457,763.36,766.98,783.27,770.52,771.03,106.93,-843.26,523.44,-14.50,0.68,-8.17,322.00
41491,764.38,766.59,782.09,769.40,770.61,112.79,-917.97,493.16,-6.03,-1.07,-4.82,308.58
41525,765.22,766.36,781.24,768.80,770.41,94.24,-861.82,488.77,-16.25,-3.77,-8.79,295.33
41559,766.41,766.17,780.35,768.20,770.28,111.33,-870.61,478.52,-12.53,0.54,-13.08,279.41
41592,767.43,766.04,779.69,767.70,770.21,118.65,-902.34,449.71,-25.85,-3.56,-9.37,267.85
41626,768.86,765.88,779.03,767.03,770.20,133.30,-857.91,493.16,-15.69,-4.84,-9.37,257.66
41659,769.68,765.73,778.96,766.66,770.26,169.92,-1019.04,358.40,-7.85,-0.47,-2.43,259.59
41693,770.77,765.62,779.11,766.52,770.51,142.58,-881.35,485.35,-6.52,1.84,-1.08,262.78
41727,772.01,765.53,779.06,766.10,770.67,142.58,-877.93,470.70,5.49,6.00,2.72,264.25
41761,772.63,765.48,779.08,765.63,770.70,133.79,-895.02,453.12,-3.81,2.15,2.29,269.93
41795,774.07,765.46,779.12,765.28,770.98,134.77,-917.97,454.10,-1.02,-0.19,5.79,271.29
41828,774.40,765.39,779.22,764.80,770.95,130.37,-932.62,416.99,-8.69,-2.60,2.79,280.06
41862,774.68,765.25,779.03,764.33,770.82,125.00,-899.90,437.99,-17.57,-3.01,1.44,282.55
41896,774.50,765.05,778.56,763.50,770.40,139.65,-897.95,416.99,-10.60,-0.30,1.48,285.24
41930,774.43,764.92,778.12,762.94,770.10,132.32,-896.00,421.39,-10.75,-1.66,0.58,283.73
41964,773.29,764.95,778.08,762.48,769.70,162.60,-927.25,426.76,-10.01,-3.79,3.32,293.11
41999,772.87,764.84,778.03,762.28,769.51,119.63,-898.93,402.34,-7.95,-2.74,0.21,297.20
42033,773.12,764.70,777.58,761.94,769.34,124.02,-949.71,382.32,-8.86,0.36,0.42,291.41
42068,773.04,764.60,776.80,761.43,768.97,123.05,-954.59,343.75,-13.76,-2.34,2.35,280.36
42102,773.40,764.49,776.54,761.50,768.98,159.18,-958.98,371.58,4.31,4.39,-1.66,272.40
42136,775.05,764.40,776.32,761.39,769.29,135.74,-914.55,417.48,8.17,4.38,-1.42,263.63
42170,777.17,764.35,776.28,761.45,769.81,122.07,-909.18,402.83,0.84,1.08,-0.69,254.95
42204,777.99,764.58,776.36,761.57,770.13,119.63,-919.92,424.80,-0.84,-0.66,2.71,250.56
42238,778.02,764.84,776.47,761.66,770.25,115.72,-915.04,406.25,-0.96,0.50,0.71,249.72
42272,777.97,764.93,776.47,761.54,770.23,118.65,-922.85,406.25,-1.99,-1.88,4.33,250.99
42306,780.69,765.08,776.22,761.34,770.83,107.91,-911.13,421.87,-3.34,-5.67,3.59,237.10
42340,784.32,765.30,776.27,761.45,771.84,145.51,-938.48,372.56,-10.87,-2.50,1.50,222.62
42374,786.81,765.31,776.21,761.48,772.45,153.32,-957.03,356.45,2.16,1.50,-0.87,212.12
42408,786.40,765.20,775.89,761.61,772.27,119.63,-928.71,409.67,7.68,3.15,0.31,204.58
42442,785.04,765.01,775.37,761.60,771.76,123.54,-924.80,397.95,2.38,3.06,1.47,197.88
42476,783.59,764.81,775.04,761.50,771.24,129.88,-936.52,372.07,0.45,5.27,0.14,197.75
42511,782.87,764.78,775.01,761.64,771.07,119.63,-922.36,401.37,0.22,2.67,-1.21,197.55
42545,783.41,764.78,775.13,761.76,771.27,129.39,-927.73,404.79,1.69,1.24,1.40,197.00
42579,784.36,764.82,775.10,761.78,771.51,129.39,-935.55,386.23,-0.36,1.80,0.72,192.47
42613,784.53,764.90,775.24,761.75,771.60,134.28,-932.13,406.74,-1.47,1.13,0.56,195.05
42647,784.74,765.00,775.22,761.80,771.69,132.32,-931.64,392.09,-4.28,0.70,1.13,192.17
42681,784.81,764.98,775.29,761.89,771.74,136.23,-952.64,373.54,-1.91,1.75,-2.23,192.55
42715,784.32,765.12,775.43,761.97,771.71,127.44,-941.89,376.95,0.76,1.58,0.05,195.57
42749,783.49,765.19,775.78,762.15,771.65,126.95,-936.52,387.21,4.51,2.20,1.97,203.83
42783,782.42,765.34,776.17,762.36,771.57,134.28,-927.73,387.70,3.56,2.42,0.76,212.79
42817,781.27,765.50,776.66,762.67,771.53,125.00,-933.59,388.18,3.76,2.83,-0.38,223.18
42851,780.12,765.62,777.24,762.88,771.47,130.86,-935.06,396.97,2.80,1.26,2.66,237.52
42885,779.11,765.79,777.66,763.26,771.46,127.93,-928.22,399.90,-1.46,3.26,-0.60,244.49
42919,778.39,765.94,778.17,763.48,771.49,136.23,-930.66,390.14,-0.69,2.88,-0.13,255.24
42955,777.54,766.09,778.81,763.70,771.53,134.77,-944.34,381.35,1.71,2.08,-0.83,269.71
42989,776.92,766.28,779.25,764.13,771.65,131.84,-932.13,396.00,4.28,-0.33,2.41,274.88
43023,776.19,766.41,779.65,764.41,771.66,123.05,-944.82,395.02,1.85,2.62,2.51,282.22
43057,775.23,766.38,779.95,764.64,771.55,128.42,-937.99,391.11,3.11,3.66,-2.32,289.85
43091,774.56,766.61,780.30,764.89,771.59,116.21,-936.52,391.11,0.38,2.56,0.24,295.56
43126,774.11,766.75,780.68,765.23,771.69,130.37,-931.64,392.09,1.75,1.73,0.38,300.41
43159,773.44,767.08,781.19,765.57,771.82,126.46,-938.48,398.93,0.73,1.04,0.74,307.57
43193,772.81,767.40,781.76,766.13,772.02,111.33,-928.22,386.72,2.41,2.73,1.89,313.09
43226,772.03,767.74,782.32,766.52,772.15,116.21,-913.57,399.90,1.59,1.95,-0.20,321.36
43260,771.49,768.07,782.74,766.95,772.31,126.46,-939.45,398.44,0.75,2.50,2.19,324.52
43293,770.94,768.40,783.25,767.33,772.48,122.07,-929.69,394.04,-1.02,1.75,0.34,331.15
43327,770.73,768.68,783.65,767.54,772.65,116.70,-922.36,382.32,0.45,-0.41,3.70,336.55
43361,770.66,768.95,783.78,767.48,772.72,128.91,-926.27,396.00,-1.05,0.44,1.45,338.63
43395,770.66,769.07,783.69,767.39,772.70,111.82,-923.34,395.02,-3.69,1.07,0.69,336.77
43429,771.11,769.22,783.64,767.29,772.82,121.09,-944.82,385.25,-0.21,1.27,0.67,334.06
43463,771.46,769.27,783.48,767.24,772.86,126.46,-926.27,389.65,-3.77,-0.69,0.21,329.27
43496,771.84,769.24,783.48,767.28,772.96,120.61,-932.62,376.46,3.45,3.13,-0.09,327.56
43530,771.95,769.23,783.53,767.39,773.02,121.58,-937.01,399.90,-0.36,0.82,-2.83,326.99
43564,771.95,769.18,783.49,767.45,773.02,118.16,-942.87,395.02,1.92,1.40,0.54,325.52
43598,772.22,769.22,783.38,767.50,773.08,111.82,-934.57,389.16,1.79,2.86,-2.35,320.64
43632,772.75,768.90,783.20,767.48,773.08,122.56,-931.15,388.67,0.00,1.91,-1.40,317.29
43666,773.51,768.76,782.80,767.15,773.05,133.79,-925.78,380.37,-0.05,0.29,-2.15,310.86
43701,774.39,768.60,782.43,767.01,773.11,128.42,-936.04,400.88,0.67,1.47,0.05,301.81
43735,775.39,768.47,781.86,766.72,773.11,108.89,-929.69,399.41,-0.18,0.76,1.99,289.54
43769,776.26,768.19,781.20,766.36,773.00,122.07,-928.71,410.64,-0.92,0.42,-0.72,277.71
43803,776.40,768.05,780.77,765.89,772.78,118.65,-931.64,399.41,-2.12,1.50,2.85,274.53
43837,775.93,767.73,780.21,765.45,772.33,127.44,-932.62,378.91,-2.70,-0.54,0.20,271.33
43873,773.68,767.48,780.00,765.24,771.60,114.75,-916.99,409.67,10.05,4.44,4.01,278.75
43907,772.68,767.35,779.63,765.04,771.17,115.72,-905.76,417.48,0.35,2.47,0.08,276.80
43941,772.76,767.24,779.32,764.99,771.08,110.84,-929.69,398.93,-0.65,-0.82,-0.24,270.42
43975,772.21,767.19,779.35,764.92,770.92,109.37,-918.46,397.46,0.79,2.27,-1.76,274.67
44009,772.62,767.00,779.16,764.77,770.89,113.77,-947.75,387.70,3.50,4.69,-3.71,272.32
44043,772.64,766.62,778.70,764.54,770.62,125.49,-908.69,411.62,-0.11,1.99,-2.78,267.19
44077,772.75,766.75,778.46,764.29,770.56,135.74,-933.59,410.64,5.23,3.52,2.14,263.44
44112,772.87,767.00,778.72,764.47,770.76,108.40,-931.15,409.18,-1.51,1.52,1.12,264.90
44146,772.04,767.26,779.11,764.64,770.76,126.46,-936.04,394.04,-0.72,-1.13,3.80,272.76
44180,772.70,767.53,779.24,764.56,771.01,117.68,-909.18,408.20,17.33,3.60,3.35,272.63
44214,771.43,767.57,779.43,764.62,770.76,133.30,-947.75,396.00,4.55,2.77,1.68,280.74
44248,769.64,767.86,780.13,765.00,770.66,122.07,-929.20,385.74,5.63,6.51,3.92,296.39
44282,770.41,768.27,781.36,765.45,771.37,84.96,-967.29,339.84,3.63,4.66,-0.10,314.52
44316,768.98,768.27,782.01,765.58,771.21,133.30,-906.74,416.02,2.75,6.39,3.66,333.73
44350,769.32,768.41,781.89,765.37,771.25,106.45,-867.68,446.29,30.33,4.98,-1.09,331.47
44384,768.46,768.89,782.45,765.79,771.40,122.07,-909.18,438.48,5.85,5.60,1.19,338.28
44418,765.87,769.09,782.93,766.53,771.10,135.74,-967.29,392.09,2.24,5.27,1.47,346.61
44453,764.91,769.27,783.51,767.27,771.24,118.65,-923.83,466.80,8.29,-0.50,5.44,351.93
44487,764.06,769.50,784.09,767.94,771.40,99.12,-919.92,435.55,4.14,-0.53,3.77,357.62
44521,763.13,769.35,784.32,768.43,771.31,93.75,-923.34,450.20,18.40,1.49,9.76,360.56
44555,762.62,769.10,784.69,769.05,771.36,82.03,-886.72,440.92,20.24,6.27,7.08,364.40
44589,761.41,769.12,785.48,770.16,771.54,110.84,-920.90,440.43,17.82,7.75,12.47,371.82
44623,760.10,768.88,786.49,771.06,771.63,103.03,-866.70,470.70,14.89,5.44,12.14,390.19
44657,759.78,768.94,787.47,771.89,772.02,63.48,-843.26,495.61,16.34,2.65,7.62,402.93
44691,759.33,769.24,788.63,773.38,772.65,71.29,-890.14,491.21,4.49,6.92,2.21,409.06
44725,758.74,769.58,789.77,774.52,773.15,96.19,-877.93,500.49,10.63,3.65,8.88,419.95
44759,757.86,769.99,791.15,775.93,773.73,69.34,-914.55,500.98,14.76,2.31,11.29,433.25
44793,757.40,770.32,792.63,776.97,774.33,48.83,-904.30,496.58,21.14,7.62,13.63,453.76
44828,757.15,770.97,794.18,778.56,775.21,39.55,-767.58,564.45,12.82,6.92,8.36,464.75
44861,757.64,771.82,795.38,779.66,776.12,59.57,-922.36,492.68,4.52,3.08,4.39,470.00
44895,758.56,772.48,796.08,780.79,776.98,48.83,-837.89,562.01,14.26,-4.58,3.91,462.34
44928,759.49,773.01,795.98,781.21,777.42,51.76,-852.54,518.07,-2.14,4.34,-7.37,446.08
44962,760.43,773.10,795.11,781.06,777.43,72.75,-877.44,533.20,-2.69,-2.27,-7.38,422.65
44996,760.85,772.67,793.59,779.88,776.75,71.78,-881.35,524.41,-4.37,0.24,-9.49,404.30
45030,761.35,771.93,791.45,778.05,775.69,75.68,-886.23,514.65,-3.62,0.68,-5.72,382.02
45064,761.79,771.10,789.01,776.01,774.48,76.17,-832.03,532.71,-14.37,-1.15,-14.06,356.47
45098,762.71,770.05,786.64,773.93,773.33,97.66,-915.53,486.82,-14.95,-1.92,-12.45,333.30
45131,763.54,768.95,784.33,771.95,772.19,88.38,-860.35,521.48,-14.11,-0.87,-9.14,310.85
45165,765.05,767.92,782.22,770.19,771.34,108.89,-884.28,502.93,-19.06,-0.82,-14.12,287.28
45200,766.36,766.90,780.36,768.74,770.59,139.16,-919.43,471.19,-15.79,-0.44,-12.04,265.91
45234,767.56,766.09,778.51,767.59,769.94,103.52,-858.89,483.40,-1.77,4.91,-4.79,239.22
45268,768.80,765.53,777.23,766.64,769.55,104.00,-893.55,474.12,-12.17,0.73,-5.70,221.67
45302,769.62,765.14,776.42,766.05,769.30,124.51,-907.23,498.54,-21.13,-2.60,-9.28,210.35
45336,770.45,764.75,775.88,765.75,769.21,108.40,-854.49,513.67,-4.35,-3.89,-3.92,201.65
45370,770.73,764.63,775.69,765.48,769.13,115.23,-916.50,442.87,-22.37,-1.51,-10.24,200.85
45404,770.73,764.66,775.73,765.49,769.15,137.70,-888.18,455.57,-3.16,1.53,-3.29,201.26
45438,770.64,764.73,776.04,765.71,769.28,150.88,-941.89,413.57,-13.69,2.66,-0.93,205.67
45472,771.72,764.58,776.06,765.78,769.53,121.58,-892.09,479.98,9.93,4.81,1.17,202.59
45506,772.09,764.64,776.00,765.44,769.54,154.30,-926.27,419.92,1.94,0.46,1.69,204.52
45541,772.58,764.73,776.39,765.46,769.79,124.51,-902.83,458.98,0.41,-0.40,4.03,211.37
45575,772.61,764.80,776.72,765.41,769.89,138.67,-904.79,445.31,-3.00,0.40,0.53,219.92
45609,772.62,764.97,777.20,765.52,770.08,145.51,-891.60,456.05,-12.85,-0.71,0.04,228.65
45643,772.32,765.26,778.04,765.53,770.29,125.49,-929.20,426.76,-6.86,-2.16,5.25,248.13
45677,772.13,765.11,778.62,765.53,770.35,128.91,-943.85,407.23,-5.15,-3.61,1.98,264.58
45711,772.02,765.16,778.78,765.22,770.29,134.28,-915.53,415.04,-15.46,-2.17,2.26,273.03
45747,772.57,765.06,779.04,765.02,770.43,128.91,-893.07,450.20,-5.37,1.73,-0.12,281.26
45781,772.28,764.89,779.16,764.75,770.27,121.09,-928.71,418.46,-6.27,-3.10,-0.66,290.72
45815,771.68,764.67,778.83,763.98,769.79,101.56,-916.99,422.85,-10.82,-4.44,1.85,297.57
45849,770.61,764.69,778.46,763.32,769.27,127.93,-875.98,439.94,-14.79,-4.76,3.12,301.56
45883,769.81,764.65,778.48,763.02,768.99,109.37,-913.09,401.86,-3.47,0.07,3.45,309.63
45917,768.63,764.80,778.69,762.76,768.72,126.46,-950.20,389.65,-12.01,-2.83,1.79,321.52
45951,768.57,764.73,778.87,762.65,768.71,110.84,-955.08,365.72,3.36,5.36,-1.28,328.39
45986,768.94,764.66,779.26,762.65,768.88,151.37,-934.08,403.32,6.70,4.31,-0.53,337.35
46020,769.27,764.48,779.62,762.65,769.01,118.16,-927.73,388.18,6.91,3.85,-2.72,346.71
46054,769.55,764.48,779.80,762.59,769.11,117.19,-908.20,414.06,2.27,2.58,0.82,351.09
46088,769.88,764.76,779.94,762.58,769.29,113.77,-883.79,448.24,-5.20,-4.85,2.85,351.20
46122,770.97,765.38,780.35,762.77,769.87,122.07,-940.43,400.39,-7.71,-7.63,5.83,350.04
46156,773.28,766.26,781.65,763.46,771.16,134.77,-940.92,385.74,-10.58,-3.31,3.15,357.24
46190,773.85,766.68,783.01,764.23,771.94,125.49,-962.40,363.28,2.08,3.24,-0.27,374.43
46224,772.06,766.64,783.84,764.74,771.82,120.12,-950.68,365.72,7.50,8.08,1.83,394.21
46258,769.59,766.69,784.68,765.19,771.54,122.07,-946.29,379.39,5.92,6.02,0.04,416.46
46293,767.61,766.71,785.85,765.84,771.50,114.75,-923.34,414.55,8.76,8.27,-1.15,442.81
46326,766.65,766.86,786.92,766.47,771.73,111.82,-908.69,423.34,3.37,4.68,-0.40,462.19
46360,766.63,767.07,787.52,767.01,772.05,116.70,-938.48,399.41,-0.10,1.88,0.50,467.49
46393,766.78,767.10,787.76,767.24,772.22,132.81,-925.78,397.95,-0.53,-1.95,-1.83,469.42
46427,767.15,767.22,787.61,767.24,772.31,123.05,-918.95,402.83,-1.06,-1.16,-0.43,463.26
46460,767.83,767.23,787.44,767.09,772.40,125.98,-925.29,397.95,-3.73,-2.46,-1.48,458.92
46494,768.35,767.35,787.30,767.12,772.53,129.88,-933.59,392.09,0.80,0.35,-0.02,452.17
46528,768.64,767.38,787.26,767.04,772.58,120.61,-924.80,402.83,-0.11,0.88,0.66,451.22
46562,768.65,767.32,786.97,767.12,772.51,120.61,-923.34,406.25,0.27,1.12,-1.40,443.25
46596,768.47,767.28,786.88,767.12,772.44,122.56,-925.29,401.86,0.65,1.08,0.40,442.05
46629,768.54,767.33,786.86,767.02,772.44,126.95,-927.25,395.02,2.11,-0.09,3.95,442.19
46663,768.77,767.29,786.68,766.93,772.42,129.88,-917.97,413.57,2.53,1.06,-0.53,438.77
46698,769.09,767.21,786.49,766.87,772.41,125.98,-926.27,407.71,-0.39,-0.32,3.51,434.43
46732,769.17,767.23,786.32,766.87,772.40,127.44,-931.64,387.70,-2.73,0.78,1.25,429.60
46766,769.10,767.18,786.32,766.76,772.34,121.58,-919.43,393.55,2.57,3.35,-0.73,432.07
46800,768.98,767.04,786.17,766.72,772.23,131.84,-930.18,394.04,2.22,0.94,-1.89,430.38
46835,768.80,766.99,786.15,766.88,772.21,123.05,-943.36,403.32,4.04,2.53,-0.69,428.60
46869,768.57,766.99,786.17,766.99,772.18,127.93,-921.87,394.53,1.61,2.27,-1.31,428.14
46903,768.23,766.86,786.19,767.09,772.09,136.23,-937.01,410.64,-1.44,2.11,-0.46,429.50
46937,768.09,766.88,786.32,767.23,772.13,126.95,-927.73,404.30,2.65,3.20,-1.92,431.06
46971,768.03,766.91,786.33,767.33,772.15,120.61,-930.66,412.11,0.23,2.34,0.92,429.73
47005,767.93,766.95,786.37,767.57,772.20,119.63,-919.43,394.04,2.39,-0.05,1.11,427.19
47039,767.80,766.99,786.29,767.63,772.18,118.65,-926.27,404.30,-0.18,0.65,0.89,424.31
47073,767.79,766.93,786.20,767.74,772.17,120.61,-928.22,401.37,-0.06,3.01,1.15,421.08
47107,768.01,766.89,786.08,767.67,772.16,134.28,-924.80,402.34,0.29,0.99,-1.31,418.60
47141,768.18,766.91,785.94,767.68,772.18,124.02,-934.57,398.93,-0.93,4.34,-0.82,414.30
47175,768.36,766.97,785.82,767.60,772.19,127.93,-928.71,404.79,2.38,2.76,-1.95,411.34
47210,768.51,766.86,785.66,767.56,772.15,118.16,-925.29,408.20,0.28,-0.56,0.44,408.49
47244,768.55,766.82,785.53,767.46,772.09,120.61,-929.20,399.90,-1.41,0.98,-0.34,406.89
47278,768.67,766.84,785.38,767.41,772.07,114.75,-928.22,392.09,-0.18,1.02,0.23,403.12
47312,768.53,766.84,785.20,767.50,772.02,121.58,-930.18,402.83,-1.09,1.53,0.26,397.93
47346,768.40,766.83,784.99,767.51,771.93,135.74,-926.76,404.79,0.31,0.40,-0.11,392.91
47380,768.19,766.83,785.01,767.60,771.91,127.93,-930.66,410.16,1.11,0.29,2.05,392.96
47414,768.01,766.88,784.99,767.53,771.85,124.02,-935.06,399.41,-0.12,1.30,0.40,393.65
47448,767.85,766.81,784.98,767.55,771.80,117.68,-925.29,403.81,-0.59,-0.67,2.28,394.20
47482,767.55,766.78,784.97,767.52,771.70,132.81,-921.87,406.74,0.96,2.32,0.76,395.64
