currTime,s1,s2,s3,s4,s,AccX,AccY,AccZ,GyroX,GyroY,GyroZ,GRF,Frame,SubFrame,Weight,Fx,Fy,Fz,Mx,My,Mz,Cx,Cy,Cz
13414,800.01,760.63,762.71,759.07,770.6,-69.34,-1505.86,486.82,50.98,33.55,108.61,-96.65,2684,0,82,-8.37158,8.72444,-30.5452,4956.88,1749.42,-1035.59,-440.662,-162.601,0
13448,804.72,761.57,764.4,759.08,772.44,-394.04,-1818.36,442.38,64.45,60.05,66.98,-78.4,2691,0,82,-16.1352,6.76808,-149.165,23641.4,11126.8,-1765.17,-423.421,-158.508,0
13482,808.63,762.73,768.52,759.76,774.91,124.02,-901.37,869.63,23.92,-10.18,14.17,-8.48,2697,0,82,-23.7897,28.254,-288.118,40925.3,22032.7,-1286.74,-421.531,-142.057,0
13516,816.32,764.12,771.82,760.64,778.22,183.59,-1020.02,400.88,-5.83,-16.4,9.02,23.26,2704,0,82,-28.8168,61.3955,-394.918,47385.7,29903.3,363.128,-422.28,-119.996,0
13550,822.02,765.37,774.17,761.4,780.74,151.37,-1010.25,365.23,-7.39,-5.2,7.63,41.01,2711,0,82,-47.1107,79.7633,-466.737,48602.9,33972.9,532.197,-425.211,-104.135,0
13584,824.59,765.94,775.48,762.04,782.01,162.6,-976.56,365.23,4.62,4.17,1.11,50.92,2718,0,82,-70.5868,88.7941,-575.863,56409.2,40263.2,-932.254,-428.081,-97.9572,0
13618,826.32,766.21,776.47,762.57,782.89,126.95,-929.69,413.09,0.44,1.53,-1.04,59.88,2725,0,82,-82.7896,86.9582,-658.461,62602.9,45084.4,-2723.09,-429.531,-95.0747,0
13652,827.39,766.6,777.41,762.95,783.59,126.95,-914.06,416.5,-0.8,-2.44,-0.95,70.79,2731,0,82,-77.6532,79.7931,-695.649,65569.2,47602.2,-3515.01,-429.572,-94.2563,0
13686,828.69,766.86,778.07,763.32,784.23,117.19,-935.06,333.98,0.95,-1.3,3.37,75.15,2738,0,82,-75.7536,75.7611,-730.461,67821.5,50457.3,-4250.49,-428.924,-92.8477,0
13721,829.3,767,778.12,763.52,784.49,139.65,-932.62,385.25,4.57,-0.08,1.61,70.22,2745,0,82,-76.8944,74.1208,-758.024,69121.4,52357.3,-4817.61,-428.929,-91.1864,0
13755,829.89,766.94,778.05,763.56,784.61,137.7,-936.52,389.16,4.81,0.77,1.28,66.22,2752,0,82,-79.2704,71.635,-780.115,70665.1,53877.1,-5368.69,-428.937,-90.5829,0
13789,830.07,766.98,778.28,763.76,784.77,143.07,-928.22,402.83,2.5,1.4,0.24,68.16,2759,0,82,-76.7571,67.5368,-786.796,71336.9,54664.4,-5126.72,-428.523,-90.6677,0
13823,830.07,766.93,778.43,763.81,784.81,126.46,-920.9,415.53,2.15,2.53,2.6,71.65,2766,0,82,-72.6042,64.8556,-792.72,72045.4,55821.4,-4705.76,-427.582,-90.8839,0
13857,830.29,766.76,778.51,763.73,784.82,118.65,-924.32,396.97,-0.93,-0.81,2.21,75.35,2772,0,82,-70.4309,62.1171,-797.223,72005.2,56571.9,-4485.22,-427.039,-90.32,0
13891,830.45,766.82,778.45,763.59,784.83,129.88,-918.46,412.6,-2.17,-1.02,3.11,74.96,2779,0,82,-67.2099,59.7307,-797.331,71780.3,56834.8,-4015.04,-426.719,-90.0257,0
13925,830.41,766.85,778.63,763.57,784.86,131.35,-921.39,406.74,-7.56,-2.19,1.51,79.62,2786,0,82,-65.8775,54.7029,-795.832,72182.7,56961.4,-3590.49,-426.425,-90.7009,0
13959,829.94,767.06,779.02,763.65,784.92,120.61,-940.92,391.11,-8.51,-1.17,0.72,88.28,2793,0,82,-65.4813,49.4757,-796.997,72602.9,57196.5,-3191.59,-426.235,-91.0956,0
13994,829.26,767.27,779.46,763.75,784.93,133.3,-939.94,381.84,-8.01,-4.63,4.87,98.27,2800,0,82,-68.6802,45.6885,-799.431,72675.6,57320.8,-2906.47,-426.298,-90.9092,0
14029,828.59,767.38,779.5,763.7,784.79,118.65,-932.13,375,-7.26,-3.37,3.09,101.4,2807,0,82,-70.0495,42.6573,-802.994,71807.1,57508.9,-2498.23,-426.382,-89.4242,0
14064,827.77,767.54,779.51,763.67,784.63,120.61,-938.48,375,-2.76,-2.18,2.4,103.6,2814,0,82,-70.8497,39.0826,-798.953,70969.1,57328.6,-1918.01,-426.245,-88.8276,0
14098,827.06,767.43,779.67,763.66,784.45,128.42,-949.71,363.28,-3.71,-1.05,3.11,110.98,2821,0,82,-71.1778,33.3026,-790.55,70123.1,56983.1,-1670.24,-425.92,-88.7017,0
14132,825.74,767.38,779.51,763.49,784.03,123.54,-934.08,390.14,-4.03,-0.54,-0.66,114.49,2827,0,82,-70.5557,27.9232,-785.295,69215,56781.3,-1457.96,-425.694,-88.1388,0
14166,822.99,767.17,779.41,763.4,783.24,126.46,-947.75,346.68,-0.51,-0.18,1.57,124.37,2834,0,82,-69.2694,23.8129,-775.184,68155.8,56438.6,-1146.23,-425.193,-87.9221,0
14200,816.77,766.94,779.13,763.34,781.55,142.58,-956.05,383.3,1.29,3.31,2.13,141.42,2841,0,82,-68.9473,16.0204,-762.077,67391.9,55820.6,-1210.65,-424.752,-88.4318,0
14234,807.97,766.47,778.9,763.11,779.11,119.63,-909.67,363.77,3.16,6.46,-1.45,173.28,2848,0,82,-67.5513,11.6362,-723.004,63393.6,53274.6,-1395.02,-424.315,-87.6806,0
14268,800.02,766.11,778.51,763.01,776.91,123.54,-929.2,384.28,3.05,4.58,4.23,195.2,2855,0,82,-59.6686,9.10012,-650.14,55128.2,48387.5,-1015.51,-423.574,-84.7935,0
14302,794.62,766.02,778.05,762.85,775.38,108.4,-926.76,391.6,-2.34,3.05,-0.21,205.16,2861,0,82,-51.0234,12.5727,-562.325,45079.6,41875.4,-30.5292,-423.532,-80.1648,0
14336,790.82,765.9,777.27,762.6,774.15,123.54,-948.24,359.37,-3.69,1.37,1.05,203.63,2868,0,82,-41.3533,15.8865,-471.63,35277.7,34929.2,1103.66,-423.94,-74.7986,0
14370,787.33,765.88,776.42,762.4,773,116.7,-927.73,381.35,0.59,2.6,-0.79,197.32,2875,0,82,-37.2255,14.3387,-408.312,28925.8,29909.8,1280.93,-424.748,-70.8421,0
14404,784.95,766.09,775.46,762.37,772.22,122.56,-929.69,374.51,-0.08,3.5,1.6,180.4,2882,0,82,-35.109,9.96579,-362.925,25062.3,26321.7,1147.84,-425.474,-69.056,0
14437,781.72,766.47,774.67,762.4,771.32,118.65,-946.78,375,0.64,1.15,1.28,168.23,2888,0,82,-32.6643,8.28812,-332.001,22372,23651.6,1193.9,-426.761,-67.385,0
14471,774.45,766.39,774.07,762.7,769.4,136.23,-941.89,355.47,-0.08,2.91,2.54,174.65,2895,0,82,-31.3339,6.01725,-306.94,20020.3,21413.7,1139.3,-428.235,-65.2252,0
14504,764.79,766.08,773.08,762.6,766.64,135.74,-1001.46,321.78,3.02,8.66,0.77,186.87,2902,0,82,-32.2035,4.14721,-291.913,17662.5,19848.5,1141.09,-430.006,-60.5048,0
14538,757.92,764.72,769.91,761.71,763.57,82.03,-935.06,381.84,26.65,14.53,-2.31,155.59,2909,0,82,-28.3982,5.86334,-249.329,12411.5,16311.4,1000.97,-432.579,-49.7703,0
14572,754.77,762.68,766.38,760.57,761.1,117.68,-993.16,350.59,19.79,11.76,4.45,111.63,2915,0,82,-21.7376,10.4251,-183.416,6121.45,11232.1,1258.2,-436.771,-33.3545,0
14606,753.58,761.4,763.67,759.79,759.61,8.3,-717.77,287.6,-10.48,-6.92,-3.29,69.93,2922,0,82,-9.86799,9.32351,-95.1357,1490.18,5399.99,1405.94,-441.243,-15.6396,0
14640,753.67,761.04,762.74,759.41,759.21,352.54,-1214.36,515.14,13.76,-46.03,-12.16,55.08,2929,0,82,-3.55572,7.95612,-38.1549,206.184,2070.46,1118.99,-443.757,-5.39126,0
14775,759.58,764.2,766.24,761.38,762.85,363.28,-1240.23,156.25,-42.81,-26.3,10.95,67.44,2956,0,82,4.45433,3.82118,-55.1041,2815.42,4602.92,1212.65,-414.482,-51.045,0
14809,759.68,765.01,768.03,762.04,763.69,143.55,-1097.17,255.37,-19.03,-15.4,4.32,95.58,2963,0,82,-9.99476,2.97925,-113.532,5139.16,8169.77,252.538,-426.025,-45.2557,0
14843,759.39,765.51,769.72,762.49,764.28,95.7,-940.43,401.37,-1.16,-0.59,4.05,128.14,2970,0,82,-21.1477,3.55421,-177.652,8001.17,12511.6,803.736,-427.571,-45.0419,0
14877,759.26,766.01,771.57,762.72,764.89,111.82,-921.87,387.21,-4.4,-0.27,5.92,167.27,2976,0,82,-18.9473,6.79155,-200.832,7506.03,14308.5,1990.17,-426.754,-37.3757,0
14913,760.41,766.7,773.79,763.03,765.98,124.51,-920.9,386.72,2.72,-0.73,5.02,208.54,2984,0,82,-19.8847,11.6097,-210.833,5902.46,14857.2,2653.37,-427.531,-27.9971,0
14947,766.48,768.34,776.63,763.61,768.77,110.84,-864.75,427.73,-4.77,-11.43,2.46,236.66,2990,0,82,-24.0968,14.5577,-222.77,5068.12,15285.2,3007.72,-429.386,-22.7509,0
14981,777.22,770.42,780.97,764.88,773.37,129.88,-999.51,319.34,-8.99,-11.77,2.37,272.46,2997,0,82,-28.2412,16.4959,-256.795,5611.5,17615.1,3249.21,-429.404,-21.8512,0
15015,787.39,771.8,783.9,766.07,777.29,106.45,-953.61,324.71,-7.94,-2.31,-0.98,281.97,3004,0,82,-45.6495,16.4335,-353.391,11066,24420.4,2978.71,-428.896,-31.3084,0
15050,791.37,772.73,785.66,767.46,779.31,114.26,-980.96,359.37,4.05,-0.48,3.75,284.41,3011,0,82,-75.769,14.7041,-526.4,22629.4,37084.1,1317.24,-427.552,-42.9831,0
15084,791.48,773.14,786.15,768.37,779.78,104.98,-946.78,378.91,5.9,3.01,-0.79,279.63,3018,0,82,-98.9712,13.5533,-689.369,34673.8,49528.2,-329.297,-426.155,-50.2971,0
15118,790.67,773.06,785.67,768.49,779.47,107.42,-942.87,356.45,0.54,1.07,-0.06,269.22,3025,0,82,-105.85,16.1953,-776.628,40095.2,56508.1,-583.495,-425.239,-51.6273,0
15152,790.52,772.79,784.67,768.43,779.1,125.49,-936.04,361.33,2.5,4.16,-0.04,247.7,3031,0,82,-103.973,17.8958,-779.076,39746.2,56753.1,-103.718,-425.153,-51.0172,0
15186,790.64,772.22,782.99,768.03,778.47,124.51,-942.38,398.93,-2.01,1.3,0.36,215.91,3038,0,82,-95.7249,15.8213,-740.086,37663.3,53814,337.304,-425.287,-50.8906,0
15220,789.94,771.41,780.91,767.16,777.36,123.05,-948.73,362.3,-1.44,1.22,0.7,185.92,3045,0,82,-87.7983,15.2792,-702.5,36363.4,51274.6,748.862,-425.011,-51.7628,0
15254,788.67,770.38,779.25,766.27,776.14,120.61,-932.62,369.14,2.85,1.58,-1.05,170.34,3052,0,82,-80.8101,8.12065,-662.146,36905.5,48944.9,932.171,-424.081,-55.7366,0
15288,786.79,769.42,777.54,765.37,774.78,122.07,-947.27,361.82,5.56,4.66,-3.75,155.19,3059,0,82,-72.2868,3.75453,-599.733,35473,44632.6,916.998,-423.579,-59.1483,0
15322,784.96,768.52,775.92,764.28,773.42,115.72,-919.43,372.07,-1.14,1.82,-0.52,144.27,3065,0,82,-63.0532,3.90504,-546.266,33374.8,40954,1113.21,-423.029,-61.097,0
15357,783.71,767.82,774.6,763.49,772.41,108.89,-939.45,367.19,-4.24,2.47,-0.53,132.75,3072,0,82,-51.9549,3.29988,-473.79,30131,35743,1265.39,-422.56,-63.597,0
15391,783.01,767.54,773.81,762.93,771.82,96.19,-938.96,375.49,-2.85,-0.85,-1.12,126.14,3079,0,82,-42.3769,1.3228,-407.595,26944.5,30747.2,1601.41,-422.564,-66.1075,0
15425,782.93,767.51,773.51,762.62,771.64,109.37,-941.89,362.79,-6.68,-1.3,1.85,123.72,3086,0,82,-36.7695,-1.47583,-360.6,24762.1,27241.7,1591.26,-422.455,-68.6693,0
15459,782.88,767.63,773.52,762.59,771.65,125,-948.73,364.26,-1.95,0.78,-0.15,123.46,3093,0,82,-34.6922,-3.09644,-340.609,23925,25641.2,1661.11,-422.72,-70.242,0
15493,782.11,767.69,773.6,762.7,771.52,126.46,-941.41,365.72,-1.52,-0.24,0.45,126.13,3100,0,82,-34.6176,-5.25961,-339.036,23923.7,25372.9,1898.5,-423.162,-70.5638,0
15527,780.53,767.72,773.86,762.78,771.22,111.33,-940.92,357.42,0.34,2.98,2.16,136.62,3106,0,82,-35.1994,-6.44123,-343.981,24129.9,25649,2004.92,-423.435,-70.1492,0
15561,778.81,767.84,774.01,762.85,770.88,118.16,-952.15,367.68,2.1,3.43,3.43,144.37,3113,0,82,-36.1496,-4.38308,-343.273,23164.1,25412.7,1849.24,-423.969,-67.4799,0
15595,777.56,768,774.3,763.02,770.72,123.05,-945.31,362.79,0.31,4.82,3.11,151.93,3120,0,82,-35.7896,-1.90175,-333.428,20982.2,24438.2,1904.3,-424.706,-62.9282,0
15629,777.25,768.1,774.38,763.08,770.7,114.26,-941.41,354.98,1.79,2.5,2.08,153.21,3127,0,82,-34.3154,2.20272,-321.224,18958.4,23413.4,2373.47,-425.112,-59.019,0
15664,777.56,768.2,774.5,763.19,770.86,112.3,-927.25,379.88,-1.64,-1.98,2.11,152.76,3134,0,82,-33.7286,4.68958,-315.526,17258.5,22723.8,2647,-425.981,-54.6975,0
15698,778.1,768.38,774.75,763.35,771.15,118.65,-920.9,367.68,0.83,0.47,1.63,153.49,3141,0,82,-34.0179,5.21443,-316.671,16900.5,22789,2790.22,-426.036,-53.3692,0
15732,778.26,768.58,774.77,763.44,771.26,125.49,-947.27,369.14,-1.21,-1.5,0.76,150.38,3147,0,82,-35.2883,5.09064,-326.657,17394.5,23430.6,2826.08,-426.272,-53.2499,0
15766,778.25,768.82,774.88,763.42,771.34,127.93,-943.85,375.49,-1.41,-1.76,0.19,151.6,3154,0,82,-37.5772,4.42281,-342.763,18447.6,24487.3,2586.95,-426.559,-53.8204,0
15800,778.05,769.07,775.02,763.55,771.42,119.14,-948.24,361.33,-0.44,-0.15,1.55,151.78,3161,0,82,-39.1439,3.21274,-351.631,19238.7,25027.4,2511.79,-426.825,-54.7127,0
15836,777.94,769.33,775.3,763.68,771.56,116.21,-940.92,365.23,-1.02,0.97,0.35,155.04,3168,0,82,-40.1736,2.26597,-354.115,19308.4,24952.2,2237.85,-427.536,-54.5258,0
15871,778.14,769.63,775.48,763.81,771.77,104,-933.59,362.79,1.21,0.18,-0.6,154.66,3175,0,82,-41.6264,2.09158,-359.014,19045,24946.6,2162.55,-428.513,-53.048,0
15905,777.91,769.87,775.87,763.92,771.89,117.19,-936.52,364.75,-0.87,2.83,2.92,161.56,3182,0,82,-42.4471,1.58278,-365.249,18553.4,25292.6,2248.44,-428.752,-50.7966,0
15939,777.78,770.22,776.28,764.26,772.14,120.61,-938.96,355.96,-0.51,2.05,3.45,164.35,3189,0,82,-42.8551,1.44149,-372.599,18806.4,25761.8,2305.51,-428.859,-50.4734,0
15972,777.58,770.59,776.66,764.49,772.33,110.35,-931.15,367.68,0.9,1.72,-2.43,168.29,3195,0,82,-43.8286,2.21927,-382.592,18776.9,26347.8,2257.8,-429.133,-49.0784,0
16006,777.18,770.89,776.98,764.71,772.44,117.68,-939.94,362.3,-1.55,0.23,0.43,171.95,3202,0,82,-45.1411,3.03695,-391.361,18392.1,26754.1,2418.22,-429.638,-46.9951,0
16040,776.77,771.34,777.3,764.94,772.59,125,-943.85,366.21,0.48,-0.83,2.34,174.43,3209,0,82,-45.7404,3.93564,-398.219,18022.9,27007.2,2433.09,-430.18,-45.259,0
16073,776.28,771.67,777.61,764.99,772.64,114.75,-941.89,369.63,-0.48,4.32,4.49,180.24,3216,0,82,-46.611,4.80571,-402.425,17326.3,27034.9,2662.67,-430.82,-43.0549,0
16107,775.98,771.86,777.75,765.18,772.69,97.17,-946.78,357.91,-0.09,1.94,-0.02,180.63,3222,0,82,-47.3983,4.82092,-404.793,16484.4,26913.8,2697.02,-431.512,-40.7231,0
16140,775.77,771.91,777.85,765.28,772.7,120.61,-948.24,365.23,1.84,0.82,2.95,181.99,3229,0,82,-47.4617,5.12922,-405.18,15897.9,26729.6,2665.9,-432.03,-39.2366,0
16175,775.68,771.9,777.98,765.35,772.73,116.21,-952.15,360.35,0.96,1.45,-1.73,184.42,3236,0,82,-47.4315,5.45116,-403.947,15409.1,26577.6,2705.74,-432.205,-38.1463,0
16208,775.58,772.03,778.09,765.43,772.79,113.28,-933.11,360.84,0.53,-0.26,0.82,185.38,3243,0,82,-47.4042,6.34996,-405.821,15299.5,26724.8,2728.27,-432.147,-37.7,0
16242,775.54,772.02,778.08,765.46,772.77,105.47,-961.91,359.86,-1.14,0.21,0.64,185.01,3249,0,82,-46.9146,6.50092,-406.157,15120.6,26779.9,2725.93,-432.065,-37.2284,0
16276,775.54,772.01,778.06,765.4,772.76,113.77,-937.99,365.23,-0.98,1.68,-3.16,185.43,3256,0,82,-47.0965,6.86418,-408.763,15177.5,26937.7,2871.82,-432.1,-37.1302,0
16310,775.63,771.94,778.07,765.5,772.78,124.51,-937.5,366.21,-0.32,0.39,0.5,184.34,3263,0,82,-47.4578,6.76933,-409.299,15296.5,27001.5,2805.62,-432.03,-37.3725,0
16344,775.78,771.91,778.01,765.42,772.78,115.72,-942.87,358.4,-1.15,3.8,-1.38,183.84,3270,0,82,-47.2926,6.92534,-408.282,15437.8,27076,2855.17,-431.683,-37.8117,0
16377,775.86,771.88,778.03,765.36,772.78,122.56,-942.87,358.89,0.18,0.36,1,185.12,3276,0,82,-46.6415,6.42828,-407.563,15559.4,27014.8,2883.68,-431.716,-38.1768,0
16411,776.07,771.83,777.91,765.34,772.79,114.75,-937.01,364.75,0.85,-0.15,-2.95,182,3283,0,82,-46.2106,5.14117,-407.016,15891.9,27003.4,2773.58,-431.655,-39.0448,0
16446,776.47,771.74,777.75,765.29,772.81,114.26,-953.12,374.51,-0.16,2.94,-1.47,178.27,3290,0,82,-46.2419,4.91641,-406.177,16013.6,27006.9,2824.66,-431.509,-39.4251,0
16480,776.82,771.6,777.62,765.18,772.8,112.79,-932.62,368.65,-0.33,-0.63,1.03,176.45,3297,0,82,-46.195,4.87918,-406.742,16536.4,27110.6,2583.04,-431.347,-40.6559,0
16514,777.41,771.45,777.35,765.06,772.82,112.3,-937.5,360.35,0.13,4.58,-1.12,170.68,3304,0,82,-46.274,4.23346,-407.727,17257.2,27388.7,2535.21,-430.826,-42.3255,0
16548,777.92,771.23,777.08,764.87,772.78,102.54,-934.08,357.42,2.04,2.41,-0.34,166.83,3311,0,82,-46.281,3.54418,-408.451,17963.6,27514.3,2364.01,-430.638,-43.9797,0
16582,778.5,770.99,776.81,764.76,772.77,114.75,-938.48,358.4,-1.43,1.83,1.02,161.66,3317,0,82,-45.9389,3.05226,-406.611,18799.6,27559.1,2153.19,-430.223,-46.2348,0
16616,779.03,770.82,776.49,764.57,772.73,107.42,-946.29,361.33,1,-0.88,-1.62,156.03,3324,0,82,-45.4463,2.82437,-406.072,19831.3,27725.7,1988.04,-429.722,-48.8368,0
16650,779.4,770.74,776.28,764.48,772.72,117.19,-945.31,357.42,0.08,2.39,-2.69,151.44,3331,0,82,-45.2519,2.09322,-404.291,20573.6,27731.6,1824.12,-429.407,-50.888,0
16684,779.88,770.49,776.13,764.38,772.72,118.16,-941.41,374.51,-0.85,-0.5,0.11,149.68,3338,0,82,-45.1145,2.17088,-403.424,21513.2,27883,1765.53,-428.884,-53.3266,0
16719,780.29,770.45,775.91,764.27,772.73,110.84,-939.94,362.3,1.53,-1.43,-0.47,144.56,3345,0,82,-44.7375,2.22916,-404.168,21943.8,27911.3,1692.37,-428.941,-54.2938,0
16753,780.79,770.37,775.7,764.19,772.76,117.68,-936.52,357.91,-0.21,2.82,-2.45,139.42,3352,0,82,-44.3835,1.70737,-403.226,22397.3,27886.1,1716.1,-428.843,-55.5453,0
16788,781.49,770.25,775.6,764.09,772.86,104.49,-937.5,362.79,-0.37,2.21,-1.78,136.9,3359,0,82,-44.8259,1.09149,-403.63,23015.4,27957.6,1411.65,-428.734,-57.0211,0
16822,782.09,770.03,775.35,763.97,772.86,103.03,-937.99,362.79,-0.84,0.83,-0.21,132.29,3365,0,82,-44.8351,1.20876,-404.394,23754.3,28100.9,1263.33,-428.511,-58.7404,0
16857,782.76,769.88,775.1,763.81,772.89,110.35,-926.76,374.02,-0.28,3.24,-2.66,127.34,3372,0,82,-44.9614,1.05595,-406.567,24534,28375.8,1133.35,-428.206,-60.3442,0
16891,783.66,769.71,774.87,763.76,773,114.75,-949.71,358.89,1.34,2.88,0.5,120.7,3379,0,82,-45.5416,0.293352,-408.526,25217.7,28641.2,887.272,-427.891,-61.7285,0
16925,784.53,769.71,774.79,763.78,773.2,126.95,-953.61,363.77,-0.31,0.77,-0.13,115.29,3386,0,82,-46.1688,0.444213,-407.98,26109,28733.1,646.644,-427.572,-63.9956,0
16959,784.92,769.46,774.56,763.65,773.15,121.09,-951.66,352.05,0.61,3.52,-1.65,112.19,3393,0,82,-47.0593,0.790854,-414.203,27322,29267.7,352.765,-427.34,-65.9627,0
16993,784.97,769.17,774.35,763.44,772.98,112.3,-943.85,361.82,0.36,0.86,-0.52,112.2,3400,0,82,-50.2783,1.09077,-421.6,28493.4,29863.2,-121.04,-427.167,-67.584,0
17027,785.08,768.94,774.11,763.39,772.88,112.3,-947.27,351.07,0.51,2.01,-1.1,108.37,3406,0,82,-50.7044,0.570445,-419.018,28844.8,29802,-294.306,-426.877,-68.8389,0
17061,785.1,768.78,774.02,763.29,772.8,120.12,-944.82,355.47,1.43,-0.59,0.59,108.9,3413,0,82,-48.8702,-0.398299,-411.431,28729.9,29398.1,-290.82,-426.547,-69.8294,0
17095,785.06,768.63,773.85,763.15,772.67,114.26,-937.01,365.23,2.56,2.13,-3.56,108.17,3420,0,82,-47.1676,-0.690178,-404.318,28496.5,29104.6,-253.89,-426.016,-70.4804,0
17129,784.96,768.63,773.74,763.12,772.61,110.35,-950.68,367.68,0.86,2.01,0.4,106.01,3427,0,82,-45.5752,-1.29934,-397.864,28255.2,28710.6,-221.034,-425.838,-71.0173,0
17164,784.76,768.47,773.73,763.09,772.51,115.23,-943.36,366.21,-0.65,2.18,2.76,108.07,3434,0,82,-44.4419,-1.59045,-394.08,28190.3,28605.9,-7.00489,-425.411,-71.5345,0
17198,784.62,768.38,773.67,763.03,772.42,110.35,-950.68,370.12,1.69,0.88,1.51,109.05,3441,0,82,-43.9615,-1.24881,-390.58,28068.7,28391.3,-26.9514,-425.31,-71.8642,0
17232,784.44,768.35,773.66,763.11,772.39,113.77,-944.34,354.49,0.66,0.18,1.29,108.32,3447,0,82,-43.3326,-1.13176,-387.154,27755.6,28101,-29.2092,-425.417,-71.6915,0
17266,784.17,768.47,773.57,763.08,772.32,120.61,-938.48,365.23,2.02,1.05,-0.4,106.45,3454,0,82,-42.5565,-0.887456,-383.436,27459.3,27806.9,120.585,-425.48,-71.6138,0
17300,783.91,768.49,773.71,763.11,772.31,114.75,-937.99,353.52,1.02,-1.15,0.24,110.2,3461,0,82,-42.1727,-0.772011,-380.257,27022.7,27533.8,217.575,-425.591,-71.0642,0
17334,783.46,768.65,773.87,763.18,772.29,114.26,-940.43,362.79,0.54,0.16,3.56,113.34,3468,0,82,-42.0232,-0.67817,-378.685,26460.7,27391,136.271,-425.668,-69.8754,0
17368,782.98,768.79,773.91,763.34,772.25,118.16,-945.31,356.45,1.98,1.91,1.08,112.49,3475,0,82,-41.8591,-0.84425,-378.781,26052.9,27294.5,249.809,-425.941,-68.7812,0
17402,782.49,768.93,774.16,763.47,772.26,114.75,-949.22,352.54,1.08,-0.39,2.17,117.5,3481,0,82,-41.5849,-0.135695,-379.899,25438.3,27293.3,576.331,-426.157,-66.9606,0
17436,782.08,769.05,774.33,763.55,772.25,126.95,-933.59,374.02,-0.48,1.11,0.03,121.11,3488,0,82,-41.7359,1.10637,-381.125,24788.1,27294.3,791.589,-426.385,-65.0393,0
17471,781.86,769.32,774.41,763.65,772.31,127.44,-941.89,368.65,0.1,1.15,-0.27,120.16,3495,0,82,-41.7463,1.18834,-382.463,24102.8,27215.1,1093.26,-426.842,-63.02,0
17505,781.8,769.36,774.56,763.78,772.38,123.54,-947.75,363.77,-1.41,0.1,-0.09,121.69,3502,0,82,-42.1421,1.48726,-382.813,23335.2,27055,1199.41,-427.326,-60.9571,0
17539,781.86,769.4,774.56,763.81,772.41,117.68,-950.68,370.12,-0.04,-2.09,1.45,120.82,3509,0,82,-42.3563,1.87919,-385.335,22902.9,27141.4,1302.91,-427.564,-59.4365,0
17572,781.92,769.43,774.54,763.82,772.43,118.16,-943.36,369.14,-0.77,3.43,0.4,119.69,3515,0,82,-42.7107,2.28307,-387.369,22876.2,27199.2,1230.89,-427.785,-59.0554,0
17606,781.99,769.4,774.58,763.74,772.43,109.37,-943.36,361.82,1.25,-0.55,0.65,121.86,3522,0,82,-43.1616,1.55451,-390.194,23150.4,27410.3,1205.83,-427.752,-59.3304,0
17640,782.04,769.43,774.67,763.89,772.51,116.21,-946.78,373.05,-2.24,-0.4,-0.58,121.43,3529,0,82,-43.3063,0.997291,-392.136,23180.7,27630.4,1135.82,-427.539,-59.1138,0
17673,782.23,769.43,774.55,763.89,772.52,118.65,-936.04,354.98,0.47,-0.08,-0.85,117.97,3536,0,82,-43.445,1.36833,-393.955,23388.1,27677.2,1128.93,-427.745,-59.3673,0
17709,782.33,769.42,774.52,763.82,772.52,117.19,-935.55,367.68,-0.56,1.5,0.72,117.91,3543,0,82,-43.6772,1.41964,-396.256,23700,27823.6,1089.49,-427.784,-59.8098,0
17743,782.34,769.58,774.6,763.85,772.59,126.95,-950.68,366.7,-0.25,0.36,-0.14,118.2,3550,0,82,-43.6618,0.705437,-397.486,24019.6,27959.1,996.844,-427.66,-60.4289,0
17777,782.31,769.65,774.58,763.89,772.61,107.42,-943.36,372.56,3.29,1.3,0.74,116.47,3556,0,82,-43.7314,0.487019,-398.69,23997.4,27993.1,955.028,-427.787,-60.1908,0
17811,782.17,769.64,774.68,763.89,772.59,121.58,-941.41,386.72,1.85,2.53,-0.89,119.48,3563,0,82,-43.4143,0.554713,-399.949,24189.1,28070,928.148,-427.816,-60.4804,0
17845,782.08,769.69,774.78,764.06,772.65,121.09,-941.41,365.72,-0.3,1.33,2.18,119.55,3570,0,82,-43.6611,0.181377,-402.456,24155.6,28234.6,924.314,-427.844,-60.0205,0
17879,782.11,769.75,774.77,764.02,772.66,128.91,-934.57,358.4,0.4,-2.18,3,119.37,3577,0,82,-43.8468,0.266417,-403.997,24155.2,28337.4,902.111,-427.857,-59.7905,0
17912,782.01,769.79,774.77,764.08,772.66,102.54,-937.5,353.03,1.91,2.56,-0.6,118.52,3583,0,82,-44.0901,0.456224,-405.281,24020.4,28377.7,1106.59,-427.98,-59.2686,0
17946,781.91,769.78,774.89,764.12,772.68,130.37,-934.57,368.65,0.31,4.69,-0.27,121.41,3590,0,82,-44.2103,0.33259,-406.551,23924.5,28509.3,1052.11,-427.875,-58.8475,0
17980,781.92,769.81,774.91,764.14,772.7,118.65,-934.57,354.49,-0.23,-0.56,2.99,121.26,3597,0,82,-43.9678,0.797765,-407.22,23850.1,28524.3,1152.21,-427.954,-58.568,0
18014,781.89,769.79,774.94,764.23,772.71,106.93,-946.29,362.79,1.12,-0.42,0.01,120.69,3604,0,82,-43.9228,0.743201,-407.545,23615.4,28549,1131.77,-427.949,-57.9456,0
18048,781.85,769.81,775.02,764.18,772.71,120.12,-946.29,362.3,-0.04,2.36,1.31,123.43,3611,0,82,-44.0711,0.374529,-408.508,23531.7,28577.7,1145.15,-428.044,-57.6039,0
18082,781.76,769.9,775.08,764.27,772.75,116.21,-938.48,346.68,1.31,1.45,0.41,123.38,3617,0,82,-44.2012,0.0105032,-408.759,23405,28691.6,1140.65,-427.808,-57.2586,0
18116,781.64,769.94,774.98,764.28,772.71,114.26,-937.01,363.28,1.83,1.84,1.04,120.76,3624,0,82,-44.2167,0.521716,-409.476,23365.8,28643.4,1159.56,-428.049,-57.0626,0
18151,781.58,770.01,775.09,764.31,772.75,123.54,-943.36,369.14,0.47,2.97,0.76,122.79,3631,0,82,-44.0683,0.619047,-409.16,23185.8,28631.3,1235.46,-428.024,-56.6667,0
18185,781.46,769.89,775.2,764.3,772.71,105.47,-944.34,362.79,1.56,1.46,0.05,126.93,3638,0,82,-44.4129,0.513118,-409.532,23130.9,28672.9,1149.45,-427.986,-56.4813,0
18219,781.26,769.98,775.23,764.33,772.7,126.46,-946.29,359.37,-0.66,3.13,1.33,127.38,3645,0,82,-44.0589,0.626923,-410.001,23096.6,28608.9,1212.3,-428.222,-56.333,0
18253,781.23,770,775.33,764.42,772.75,121.58,-955.57,373.54,0.18,0.29,-2.85,128.39,3652,0,82,-43.826,0.514723,-408.277,22685.4,28449.6,1298.84,-428.318,-55.5637,0
18287,781.12,769.96,775.43,764.39,772.73,120.12,-937.01,373.54,0.59,3.04,-0.03,131.87,3658,0,82,-43.7221,0.526047,-407.999,22488.4,28310.4,1319.67,-428.612,-55.1188,0
18321,781.08,770.03,775.41,764.37,772.72,108.89,-955.57,360.35,2.67,1.24,1.53,131.51,3665,0,82,-43.369,0.476838,-408.218,22236.1,28356.5,1322.41,-428.536,-54.4712,0
18355,780.88,769.99,775.58,764.41,772.71,118.16,-950.2,358.89,1.62,3.02,-1.8,136.21,3672,0,82,-43.6547,0.375001,-408.845,22003.4,28331.4,1347.92,-428.704,-53.8186,0
18389,780.8,770.02,775.6,764.49,772.73,125,-939.45,375,-1.48,2.8,0.98,135.52,3679,0,82,-43.9292,0.429628,-409.125,21773.7,28375.1,1294.7,-428.645,-53.2201,0
18424,780.56,770.05,775.65,764.49,772.69,128.42,-958.5,360.84,1.86,2.27,-0.01,137.21,3686,0,82,-43.5768,0.195154,-408.915,21620.5,28355.2,1189.12,-428.657,-52.873,0
18458,780.58,770.07,775.66,764.51,772.71,98.63,-932.62,368.65,-1.67,1.28,-1.15,137.1,3693,0,82,-43.5496,0.0667649,-408.612,21383.4,28337.5,1392.35,-428.649,-52.3317,0
18492,780.48,770,775.8,764.47,772.69,110.84,-942.87,366.7,1.21,3.18,-1.69,141.86,3699,0,82,-43.4338,0.417158,-407.965,21291.9,28314.1,1396.63,-428.597,-52.1904,0
18526,780.44,770.09,775.91,764.55,772.75,104.49,-944.34,364.26,-0.56,1.05,-1.92,142.98,3706,0,82,-43.4569,0.393072,-406.964,21098,28282.9,1414.71,-428.503,-51.8424,0
18560,780.4,770.01,776,764.57,772.74,114.75,-944.82,357.91,1.09,-0.05,1.95,145.6,3713,0,82,-43.239,0.323955,-406.514,20717,28164.3,1380.27,-428.718,-50.9625,0
18594,780.27,770.04,776.08,764.42,772.7,123.05,-936.52,362.79,2.89,3.69,-0.3,150.05,3720,0,82,-43.1096,0.0564849,-406.22,20651.3,28171,1384.1,-428.651,-50.8377,0
18628,780.25,770.05,776.05,764.55,772.73,114.75,-934.08,353.52,0.8,1.88,-1.09,147.31,3727,0,82,-43.1124,0.330992,-406.627,20476,28175.8,1457.81,-428.708,-50.3558,0
18664,780.06,770.14,776.08,764.59,772.72,107.42,-948.73,359.37,2.27,1.92,2.34,147.44,3734,0,82,-43.3714,0.30207,-406.798,20378.2,28079.9,1373.24,-428.973,-50.0942,0
18698,779.98,770.18,776.06,764.65,772.72,103.52,-938.48,374.02,0.24,2,-0.72,146.02,3741,0,82,-43.0102,0.329359,-406.657,20309.7,28093.6,1350.48,-428.916,-49.9432,0
18732,779.83,770.24,776.12,764.71,772.72,127.93,-924.32,364.26,1.03,1.66,0.18,146.57,3747,0,82,-43.3769,0.474577,-405.98,20124.2,27972.9,1449.9,-429.098,-49.5695,0
18767,779.78,770.34,776.11,764.68,772.73,131.35,-947.27,372.56,-1.58,2.63,-1.05,146.35,3754,0,82,-43.2738,0.822225,-406.06,20080.2,27934.3,1429.12,-429.206,-49.4513,0
18801,779.65,770.36,775.95,764.79,772.69,126.95,-945.8,362.3,-0.24,0.1,3.33,140.78,3761,0,82,-43.3472,0.5043,-406.473,19769,27911.1,1487.54,-429.333,-48.6354,0
18835,779.6,770.43,775.72,764.9,772.66,108.4,-932.13,373.54,0.05,-1.53,-0.61,133.23,3768,0,82,-43.4539,0.746203,-406.821,19859.2,28006.1,1526.79,-429.159,-48.8155,0
18869,779.44,770.36,775.67,764.95,772.61,111.82,-934.57,364.26,-0.5,2.58,0.97,132.2,3775,0,82,-43.4904,0.604561,-407.406,19837.5,28040.5,1499.44,-429.173,-48.6923,0
18903,779.43,770.49,775.6,764.97,772.62,120.12,-934.08,370.12,0.11,0.7,-1.62,129.21,3782,0,82,-43.5481,0.153262,-407.732,20102.3,28206.5,1460.64,-428.821,-49.3028,0
18937,779.28,770.49,775.58,765,772.59,120.12,-935.06,364.26,0.27,3.25,2.35,128.77,3788,0,82,-43.5825,0.415579,-407.708,19979.7,28075.5,1449.42,-429.138,-49.005,0
18971,779.29,770.48,775.54,765.07,772.6,116.7,-942.38,359.37,2.59,0.25,1.11,126.84,3795,0,82,-43.6609,0.748461,-407.167,20040.8,28071.4,1576.36,-429.057,-49.22,0
19005,779.31,770.48,775.54,765.06,772.6,123.05,-945.31,371.58,1.18,0.47,4.2,126.88,3802,0,82,-43.65,0.726792,-406.609,20100.3,28139.6,1494.4,-428.794,-49.4341,0
19039,779.2,770.62,775.53,765.02,772.59,113.28,-933.11,363.77,1.39,-0.94,-0.39,126.51,3809,0,82,-43.7068,0.525792,-407.75,19943.2,28114.9,1499.25,-429.049,-48.9103,0
19074,779.15,770.57,775.49,765.07,772.57,117.68,-944.34,373.05,0.64,1.34,0.53,125.37,3816,0,82,-43.802,0.454092,-408.599,20077.2,28183.7,1548.03,-429.024,-49.1367,0
19108,779.19,770.54,775.45,765.13,772.58,114.26,-939.94,371.58,1.56,0.91,0.18,123.74,3823,0,82,-43.4706,0.33086,-407.685,20182.7,28218.4,1569.96,-428.784,-49.5056,0
19142,779.08,770.53,775.51,765.1,772.56,129.39,-940.92,366.7,1.82,1.35,-2.31,126.05,3829,0,82,-43.6429,0.321804,-408.047,20078.8,28235.7,1561.91,-428.803,-49.207,0
19175,779.06,770.57,775.47,765.15,772.56,123.05,-936.52,368.16,1.28,-0.56,0.66,123.97,3836,0,82,-43.9184,0.4565,-408.677,20179.9,28261.9,1637.36,-428.846,-49.3786,0
19209,778.99,770.58,775.53,765.24,772.58,114.26,-931.15,354.98,1.37,0.98,-1.57,124.28,3843,0,82,-44.0576,0.495781,-407.51,19964.4,28187,1570.62,-428.831,-48.991,0
19242,778.98,770.58,775.5,765.25,772.58,119.14,-947.27,373.54,1.31,1.34,-0.55,123.33,3849,0,82,-43.665,0.627464,-407.214,19917,28137.5,1612.45,-428.902,-48.9105,0
19276,778.96,770.6,775.47,765.15,772.55,112.79,-935.55,363.77,2.01,-2.32,1.32,124.18,3856,0,82,-43.5382,1.00098,-407.167,19888.7,28145.4,1671.53,-428.875,-48.8465,0
19310,778.93,770.57,775.52,765.22,772.56,112.3,-928.71,372.07,1.5,0.74,1.72,124.57,3863,0,82,-43.2541,1.08802,-407.063,19854.2,28055.1,1648.04,-429.079,-48.7743,0
19343,778.85,770.55,775.54,765.25,772.55,118.16,-945.31,365.23,0.47,2.05,0.35,125.26,3870,0,82,-43.1681,0.830182,-406.374,19844.6,28031.2,1578.03,-429.021,-48.8333,0
19377,779.02,770.53,775.53,765.24,772.58,131.35,-934.08,375.49,0.11,-0.15,-2.11,124.66,3876,0,82,-43.3187,0.310385,-405.529,19668,27970.8,1527.8,-429.026,-48.4996,0
19411,778.92,770.51,775.48,765.15,772.52,120.12,-939.94,368.65,0.03,1.18,-0.92,125.05,3883,0,82,-43.2048,0.660483,-405.292,19600.1,27943.5,1587.33,-429.053,-48.3605,0
19445,779.12,770.57,775.39,765.16,772.56,114.75,-938.96,360.35,-1.87,-1.7,-1.29,121.66,3890,0,82,-43.0071,0.755183,-404.899,19803,28031.8,1426.74,-428.768,-48.9086,0
19479,779.06,770.47,775.37,765.17,772.52,126.46,-953.12,363.77,-1.03,1.94,0.03,121.95,3897,0,82,-43.0675,1.00486,-405.468,19875.5,28000.6,1579.6,-428.943,-49.0187,0
19513,779.2,770.5,775.41,765.17,772.57,117.19,-953.12,357.91,-0.07,1.34,-1.01,122.22,3904,0,82,-42.8853,0.737342,-405.834,20034,28030.8,1453.17,-428.931,-49.3648,0
19546,779.27,770.46,775.36,765.12,772.55,117.19,-939.45,355.47,-0.42,1.98,1.22,121.8,3910,0,82,-42.7494,0.835618,-406.114,20069.4,28060.5,1445.37,-428.905,-49.4182,0
19582,779.37,770.48,775.3,765.08,772.56,115.72,-943.36,364.26,1.82,1.71,0,120.5,3917,0,82,-43.1632,0.481581,-405.847,20191.5,28088.5,1523.36,-428.79,-49.7516,0
19616,779.43,770.39,775.34,765,772.54,114.26,-931.64,363.28,1.43,0.66,0.29,123.16,3924,0,82,-43.1984,0.274984,-406.224,20426.7,28184,1395.96,-428.62,-50.2842,0
19650,779.52,770.42,775.23,765.01,772.55,114.75,-948.24,371.58,0.5,0.46,1.67,119.73,3931,0,82,-43.3279,0.506754,-407.183,20597.5,28247.4,1445.67,-428.627,-50.5854,0
19684,779.67,770.44,775.22,764.97,772.58,128.42,-949.71,362.79,1.55,2.08,1.56,119.27,3938,0,82,-43.4579,1.28222,-407.243,20995.6,28292.7,1442.79,-428.526,-51.5555,0
19718,779.72,770.39,775.26,765,772.59,110.84,-928.22,364.26,0.55,2.11,-0.27,120.09,3945,0,82,-42.979,0.869318,-406.892,21064.1,28213.5,1397.63,-428.661,-51.7683,0
19752,779.75,770.43,775.22,765.01,772.6,118.16,-934.57,370.61,1.01,-0.72,0.41,118.43,3951,0,82,-43.0234,0.878468,-406.807,21264.4,28357.3,1333.78,-428.293,-52.2715,0
19786,779.8,770.52,775.23,764.96,772.63,117.68,-943.85,358.4,0.73,2.29,0.31,118.58,3958,0,82,-42.8579,0.427407,-407.765,21445,28351.9,1459.71,-428.47,-52.5917,0
19821,779.82,770.42,775.21,764.97,772.61,130.86,-955.57,357.42,0.69,0,0.82,118.84,3965,0,82,-42.9556,-0.103698,-408.214,21445,28442.5,1332.92,-428.325,-52.5338,0
19855,779.85,770.45,775.18,764.92,772.6,115.23,-944.34,367.19,1.78,0.95,1.79,118.22,3972,0,82,-43.4023,0.257384,-409.419,21736.9,28500.8,1135.95,-428.387,-53.092,0
19889,779.88,770.44,775.21,764.99,772.63,107.42,-934.57,370.12,-0.37,1.89,1.56,118,3979,0,82,-43.2698,0.113925,-409.459,21711.7,28482.6,1225.32,-428.438,-53.0252,0
19923,779.95,770.45,775.23,765.04,772.66,118.65,-944.82,364.26,2.82,-0.7,-0.15,117.61,3986,0,82,-43.1472,0.0605887,-409.553,21655.3,28488.7,1327.76,-428.44,-52.8755,0
19957,779.94,770.48,775.17,765,772.65,122.07,-941.89,374.51,-1.13,2.39,1.42,116.48,3992,0,82,-43.3546,0.0405151,-409.293,21540.3,28458.2,1403.58,-428.47,-52.628,0
19991,779.9,770.41,775.2,764.95,772.62,125,-939.45,355.96,-0.49,-0.03,0.38,118.54,3999,0,82,-42.9368,-0.0523725,-409.561,21536.3,28461.6,1227.98,-428.507,-52.584,0
20025,779.93,770.41,775.15,764.97,772.62,113.77,-946.29,354.49,0.31,1.91,0.1,116.88,4006,0,82,-43.0672,0.0509864,-410.091,21747.9,28527.5,1332.86,-428.436,-53.0318,0
20059,779.93,770.44,775.15,765,772.63,113.28,-940.92,366.21,-0.78,1.65,-1.82,116.27,4013,0,82,-43.4043,-0.14923,-410.369,21717,28506.4,1271.43,-428.535,-52.9206,0
20093,779.99,770.37,775.15,765.01,772.63,126.46,-937.99,367.68,1.49,1.47,0.81,116.54,4020,0,82,-43.1739,0.0552724,-410.423,21853.5,28522.9,1249.57,-428.504,-53.2461,0
20128,780,770.35,775.06,764.92,772.58,106.93,-951.66,357.91,1.7,2.71,0.24,115.84,4027,0,82,-42.8072,-0.0861907,-409.952,21744.5,28439.1,1353.64,-428.628,-53.0416,0
20162,779.98,770.38,775.1,764.91,772.59,116.21,-948.73,380.86,1.44,1.12,0.76,116.58,4033,0,82,-43.158,0.175507,-409.536,21737,28452.8,1349.27,-428.524,-53.0771,0
20196,780.03,770.31,775.07,764.86,772.57,121.58,-937.5,370.61,0.95,0.6,-0.07,116.95,4040,0,82,-42.9109,0.365943,-408.557,21812.6,28480.4,1365.95,-428.29,-53.3894,0
20230,780.08,770.32,775.08,764.85,772.58,119.14,-937.5,359.86,1.48,-0.34,-0.06,117.36,4047,0,82,-42.9763,0.349303,-408.397,21685.4,28461,1373.63,-428.31,-53.0988,0
20264,780.23,770.32,775.06,764.91,772.63,112.79,-937.01,363.28,-0.34,0.79,1.92,115.2,4054,0,82,-42.9521,0.666858,-409.236,21982.3,28467.8,1246.37,-428.437,-53.7156,0
20298,780.33,770.32,775.02,764.82,772.62,118.65,-929.69,379.39,0.1,-0.24,-1.98,115.19,4061,0,82,-43.054,0.344034,-410.208,22134.4,28533.6,1208.32,-428.441,-53.9589,0
20332,780.45,770.27,774.97,764.87,772.64,122.56,-950.68,354,-0.63,3.11,1,113.44,4067,0,82,-43.3019,0.366178,-410.848,22260.3,28686.9,1133.73,-428.176,-54.1814,0
20366,780.68,770.16,774.92,764.78,772.63,123.05,-936.04,366.7,1.05,1.62,0.83,113.56,4074,0,82,-43.0785,0.55957,-410.774,22431.4,28748.6,1181.77,-428.014,-54.6077,0
20401,781.03,770.07,774.86,764.67,772.66,110.35,-947.75,362.3,-1.41,1.27,0.83,113.09,4081,0,82,-42.9053,0.545544,-409.99,22610.6,28656.3,1116.62,-428.105,-55.1492,0
20435,781.3,770.02,774.63,764.54,772.62,120.12,-941.89,371.09,-1.69,1.98,-1.05,108.7,4088,0,82,-42.5046,0.390858,-409.167,22988.4,28673.6,1114.15,-427.922,-56.1835,0
20469,781.56,769.94,774.5,764.58,772.64,110.84,-945.31,355.47,-1.21,-0.15,1.02,104.62,4095,0,82,-42.4967,-0.401348,-408.254,23367.6,28727.5,973.47,-427.633,-57.238,0
20503,781.81,769.81,774.49,764.49,772.65,120.12,-941.89,361.33,0.66,2.11,-0.28,105.97,4102,0,82,-42.3957,-0.785358,-409.029,24078.9,28831.6,895.215,-427.512,-58.8683,0
20539,782.03,769.81,774.37,764.42,772.66,119.14,-936.52,373.05,-1.63,0.24,-1.73,103.16,4109,0,82,-42.1185,-1.41291,-409.454,24423.3,28926.1,701.703,-427.354,-59.6486,0
20573,782.34,769.75,774.22,764.34,772.66,117.19,-946.29,369.63,1.73,1.24,0.3,99.99,4116,0,82,-42.0729,-1.89334,-409.237,24716.2,29014.5,705.654,-427.101,-60.3959,0
20607,782.72,769.56,774.11,764.2,772.65,116.7,-935.55,350.59,1.52,0.55,-0.71,99.63,4122,0,82,-42.1158,-2.07233,-408.954,25066.5,28988.1,576.253,-427.116,-61.2942,0
20641,782.9,769.48,774.01,764.12,772.63,106.45,-934.08,373.54,3.4,1.21,-1.51,98.31,4129,0,82,-41.8889,-2.34103,-408.938,25592.6,29146.6,574.303,-426.726,-62.5829,0
20675,783.01,769.41,773.95,764.11,772.62,111.33,-955.08,369.63,2.47,1.65,0.28,97.1,4136,0,82,-42.0114,-2.26963,-407.462,26085.1,29170.6,447.642,-426.409,-64.0184,0
20709,782.91,769.38,773.94,764.11,772.59,124.02,-945.31,354.98,-0.38,-0.07,0.51,97.6,4143,0,82,-41.8036,-2.86413,-407.114,26462.8,29197.3,398.851,-426.282,-65.0009,0
20743,782.8,769.41,773.91,764.1,772.55,117.19,-950.68,363.77,0.43,1.83,0.15,97,4150,0,82,-41.7842,-3.20589,-407.753,26354.3,29211.9,220.252,-426.359,-64.6331,0
20777,782.73,769.48,773.9,764.2,772.58,126.46,-955.08,360.35,0.79,1.21,1.25,94.98,4156,0,82,-41.603,-2.47418,-407.697,26377.8,29146.1,319.508,-426.51,-64.6996,0
20810,782.59,769.46,774.02,764.25,772.58,109.37,-943.85,355.47,0.73,2.28,1.68,98.03,4163,0,82,-41.9318,-2.48688,-407.724,26122.8,29108.3,287.828,-426.608,-64.0697,0
20844,782.46,769.4,773.97,764.3,772.53,123.05,-940.43,369.14,0.96,2.67,0.26,96.91,4170,0,82,-42.181,-2.50208,-408.295,25743.2,29131.8,349.717,-426.65,-63.0505,0
20878,782.23,769.4,773.97,764.3,772.47,124.02,-942.38,362.3,0.21,0.99,0.43,97.61,4177,0,82,-42.0651,-2.0775,-407.015,25519.3,28990.7,473.16,-426.772,-62.6986,0
20911,782.09,769.46,774.03,764.3,772.47,109.37,-936.52,372.07,0.4,2.86,-0.85,99.15,4183,0,82,-41.7365,-2.56828,-403.734,25190.8,28866.1,318.673,-426.502,-62.3947,0
20945,782.21,769.38,774.01,764.36,772.49,121.58,-920.9,360.84,1.05,3.16,-2.34,97.95,4190,0,82,-41.0321,-2.60998,-402.243,24789.6,28774.4,291.366,-426.465,-61.6283,0
20979,782.58,769.42,774.01,764.48,772.62,121.09,-937.5,360.35,3.17,0.42,0.15,94.82,4197,0,82,-40.7974,-2.76715,-400.206,24396.6,28588.5,296.908,-426.566,-60.96,0
21013,782.67,769.34,773.97,764.4,772.59,114.75,-937.5,370.12,-1.36,2.11,-1.69,95.16,4204,0,82,-41.3114,-3.29785,-405.678,24768,29039,202.295,-426.419,-61.0534,0
21046,782.02,769.44,773.98,764.48,772.48,110.84,-946.29,364.75,1.83,2.3,-0.82,95.52,4210,0,82,-42.2291,-4.57484,-412.608,25468.1,29666,-67.0148,-426.101,-61.7246,0
21080,781.6,769.43,774.1,764.62,772.44,116.7,-942.38,358.89,0.25,3.69,0.36,97.99,4217,0,82,-42.6271,-6.93509,-416.025,26056,30012.5,-467.557,-425.859,-62.6308,0
21114,781.42,769.35,774.19,764.69,772.41,117.19,-946.29,356.93,1.58,2.35,2.01,100.45,4224,0,82,-41.5178,-5.90276,-410.311,24898.1,29548.2,-148.477,-425.986,-60.6809,0
21148,781.41,769.37,774.16,764.73,772.42,118.16,-936.52,362.3,1.37,1.74,-2.37,99.08,4231,0,82,-40.8061,-5.65648,-405.3,23806,29157.4,-143.14,-426.06,-58.7368,0
21182,780.44,769.56,774.37,764.93,772.32,109.37,-939.94,351.56,3.23,0.59,-0.66,103.12,4237,0,82,-40.8351,-6.0266,-405.903,23491.6,29291.6,-149.071,-425.836,-57.8749,0
21216,779.59,769.86,774.73,765.39,772.39,121.58,-939.94,374.51,3.86,5.95,0.99,105.87,4244,0,82,-41.139,-8.82029,-408.737,23841.7,29477.3,-502.602,-425.882,-58.3301,0
21250,778.05,770.25,775.27,766.01,772.39,125,-951.17,375,2.42,3.38,1.27,112.55,4251,0,82,-41.9363,-7.04412,-411.774,22460.7,29615.4,-392.419,-426.079,-54.5464,0
21284,776.67,770.66,776,766.72,772.51,125,-952.64,363.77,2.03,1.48,0.08,121.56,4258,0,82,-42.9499,-5.63187,-419.408,21184.4,30064.9,-232.412,-426.316,-50.5104,0
21318,775.65,771.14,776.64,767.41,772.71,116.21,-937.01,369.63,0.89,1.49,2.02,127.05,4265,0,82,-44.4866,-2.64372,-424.134,18914.8,30025.1,12.9841,-427.208,-44.5964,0
21352,774.95,771.53,777.32,768.01,772.95,121.09,-924.8,374.51,3.13,2.32,2.52,134.54,4271,0,82,-46.1595,-1.00361,-430.114,16964.6,30116.1,324.111,-427.981,-39.4423,0
21386,774.13,771.88,777.96,768.55,773.13,107.42,-933.11,374.02,-1.14,3.64,2.85,142.39,4278,0,82,-48.588,1.57459,-437.564,15435.1,30362.8,532.634,-428.61,-35.2753,0
21420,772.88,771.94,778.33,768.82,773,118.16,-939.45,379.39,1.18,3.1,1.91,151.44,4285,0,82,-51.6232,1.75612,-449.741,14483.2,31120.8,629.838,-428.803,-32.2036,0
21470,770.99,771.92,778.69,768.94,772.63,106.45,-939.45,367.68,1.89,4.15,3.07,165.16,4295,0,82,-52.2605,2.52268,-452.07,12933.3,31093.8,910.259,-429.219,-28.6086,0
21504,770.56,772.01,778.73,768.88,772.55,119.14,-938.96,386.72,0.05,1.85,0,167.85,4302,0,82,-50.6644,4.31422,-438.085,10995.2,29922.6,1520.98,-429.697,-25.0978,0
21538,770.54,771.95,778.89,768.87,772.56,121.58,-925.78,373.05,-1.05,0.17,1.02,172.7,4309,0,82,-47.5238,5.9715,-419.267,9387.64,28471.2,2090.21,-430.093,-22.3904,0
21572,770.7,771.98,778.72,768.71,772.53,117.68,-937.5,368.65,-3.8,1.11,-1.73,169.76,4315,0,82,-45.7236,6.33652,-416.015,9038.58,28283.8,2430.17,-430.013,-21.7266,0
21606,771.03,771.87,778.54,768.46,772.48,100.1,-940.43,360.84,1.14,1.15,-0.84,169.01,4322,0,82,-46.0005,5.94795,-414.812,9067.48,28148.3,2634.78,-430.142,-21.8593,0
21641,771.16,771.83,778.43,768.29,772.43,121.09,-947.75,369.14,-2.6,0.73,0.5,168.35,4329,0,82,-46.7811,2.89141,-412.914,9856.05,28015.7,2324.55,-430.151,-23.8696,0
21675,771.01,771.86,778.29,768.08,772.31,109.37,-943.85,363.28,-2.81,0.29,0.6,168.32,4336,0,82,-46.8899,-0.391316,-409.481,10588.8,27851.7,2107.47,-429.983,-25.8591,0
21709,770.81,771.86,778.2,767.97,772.21,109.86,-941.89,370.61,2.53,2.82,0.54,168.46,4343,0,82,-48.5658,-1.77304,-408.628,11296.4,27714.1,1718.13,-430.178,-27.6446,0
21743,770.63,771.74,778.23,767.97,772.14,123.54,-942.87,371.58,2.27,4.19,2.07,170.76,4350,0,82,-49.3324,-1.44185,-404.688,11247,27329.1,1873.16,-430.469,-27.7918,0
21777,770.51,771.72,778.35,767.93,772.13,110.35,-932.13,376.95,-2.82,3.02,3.16,174.92,4356,0,82,-47.3873,-0.81839,-399.035,10766.2,27013,2208.13,-430.304,-26.9804,0
21811,770.17,771.77,778.44,768.09,772.12,101.56,-936.52,368.16,1.16,2.17,0.74,175.68,4363,0,82,-45.6162,0.406891,-395.868,10452.3,26928.6,2438.43,-429.976,-26.4035,0
21845,769.92,771.57,778.33,768,771.96,97.66,-924.8,379.39,-0.97,0.63,-1.03,176.63,4370,0,82,-44.6697,1.07597,-393.687,9897.91,26770.1,2647.75,-430.002,-25.1415,0
21879,769.04,771.34,778.19,767.83,771.6,111.33,-963.38,371.09,0.05,3.83,-0.19,180.53,4377,0,82,-44.4831,1.07821,-393.692,9379.33,26787.4,2667.01,-429.959,-23.8239,0
21913,767.78,771.17,778.21,767.74,771.22,112.3,-950.2,359.86,2.55,4.19,2.44,187.97,4384,0,82,-43.4916,-0.525966,-383.079,8936.53,26050.8,2592.49,-429.996,-23.3282,0
21948,767.62,770.68,777.73,767.29,770.83,104.49,-933.59,387.21,2.53,2.58,-2.6,187.33,4391,0,82,-40.2542,0.470089,-365.825,7900.54,24795.2,2504.36,-430.221,-21.5961,0
21982,768.34,770.43,777.51,767.04,770.83,106.45,-965.82,408.69,5.19,-0.27,1.24,184.89,4397,0,82,-37.993,5.38396,-346.226,6130.06,23155.8,2965.53,-431.12,-17.7045,0
22016,769.51,770.47,777.31,766.95,771.06,116.21,-948.24,404.79,-2.84,-0.1,-1.13,176.85,4404,0,82,-35.913,7.69298,-323.543,6203.8,21724.9,2628.95,-430.853,-19.1755,0
22050,771.08,770.45,776.98,766.72,771.31,116.21,-931.64,391.11,-0.57,-1.69,0.15,166.89,4411,0,82,-37.2658,10.666,-331.369,7614.77,22633,2591.33,-429.699,-22.9789,0
22084,771.79,770.4,776.54,766.2,771.23,124.51,-958.01,356.45,-3.13,1.3,1.61,161.54,4418,0,82,-39.4266,9.14367,-349.094,9922.86,23888.8,2282.19,-429.569,-28.424,0
22118,771.93,770.5,776.28,765.89,771.15,116.7,-945.31,365.72,-3.32,-1.93,0.47,158.32,4425,0,82,-41.6108,5.12103,-360.442,12350.9,24750.7,1981.7,-429.332,-34.2657,0
22152,771.78,770.42,775.9,765.52,770.9,108.89,-963.87,357.91,-2.77,-1.73,0.79,155.33,4431,0,82,-43.3692,1.0772,-362.671,13870.5,24893.3,1788.13,-429.361,-38.2456,0
22186,771.52,770.07,775.48,765.13,770.55,120.61,-949.22,363.28,1.21,0.18,1.08,154.49,4438,0,82,-43.5279,-1.00666,-355.499,14018,24051.8,1810.7,-430.344,-39.432,0
22220,771.64,769.53,775.16,764.82,770.29,111.82,-961.91,328.61,0.95,2.38,-1.88,154.92,4445,0,82,-41.3084,-5.07517,-344.79,13889.5,23142.4,1621.46,-430.88,-40.2841,0
22255,770.35,769.57,774.91,764.73,769.89,118.16,-922.36,412.11,6.67,5.08,2.68,154.21,4452,0,82,-35.6939,-8.11165,-324.04,13128.2,21890.5,1696.92,-430.445,-40.5142,0
22289,770.57,769.77,774.88,764.65,769.97,93.26,-935.06,394.04,1.69,-0.82,4.29,152.22,4459,0,82,-32.8796,-10.9107,-320.736,13994,22458.8,1706.67,-427.977,-43.6307,0
22323,769.48,769.47,774.92,764.67,769.64,121.09,-1007.81,325.68,21.75,4.95,2.66,159.19,4466,0,82,-28.6382,-12.3445,-294.29,11583.7,20209,2008.92,-429.33,-39.361,0
22357,770.11,768.61,774.43,763.93,769.27,93.26,-890.62,416.99,22.8,7.66,-2.12,162.44,4472,0,82,-30.3548,-10.2561,-304.557,11772.6,20836.1,2431.74,-429.586,-38.6547,0
22391,770.02,768.12,774.43,763.65,769.06,159.18,-935.06,412.6,16.18,1.12,-0.4,170.89,4479,0,82,-26.0186,-10.5957,-291.161,10739.4,20210.1,3074.52,-428.588,-36.8818,0
22426,769.62,767.59,773.93,763.2,768.59,116.7,-937.01,406.25,9.53,4.02,0.76,170.62,4486,0,82,-20.2095,-14.7146,-283.384,12031,20984.4,3332.94,-423.954,-42.4491,0
22460,770.02,767.44,774.2,763.19,768.71,97.17,-860.84,488.77,9.85,-1.07,-0.75,177.42,4493,0,82,-17.3464,-16.6244,-292.829,13813.1,22835.9,3777.87,-420.015,-47.1728,0
22493,768.83,767.86,774.89,763.66,768.81,120.12,-968.26,394.53,7.84,3.82,2.8,188.46,4500,0,82,-12.0588,-17.5111,-269.428,12679.5,21496.9,3948.64,-418.213,-47.0601,0
22527,767.45,767.89,775.63,764.09,768.76,119.63,-983.89,401.37,16.7,6.34,12.55,204.86,4506,0,82,-11.7498,-20.5776,-303.306,15090,24723.4,4018.52,-416.487,-49.7514,0
22560,767.1,768.07,776.93,764.79,769.22,84.96,-838.38,473.14,21.21,0.45,11.44,226.69,4513,0,82,-17.8185,-14.6434,-303.687,12426.2,24202.3,4589.69,-418.306,-40.9154,0
22594,765.45,768.15,778.23,765.85,769.42,113.77,-982.42,412.11,5.88,4.34,4.57,248.59,4520,0,82,-15.7432,-14.0382,-282.788,8927.51,22052.6,4649.68,-420.017,-31.5688,0
22628,763.97,768.37,780.17,767.17,769.92,56.64,-816.41,499.51,31.27,6.85,16.24,280.88,4527,0,82,-20.2994,-8.53951,-311.859,8271.48,24377.5,5508.54,-419.831,-26.5237,0
22662,762.14,768.87,783.18,769.3,770.87,97.17,-922.85,463.87,12.19,3.66,10.98,326.55,4533,0,82,-21.8957,-13.7428,-316.305,6293.24,24570.1,5072.04,-420.322,-19.8952,0
22696,759.18,768.72,786.03,771.25,771.29,86.91,-936.52,469.73,22.7,3.79,10.71,380.27,4540,0,82,-24.2455,-10.6398,-326.953,3078.01,25005.2,5620.37,-421.52,-9.41698,0
22730,757.96,768.71,789.07,773.32,772.27,46.39,-811.52,506.35,36.1,2.91,16.47,429.74,4547,0,82,-35.529,-1.68923,-358.165,-589.722,26749.9,6352.22,-423.314,1.64447,0
22763,756.56,768.97,792.27,776.18,773.5,71.29,-836.43,497.07,11.17,3.02,5.28,470.27,4554,0,82,-37.2371,0.315268,-351.681,-5057.38,25756.7,6124.43,-424.762,14.384,0
22797,755.05,768.79,795.67,778.52,774.51,64.45,-976.56,487.3,6.53,1.72,14.09,527.08,4560,0,82,-41.06,11.2957,-369.591,-7818.43,26840.8,7035.83,-425.378,21.154,0
22831,754.26,768.75,798.35,780.28,775.41,55.18,-850.59,519.04,13.42,7.2,15.21,571.2,4567,0,82,-51.0204,13.1013,-405.956,-10392.2,29422.4,6953.48,-425.523,25.5981,0
22865,753.98,768.73,800.83,781.89,776.36,13.18,-875.98,555.66,12.33,11.56,15.13,610.3,4574,0,82,-53.7265,14.7064,-416.241,-13823.6,29811.6,7373.7,-426.379,33.2105,0
22899,753.59,768.46,802.86,782.64,776.89,89.84,-885.25,548.34,-0.59,6.94,20.63,653.37,4581,0,82,-53.8406,15.9944,-429.06,-16198.5,30771.4,7913.02,-426.282,37.7532,0
22933,753.44,768.18,804.76,782.26,777.16,-26.86,-824.71,489.75,5.51,15.34,24.81,709.13,4588,0,82,-56.1064,15.8388,-445.324,-17496.7,31966.2,8311.46,-426.218,39.2897,0
22968,753.34,768.23,806.47,782.71,777.69,12.7,-896,515.62,1.87,-3.47,17.3,744.7,4595,0,82,-54.6151,9.06997,-438.577,-18876.5,30993.2,8193.85,-427.333,43.041,0
23002,753.34,768.1,807.71,782.83,778,-13.67,-859.86,533.69,3.52,5.95,21.07,775.07,4601,0,82,-54.8822,12.0377,-435.467,-19791.2,30688.1,8570.02,-427.528,45.4485,0
23036,753.24,767.92,808.53,782.85,778.14,-39.06,-831.05,520.02,7.41,7.19,16.8,797.05,4608,0,82,-54.0089,9.9747,-444.698,-20745.4,31380.3,9058.44,-427.435,46.6506,0
23070,753.24,768.01,809.26,783.35,778.46,-39.55,-872.56,515.14,4.64,5.22,10.36,806.92,4615,0,82,-51.4195,10.0241,-445.476,-21201.1,31464.8,9177.47,-427.368,47.592,0
23104,753.22,768.03,809.72,783.99,778.74,-62.99,-832.52,527.83,12.8,4.02,10.95,809.13,4622,0,82,-48.5219,8.14105,-446.899,-21642.9,31689.7,9028.63,-427.09,48.4292,0
23138,753.2,768.26,810.02,784.97,779.11,-106.93,-860.35,503.42,6.21,-9.76,5.09,800.31,4629,0,82,-50.8345,16.547,-456.68,-22603.8,32501.4,9815.5,-426.831,49.4956,0
23172,753.17,768.31,810.3,786.07,779.46,-97.17,-924.32,458.5,14.97,-28.21,6.73,790.86,4635,0,82,-52.2558,22.4868,-463.672,-22961.5,32997.7,10583,-426.834,49.5212,0
23206,753.12,768.31,810.65,786.9,779.75,-7.81,-780.76,594.73,21.96,-36.27,5.59,787.52,4642,0,82,-56.3426,26.7133,-478.371,-22934.3,34141.3,11501.8,-426.63,47.9428,0
23240,753.11,768.27,810.5,787.47,779.84,28.32,-797.36,585.94,17.84,-31.95,0.35,775.62,4649,0,82,-52.2833,24.3691,-480.524,-22209.7,34853.9,11579.3,-425.467,46.2197,0
23275,753,768.36,810.01,787.47,779.71,-16.6,-802.73,596.19,12.23,-35.75,-6.11,763.05,4656,0,82,-45.833,26.7255,-475.491,-20697.9,35369,11269.8,-423.616,43.5293,0
23309,753.12,768.38,807.56,786.84,778.97,80.08,-756.35,607.91,5.01,-27.02,-9.18,710.71,4663,0,82,-41.1022,26.3822,-467.106,-18965,35363.7,10801.4,-422.292,40.601,0
23344,753.66,768.21,801.5,785.62,777.25,164.06,-660.64,454.59,17.65,13.27,-11.64,577.36,4670,0,82,-37.361,24.0569,-456.014,-16615.1,35191.3,10316,-420.828,36.435,0
23378,754.56,767.98,798.53,783.57,776.16,43.95,-911.13,546.87,-24.06,-10.4,-20.25,532.32,4677,0,82,-33.5666,21.3112,-443.343,-13793.5,34806.8,9819.15,-419.49,31.1122,0
23413,755.45,767.63,796.06,781.75,775.22,12.7,-792.97,596.19,-15.06,-1.32,-20.16,497.28,4684,0,82,-30.9911,11.3754,-436.346,-9408.7,35336.9,7893.88,-417.016,21.5614,0
23447,756.22,767.36,793.85,779.74,774.29,69.34,-824.22,562.99,-28.62,1.42,-18.6,471.33,4690,0,82,-28.3192,0.228757,-431.485,-5373.15,35854.2,5839.75,-414.905,12.4519,0
23481,756.76,767.07,792.51,778.21,773.64,63.96,-886.23,549.8,-24.2,-1.79,-15.12,460.89,4697,0,82,-25.5427,-4.40387,-429.699,-1459.8,36751.7,4430.92,-412.471,3.39727,0
23515,757.46,766.91,791.8,776.98,773.29,43.95,-808.59,560.06,-22.13,-2.75,-14.82,460.33,4704,0,82,-26.0165,-7.95881,-421.706,1499.01,36625,2815.13,-411.15,-3.55507,0
23549,758.57,766.71,790.62,775.38,772.82,49.8,-892.09,515.14,-27.01,-2.4,-20.09,452.07,4711,0,82,-26.4084,-7.03569,-421.054,3185.52,36675.9,2166.57,-410.895,-7.56602,0
23583,759.31,766.64,789.68,773.89,772.38,106.45,-867.68,500.98,-23.69,-1.26,-12.87,448.75,4718,0,82,-27.9388,-6.30043,-416.389,4465.2,36262.9,1366.92,-410.911,-10.7237,0
23617,760.13,766.6,789.29,772.51,772.13,104,-873.54,482.42,-34.6,-4.11,-12.65,456.88,4724,0,82,-28.9997,-7.96915,-418.13,6732.31,36672.6,667.551,-410.294,-16.1002,0
23651,760.94,766.58,788.49,771.13,771.79,130.86,-912.11,456.05,-34.97,-3.97,-13.4,454.42,4731,0,82,-27.7913,-10.4808,-418.323,8593.81,36862.2,249.326,-409.881,-20.5436,0
23685,761.74,766.65,787.59,769.88,771.46,120.12,-903.32,453.12,-20.29,-2.41,-8.82,447.09,4738,0,82,-28.4319,-12.486,-412.112,9791.85,36063.9,-66.796,-410.49,-23.7602,0
23719,762.12,766.66,786.33,768.62,770.93,136.23,-936.04,432.62,-19.79,-5.91,-5.63,433.04,4745,0,82,-28.4226,-12.6697,-408.052,11369.9,35649.6,-77.7845,-410.635,-27.8641,0
23753,763.34,766.66,785.06,767.3,770.59,90.82,-867.68,457.03,-14.02,-4.48,-4.73,416.62,4752,0,82,-26.6189,-11.184,-394.317,12398,34402.7,359.528,-410.754,-31.4423,0
23788,765.2,766.86,784.39,766.34,770.7,152.83,-948.24,383.3,-11.34,-5.27,4.02,406.06,4759,0,82,-24.2621,-10.7251,-370.884,12550.2,32178.9,997.083,-411.237,-33.8398,0
23822,766.53,766.91,783.77,765.66,770.72,120.12,-899.9,429.69,-13.42,-6.92,2.61,395.6,4765,0,82,-23.5615,-13.3722,-361.288,13832.6,31341,1226.41,-411.252,-38.2871,0
23856,766.97,767.03,783.14,765.02,770.54,150.88,-957.52,380.37,-10.38,-4.41,3.65,386.97,4772,0,82,-27.4746,-10.6883,-370.174,16145.9,31922.7,1827.59,-411.763,-43.6167,0
23890,768.06,767.11,782.98,764.5,770.66,129.39,-927.25,409.67,-8.6,-4.14,3.05,386.08,4779,0,82,-30.9654,-11.0143,-367.343,17282.9,31408.4,2131.33,-412.499,-47.0484,0
23924,769.15,767.26,782.43,764.08,770.73,125,-904.79,409.18,-3.08,-3.21,1.02,373.75,4786,0,82,-31.5008,-10.8499,-355.059,17117.4,29917.9,2399.49,-413.738,-48.21,0
23958,769.55,767.5,781.84,763.76,770.66,127.44,-941.41,396.97,-4.64,-0.9,5.15,360.3,4793,0,82,-34.5093,-9.04263,-358.687,18160,30153.3,2633.71,-413.934,-50.6291,0
23992,771.08,767.82,781.34,763.4,770.91,123.54,-941.41,381.35,-5.33,-2.76,4.69,345.47,4799,0,82,-36.5743,-7.23854,-357.951,19193.3,29983.5,2754.97,-414.236,-53.6199,0
24025,771.72,768.1,781.24,763.34,771.1,122.56,-958.01,391.6,-3.74,-0.3,2.52,339.42,4806,0,82,-37.8047,-7.49293,-348.094,18921.6,28696.4,2966.87,-415.561,-54.3576,0
24059,771.22,768.6,780.59,763.12,770.88,126.46,-916.5,373.54,-7.24,-1.57,6.28,323.98,4813,0,82,-41.108,-5.96189,-351.363,19717.3,28659.8,2988.82,-416.432,-56.1169,0
24092,769.8,769.43,780.39,763.05,770.67,148.93,-963.38,350.1,-4.3,-1.78,4.69,318.35,4819,0,82,-42.9738,-6.52173,-361.591,20815.6,29344.6,2761.54,-416.846,-57.5663,0
24126,766.09,771.02,780.82,763.42,770.34,134.77,-942.87,365.23,-1.83,1.31,6.05,323.68,4826,0,82,-44.0964,-5.12812,-339.572,19152.4,26688.9,2778.29,-419.405,-56.4014,0
24159,761.31,772.72,782.02,764.25,770.08,143.07,-974.12,354.49,14.12,8.79,10.29,343.97,4833,0,82,-43.1184,-3.31349,-328.449,16366.8,24648.4,3183.41,-422.955,-49.8302,0
24194,758.89,773.77,784.07,764.94,770.42,107.42,-1038.09,394.04,37.46,14.51,20.82,384.95,4840,0,82,-40.0239,-1.16997,-311.801,11275.1,21595,3650.89,-428.745,-36.1528,0
24227,758.19,774.18,785.55,765.37,770.82,106.93,-824.71,496.58,32.09,-25.85,25.09,414.45,4846,0,82,-35.9653,4.84597,-290.336,4307.52,18025.4,5263.87,-435.917,-14.8322,0
24261,758.47,774.71,786.08,765.87,771.28,84.47,-733.89,553.22,1.22,1.77,-2.6,415.01,4853,0,82,-32.4159,12.4493,-283.379,-592.009,16357.2,7376.96,-440.278,2.08962,0
24296,759.67,775.45,786.18,766.06,771.84,64.94,-894.53,403.81,-17.83,-16.22,-11.05,404.95,4860,0,82,-27.5068,19.8603,-290.165,-2527.62,16608.2,8911.48,-440.763,8.71027,0
24330,763.69,775.26,784.9,765.96,772.45,79.59,-981.45,368.65,-3.95,-7.07,-15.61,362.1,4867,0,82,-30.7611,20.6348,-310.979,-1604.54,18282.1,8419.85,-439.212,5.16086,0
24364,767.93,774.66,782.94,765.32,772.71,124.51,-947.75,406.74,9.73,-1.5,-3.04,312.93,4874,0,82,-38.6974,21.1629,-343.987,1210.77,21177.5,7466.81,-436.436,-3.51689,0
24398,770.06,773.98,781.43,764.87,772.59,101.07,-950.2,394.53,10.09,4.92,-4.62,280.03,4881,0,82,-43.2832,13.7744,-373.492,8761,24970.9,4686.19,-431.145,-23.4466,0
24432,773.12,772.84,778.09,764.8,772.21,87.4,-920.9,404.79,2.15,5.47,-7.73,196.48,4887,0,82,-40.6072,6.28595,-398.106,15563.1,28602.9,3955.44,-426.153,-39.0898,0
24466,776.01,772.3,775.1,764.74,772.04,118.16,-924.32,408.69,2.08,5.21,-3.74,117.48,4894,0,82,-41.2484,6.17559,-401.344,18914.5,29927.9,3230.9,-423.43,-47.1294,0
24500,778.36,772.11,773.56,764.85,772.22,115.23,-910.64,410.16,-0.62,0.24,-3.78,70.74,4901,0,82,-41.0786,1.73642,-396.887,23000.6,31061.7,1708.99,-419.737,-57.9519,0
24534,779.07,771.85,773.33,764.85,772.27,116.7,-931.64,410.16,-4.41,1.37,0.03,64.7,4908,0,82,-40.4069,-0.971208,-407.504,26490.3,32797.1,887.551,-417.517,-65.0056,0
24568,778.84,772.04,773.58,764.79,772.31,117.19,-924.8,408.69,-10.34,-2.39,0.39,71.13,4915,0,82,-42.8403,-3.3242,-421.03,28585.6,34217.9,251.077,-416.728,-67.8941,0
24602,778.6,772.12,773.94,764.61,772.32,113.28,-944.82,386.23,-4.15,-0.77,3.73,83.03,4921,0,82,-43.5963,-4.16372,-423.557,28733.2,34387.3,-168.266,-416.813,-67.8378,0
24636,778.57,772.11,773.94,764.29,772.23,112.79,-939.45,390.14,-1.95,-3.32,1.71,87.92,4928,0,82,-44.5466,-5.65534,-418.152,27850.3,33328.9,-297.743,-418.295,-66.6033,0
24670,779.54,772.24,773.85,764.06,772.42,113.77,-920.41,386.23,-10.44,-1.18,2.58,84.53,4935,0,82,-42.6355,-5.51265,-406.388,26220.2,31956.5,53.8588,-419.365,-64.52,0
24704,781.2,772.42,773.79,763.94,772.84,113.77,-906.25,392.58,-6.18,-1.4,2.36,77.62,4942,0,82,-39.9721,-6.88286,-391.401,25498.4,30432.8,140.913,-420.247,-65.1462,0
24738,783.75,772.39,773.77,763.88,773.45,123.54,-961.91,346.68,-2.52,2.49,-0.61,69.57,4949,0,82,-40.7406,-10.2937,-397.659,26896.9,30877.6,-212.38,-420.351,-67.6381,0
24773,783.48,772.46,774.01,763.8,773.44,128.42,-944.82,359.37,6.24,2.76,0.13,77.05,4956,0,82,-44.5031,-14.5242,-411.882,28623.8,31932.6,-1110.36,-420.472,-69.4946,0
24807,782.54,772.43,774.27,764,773.31,128.91,-925.29,390.62,3.66,0.92,-0.93,84.08,4962,0,82,-47.0868,-16.0315,-433.738,31265.5,34000.3,-1672.29,-419.612,-72.083,0
24841,781.23,772.52,774.52,764.19,773.11,109.37,-944.82,375,4.77,4.62,0.68,91.4,4969,0,82,-45.7017,-12.0728,-441.026,30627.1,34816.7,-839.218,-419.055,-69.4447,0
24875,780.64,772.7,774.75,764.36,773.11,117.68,-928.22,403.81,0.76,1.6,1.69,95.16,4976,0,82,-43.9892,-8.41468,-429.057,28230.7,33694.8,-224.553,-419.468,-65.797,0
24909,780.38,772.92,774.97,764.47,773.19,120.61,-957.52,373.54,1.41,0.85,-0.18,98.13,4983,0,82,-43.786,-5.51168,-419.048,25927.7,32613.6,194.375,-420.172,-61.8722,0
24943,779.64,773.08,775.04,764.74,773.13,121.09,-934.08,408.69,1.94,4.1,1.52,97.25,4990,0,82,-44.6518,-5.22824,-415.273,24632.2,32041.8,266.647,-420.842,-59.3158,0
24977,779.07,773.13,775.23,764.7,773.03,115.23,-926.76,396,-3.17,1.48,1.07,104.04,4996,0,82,-45.4402,-5.12894,-422.863,24647.1,32649.9,405.135,-420.789,-58.2865,0
25011,777.88,773.34,775.48,764.83,772.88,129.88,-963.87,371.58,-0.44,1,3.45,110.73,5003,0,82,-45.9765,-5.17713,-420.579,23602.5,32296.8,755.172,-421.209,-56.1189,0
25045,776.09,773.7,775.83,765.03,772.66,121.09,-941.89,375,-3.5,1.39,4.85,119.82,5010,0,82,-45.0412,-7.40507,-415.382,22627.4,31666.3,1073.11,-421.766,-54.4738,0
25079,773.59,774.29,776.56,765.23,772.42,114.26,-930.66,386.72,0.61,2.39,5.17,138.85,5017,0,82,-43.9985,-9.20104,-412.679,21324.2,31179.6,1351.51,-422.446,-51.6726,0
25114,770.44,774.92,777.76,765.79,772.23,114.75,-927.73,367.68,-0.78,6.49,2.6,166.38,5024,0,82,-43.6869,-10.3297,-405.593,19165.9,30221.3,1786.35,-423.489,-47.2536,0
25148,766.88,775.83,779.22,766.47,772.1,111.33,-948.73,379.39,4.77,4.99,8.34,197.58,5031,0,82,-44.4638,-7.02747,-399.878,15837.5,28966.3,2657.75,-425.562,-39.6054,0
25182,763.3,776.76,781.01,767.39,772.12,122.56,-931.15,378.42,5.43,7.03,3.98,233.38,5037,0,82,-45.2808,-2.73751,-394.575,12380.4,27683.2,3456.25,-427.841,-31.3756,0
25218,760.28,777.92,783.15,768.47,772.46,102.54,-948.73,396,12.06,4.82,11.82,271.86,5045,0,82,-45.0952,3.44182,-389.631,7396.59,25919.5,5133.34,-431.477,-18.9832,0
25252,757.96,778.44,785.05,769.3,772.69,96.68,-944.82,415.53,17.69,8.58,15.18,310.81,5051,0,82,-44.6064,6.74093,-381.973,3216.38,24277.9,6485.67,-434.441,-8.41952,0
25286,755.59,779.06,786.88,770.03,772.89,-157.71,-794.92,103.03,42.19,15.4,5.36,348.76,5058,0,82,-46.2759,9.40941,-377.145,-901.764,22485.7,7296.12,-438.379,2.39146,0
25320,753.91,779.07,788.53,770.69,773.05,43.95,-947.27,398.44,6.75,-1.14,14.34,385.82,5065,0,82,-46.7371,12.5485,-370.15,-4272.9,20859,7925.02,-441.647,11.5447,0
25354,752.96,778.39,789.16,770.97,772.87,63.96,-924.32,450.68,3.61,-22.21,14.54,406.1,5072,0,82,-49.1444,15.455,-366.142,-7168.15,19611.1,8243.61,-444.439,19.5783,0
25388,752.6,778.1,789.24,770.87,772.7,104.49,-878.91,501.95,4.75,-12.53,4.91,413.07,5079,0,82,-46.4534,18.4893,-358.269,-9224.93,18655.2,8479.06,-445.93,25.7494,0
25422,752.69,778.11,789.47,770.97,772.81,41.99,-826.66,468.75,4,4.24,-3.67,417.26,5085,0,82,-43.1804,18.87,-343.564,-10001.2,17751.3,8247.4,-446.332,29.1108,0
25456,753.23,777.89,788.98,770.88,772.74,64.45,-879.88,450.2,-14.47,-9.08,-12.17,406.07,5092,0,82,-39.473,19.7807,-335.036,-9693.38,17385.8,7897.11,-446.108,28.9324,0
25490,754.88,777.5,787.36,770.32,772.51,67.87,-857.42,450.2,-21.13,-9.53,-19.77,371.42,5099,0,82,-42.0133,19.957,-344.815,-9642.15,18101.2,7391.7,-445.505,27.9636,0
25524,756.63,777.26,786.64,770.04,772.64,132.81,-1040.04,435.55,-32.04,-8.44,-16.98,353.64,5106,0,82,-43.5467,16.0529,-348.286,-7156.6,19248.1,6260.82,-442.735,20.5478,0
25558,757.55,775.06,785.76,769.48,771.96,135.74,-994.14,362.3,6.16,4.53,-4.95,354.41,5113,0,82,-40.3028,7.00081,-360.479,-2849.81,21876.8,4992.45,-437.313,7.90882,0
25592,758.98,773.82,784.33,768.68,771.45,99.61,-904.3,430.66,-0.44,1.1,-2.95,335.59,5119,0,82,-46.8398,2.01837,-387.729,927.614,24908.7,3472.16,-433.759,-2.38952,0
25626,760.67,773.34,782.5,767.75,771.06,119.14,-920.9,408.2,-13.79,-3.27,-4.89,301.87,5126,0,82,-39.962,5.13494,-366.853,2716.97,25326,3275.9,-428.963,-7.40711,0
25659,762.38,772.7,780.93,766.88,770.72,148.44,-978.03,378.42,-6.01,2.53,-1.25,274.88,5133,0,82,-31.8085,6.03222,-351.087,5240.42,25335.4,2540.18,-425.837,-14.9277,0
25693,764.47,771.95,779.94,766.34,770.67,126.95,-945.31,388.67,-1.29,3.96,-2.02,257.03,5140,0,82,-34.3835,-2.02779,-342.528,8229.58,24762.9,544.537,-425.706,-24.027,0
25726,766.38,771.43,779.13,765.88,770.7,124.51,-918.95,395.02,0.47,3.47,-4.24,240.92,5146,0,82,-36.508,-4.58913,-337.034,10373.3,24760.6,-465.055,-424.534,-30.7781,0
25760,766.47,770.8,778.18,765.64,770.28,122.56,-953.61,373.05,-1.05,3.97,-0.6,225.59,5153,0,82,-34.692,-9.92236,-343.382,13145.7,26171.6,-1496.6,-421.783,-38.2823,0
25794,767.36,769.88,777.27,765.05,769.89,137.7,-949.22,349.12,8.36,6.02,-1.79,216.03,5160,0,82,-34.2475,-12.775,-350.95,15513.7,27308.9,-2178.04,-420.186,-44.205,0
25828,768.84,769.58,776.54,764.75,769.93,123.54,-925.29,408.2,19.06,8.5,0.08,199.58,5167,0,82,-31.8387,-14.2864,-328.508,15300.2,25691.2,-2807.72,-419.794,-46.5753,0
25862,769.69,769.32,775.93,764.52,769.87,106.45,-942.38,372.07,11.18,6.85,-3.11,186.74,5173,0,82,-28.0503,-13.5077,-321.288,16158.5,25754.3,-2892.85,-417.84,-50.293,0
25896,772.42,768.56,775.38,764.14,770.12,136.23,-937.01,392.58,9.63,4.3,-1.9,175.62,5180,0,82,-27.3246,-12.5454,-326.55,17897.9,26693.5,-3213.73,-416.256,-54.8085,0
25929,774.26,768.24,774.63,763.69,770.21,78.61,-844.73,523.93,26.37,4.15,-1.11,159.79,5187,0,82,-25.3332,-11.6963,-325.675,18674.3,27031.7,-3088.23,-414.998,-57.3397,0
25963,777.01,768.35,773.44,762.94,770.44,105.47,-936.04,418.95,19.6,3.38,4.87,130.78,5194,0,82,-26.3985,-9.16416,-340.463,21520.8,29646.5,-2306.58,-410.925,-63.2079,0
25997,778.95,768.25,772.99,762.34,770.63,125,-944.34,430.66,26.9,8.07,2.02,122.59,5200,0,82,-21.0797,-16.746,-360.132,24539.4,32480.9,-2238.37,-407.809,-68.1406,0
26031,778.57,767.63,772.22,761.84,770.07,76.66,-884.28,479.49,5.85,6.15,-1.16,116.94,5207,0,82,-24.439,-16.5235,-358.774,26546.3,32193,-2017.71,-408.271,-73.9878,0
26065,779.24,767.55,772.38,761.85,770.26,131.84,-877.93,466.31,7.58,1,0.27,119.05,5214,0,82,-21.2134,-14.3945,-389.344,30205.1,35999,-1420.14,-405.539,-77.5796,0
26099,778.14,767.35,772.43,762.02,769.98,135.74,-902.83,437.99,3.34,1.53,-2.89,123.45,5221,0,82,-13.5448,-23.9249,-362.875,28607.6,34194.3,-1526.51,-403.769,-78.8351,0
26133,775.88,767.84,773.14,762.37,769.81,127.44,-919.43,458.01,6.13,4.15,2.3,139.69,5228,0,82,-13.9806,-25.7864,-394.927,30329.4,37677.7,-922.633,-402.596,-76.7984,0
26169,774.01,768.6,774.64,763.25,770.13,134.77,-937.99,416.5,8.53,6.57,2.66,164.5,5235,0,82,-10.6494,-26.1413,-386.981,28073.9,37316.1,-154.417,-401.571,-72.5478,0
26203,771.97,768.96,775.96,764.24,770.28,105.47,-907.71,457.52,2.3,1.79,2.52,186.72,5242,0,82,-10.6765,-30.0133,-384.093,24830.1,35963.8,9.16496,-404.367,-64.646,0
26237,769.41,768.77,776.69,764.77,769.91,104.98,-891.11,459.47,0.89,1.53,-0.52,207.49,5248,0,82,-11.7878,-21.61,-397.547,21792.7,36460.1,1287.83,-406.287,-54.8193,0
26271,768.02,768.92,777.78,765.56,770.07,137.21,-947.75,415.53,2.31,4.72,4.23,226.5,5255,0,82,-14.696,-14.4289,-405.486,18628.8,36497.9,2331.44,-407.99,-45.9412,0
26306,766.35,768.96,779.07,766.79,770.29,119.14,-907.71,479,22.2,3.78,13.24,246.14,5262,0,82,-9.5067,-18.7697,-381.296,15131.9,34344.9,2233.33,-407.926,-39.6846,0
26340,764.18,768.81,780.32,767.69,770.25,127.93,-924.8,442.87,19.35,6.37,9.49,272.61,5269,0,82,-11.4642,-12.3222,-389.287,12785.4,34866.2,2919.72,-408.436,-32.8435,0
26374,762.6,768.88,781.98,769.11,770.64,96.19,-872.56,477.05,28.46,6.47,10,298.07,5276,0,82,-13.7937,-8.9708,-389.589,10216.1,34386.9,3104.15,-409.735,-26.2226,0
26408,761.25,769.15,784.3,771,771.42,88.38,-875,494.63,18.61,4.09,11.24,330.39,5283,0,82,-12.6507,-12.6966,-371.365,6577.37,32004.8,2534.84,-411.818,-17.7106,0
26442,759.73,769.47,786.65,773.16,772.25,88.87,-878.42,492.19,17.44,5.26,13.79,359.7,5289,0,82,-12.3631,-10.0049,-371.279,3711.3,31238.4,2868.17,-413.863,-9.99664,0
26476,758.03,769.92,789.12,775.39,773.12,61.52,-835.45,529.79,17.35,3.76,10.11,390.76,5296,0,82,-16.6223,-3.33327,-390.473,737.183,31908.7,3753.9,-416.281,-1.89043,0
26510,756.4,770.21,791.55,777.39,773.89,45.9,-870.12,543.46,9.53,3.01,14.3,425.12,5303,0,82,-22.46,4.56981,-409.676,-2334.49,32481.2,4682.36,-418.714,5.69732,0
26544,755.65,770.7,793.81,779.1,774.82,42.97,-818.36,533.69,12.74,7.82,13.1,454.77,5310,0,82,-27.785,11.2811,-422.696,-5774.72,32345.5,5268.38,-421.478,13.6616,0
26578,754.77,771.37,796.62,781.31,776.02,84.47,-866.21,528.81,6.76,2.53,9.18,489.89,5317,0,82,-30.5785,14.9828,-426.113,-9157.78,31326.8,6042.01,-424.483,21.4916,0
26612,753.98,771.46,798.77,782.82,776.76,28.81,-897.95,534.18,11.15,2.98,11.96,523.28,5323,0,82,-34.1632,18.2262,-440.941,-11553.8,31492.9,6866,-426.578,26.2025,0
26647,753.92,771.88,800.59,784.09,777.62,7.81,-827.64,553.71,8.9,6.78,11.22,546.79,5330,0,82,-40.9026,20.7757,-468.129,-13814,32676.9,7936.73,-428.197,29.5086,0
26681,753.78,772.28,802.1,785.58,778.43,59.08,-835.94,570.31,7.4,-0.59,3.41,559.92,5337,0,82,-39.9451,25.1149,-469.865,-16120,31950.5,8990.96,-430.001,34.3077,0
26715,753.79,772.35,802.95,786.25,778.83,19.53,-852.05,542.97,-0.51,-0.08,3.31,570.56,5344,0,82,-41.2322,29.4629,-495.322,-17174,33776.2,9961.76,-429.81,34.6736,0
26749,753.92,772.24,802.69,786.28,778.78,2.93,-835.94,552.25,8.02,-2.27,-1.31,563.99,5351,0,82,-45.3654,32.3078,-522.788,-17543.6,35854.8,10809.9,-429.416,33.5578,0
26783,754.21,771.86,801.75,785.57,778.35,42.48,-844.24,556.64,8.13,0.53,-1.41,553,5358,0,82,-46.5631,35.0835,-525.81,-17453.6,36135.2,11068.1,-429.277,33.1936,0
26817,754.44,771.57,800.21,784.45,777.66,36.62,-764.65,574.71,3.53,-2.22,-2.6,532.81,5364,0,82,-45.1439,33.6229,-520.046,-16454.9,36382.3,10877.2,-428.04,31.6412,0
26851,755.01,771.21,798.28,782.61,776.78,48.34,-883.3,543.46,-4.63,-3.14,-9.33,512.76,5371,0,82,-39.5564,27.0947,-508.58,-13712.2,36736.4,10331.4,-425.766,26.9614,0
26885,755.67,770.47,796.23,780.58,775.74,36.13,-851.56,555.66,-2.83,-2.13,-9.37,495.16,5378,0,82,-34.569,22.984,-485.831,-10799.5,36023.9,9794.14,-423.851,22.2284,0
26919,756.86,769.86,793.31,778.41,774.61,60.06,-870.61,559.08,-4.46,-3.77,-12.11,455.15,5385,0,82,-31.1144,18.0289,-461.086,-7926.66,35134.6,8806.89,-421.8,17.1904,0
26953,758.28,769.02,790.62,776.1,773.51,26.86,-851.56,560.55,-2.69,-4.85,-15.98,424.07,5392,0,82,-24.8088,14.3518,-436.153,-4363.92,34549.7,8051.56,-418.784,10.0034,0
26988,759.79,768.35,787.81,773.91,772.47,88.87,-844.24,552.25,-22.28,-4.49,-18.33,386.43,5399,0,82,-17.7095,7.9075,-415.873,-89.0092,34803.9,6548.33,-414.31,0.211413,0
27022,761.31,767.7,785.05,771.78,771.46,111.82,-877.93,528.32,-15.72,-2.15,-13.6,349,5405,0,82,-14.8675,5.58434,-404.994,3386.91,35426.2,5584.28,-410.526,-8.36392,0
27057,763.3,767.03,782.59,769.58,770.63,76.66,-859.37,513.18,-18.66,-2.51,-14.28,318.54,5412,0,82,-13.4097,0.924404,-396.147,7566.96,36404.8,4097.01,-406.102,-19.1024,0
27092,765.32,766.56,780.27,767.95,770.03,94.73,-829.1,525.39,-21.33,-4.67,-15.27,281.65,5419,0,82,-10.4331,-3.72854,-386.558,11398.4,37240.8,3077.29,-401.66,-29.4886,0
27126,767.14,766.1,778.22,766.39,769.46,134.28,-926.27,466.31,-27.76,-3.16,-15.21,250.99,5426,0,82,-10.9276,-3.05672,-379.296,14451.1,37772,2578.16,-398.416,-38.0992,0
27160,769.13,765.58,776.49,765.26,769.11,124.51,-903.32,471.19,-18.97,-3.97,-11.64,221.82,5433,0,82,-10.4604,-6.18787,-377.933,17985.8,38920.6,1790.38,-395.017,-47.5908,0
27193,770.5,765.12,774.94,764.2,768.69,125.49,-833.98,494.14,-18.84,-2.11,-13.48,197.84,5440,0,82,-11.3198,-7.45937,-377.87,20852.4,39984.3,1145.6,-392.185,-55.1841,0
27227,772.25,764.76,773.9,763.63,768.63,122.56,-895.51,447.27,-15.43,0.61,-12.33,177.16,5446,0,82,-9.83377,-7.22307,-379.116,23318.6,40864.5,936.863,-390.211,-61.5083,0
27260,773.86,764.68,773.23,763.21,768.74,167.48,-962.4,443.36,-2.18,2.85,-2.39,161.84,5453,0,82,-8.27334,-10.5931,-377.627,25541.3,41333.6,170.404,-388.544,-67.6362,0
27294,775.93,764.29,772.63,762.89,768.93,125.98,-867.19,487.3,-7.99,3.68,-1.89,147.7,5460,0,82,-9.51118,-9.3102,-379.101,27409.2,41829.3,-105.025,-387.662,-72.3003,0
27328,778.17,763.97,771.65,762.3,769.02,145.51,-890.14,462.89,-0.98,2.6,-0.71,126.76,5467,0,82,-15.0878,-8.73742,-386.574,28672.7,42134.9,-554.814,-389.004,-74.1711,0
27362,780.22,763.57,770.73,761.69,769.05,136.72,-891.6,462.4,-6.19,0.33,-1.07,109.02,5473,0,82,-15.9183,-8.42488,-381.688,30004.6,41776,-681.817,-388.549,-78.6105,0
27395,779.93,763.58,770.55,761.68,768.94,164.55,-915.04,383.79,-12.78,-1.17,2.63,105.56,5480,0,82,-15.5998,-8.72412,-374.275,31638.9,41284.3,-529.309,-387.695,-84.5339,0
27429,780.41,763.31,770.03,761.24,768.75,136.72,-878.42,456.54,-11.63,-2.24,1.27,99.57,5487,0,82,-22.1145,-5.64912,-370.834,32855.9,40686.5,-683.171,-388.284,-88.6,0
27463,781.37,762.99,769.61,760.87,768.71,104.98,-910.16,478.52,1.4,2.99,0.79,93.8,5494,0,82,-22.0979,-3.94617,-354.888,31270,38531,-110.568,-389.428,-88.113,0
27497,781.4,762.47,768.06,760.18,768.03,171.87,-922.36,349.12,-18.85,-3.21,1.15,69.48,5500,0,82,-23.563,-5.57385,-335.739,30912.3,36231.4,-344.391,-390.085,-92.0723,0
27531,780.03,762.46,767.66,760.11,767.56,96.19,-924.8,512.21,1.37,1.09,3.93,65.38,5507,0,82,-23.1141,-3.34706,-308.896,30073.1,33563.3,-115.855,-389.343,-97.3643,0
27564,779.68,762.3,767.48,759.94,767.35,157.23,-947.27,388.18,6.91,2.63,0.8,65.68,5514,0,82,-22.3832,-12.8089,-290.734,30832,31962.3,-1591.27,-388.063,-106.047,0
27598,779.63,761.84,766.75,759.68,766.97,86.43,-913.09,454.1,-5.84,4.17,-2.02,55.28,5521,0,82,-20.6878,-10.7704,-253.504,26110.8,27175.1,-1137.97,-390.802,-103,0
27633,775.64,761.59,765.45,759.28,765.49,178.22,-848.14,419.43,-32.06,-7.36,4.18,44.42,5528,0,82,-21.6748,-5.79397,-241.825,24571.4,25376.6,-1224.42,-393.062,-101.608,0
27667,773.46,762.18,766.15,759.58,765.34,-10.74,-789.06,551.27,17.89,11.21,8.07,60.11,5534,0,82,-19.726,-9.28477,-227.256,25948.7,24462.9,-1996.29,-390.351,-114.202,0
27701,773.72,761.81,765.83,759.48,765.21,65.43,-914.55,344.24,8.75,6.71,-1.52,55.91,5541,0,82,-16.8565,-16.0048,-177.197,20708.6,18714.9,-2350.21,-392.391,-116.857,0
27735,774.47,761.4,764.61,759.05,764.88,-30.76,-909.18,603.52,-37.93,6.18,-5.88,32.55,5548,0,82,-20.1558,-3.52354,-170.088,15787.6,16583.2,-988.598,-400.498,-92.8265,0
27769,775.02,761.36,764.23,759.04,764.91,201.66,-797.85,297.36,16.11,7.49,-16.85,21.58,5555,0,82,-15.2861,-9.35612,-159.262,17618,16063.9,-1416.88,-397.128,-110.644,0
27803,778.62,761.5,764.01,759,765.78,108.89,-959.47,479,15.69,21.18,23.2,3.38,5562,0,82,-11.3985,-18.6989,-149.103,19149.5,15674,-2490.8,-392.878,-128.432,0
27837,783.85,761.92,764.25,759.05,767.27,261.23,-863.28,388.18,4.81,-1.04,4.63,-12.75,5568,0,82,-9.01948,-18.9312,-154.535,20178.7,16523.6,-2405.45,-391.076,-130.577,0
27871,787.79,762.15,764.51,759.08,768.38,119.63,-894.04,389.65,-26.81,-10.54,-0.19,-22.22,5575,0,82,-9.7684,-15.0321,-187.003,23729.3,19603.8,-2845.79,-393.161,-126.902,0
27905,790.21,762.51,764.88,759.25,769.21,94.24,-886.72,413.57,4.05,-1.69,3.61,-26.52,5582,0,82,-19.9126,-12.8613,-244.487,28797.3,24963.9,-3422.66,-395.89,-117.797,0
27940,789.88,762.88,765.41,759.34,769.38,163.57,-929.69,412.11,8.37,1,1.4,-16.48,5589,0,82,-28.7525,-17.3203,-293.078,33944.9,29696.8,-4546.02,-396.672,-115.824,0
27975,787.98,763.09,766.23,759.67,769.24,114.75,-897.95,428.22,-2.56,-0.57,2.49,3.78,5596,0,82,-37.6158,-10.9102,-322.938,35801.7,32400.1,-4589.01,-397.671,-110.864,0
28009,787.08,763.41,767.12,759.98,769.4,120.12,-939.94,388.67,-3.62,-1.47,4.08,21.9,5603,0,82,-40.1783,-4.7234,-335.357,34953.8,33091.1,-4017.63,-399.325,-104.229,0
28043,786.22,763.84,767.7,760.31,769.52,145.02,-923.83,394.04,-8.58,-0.75,3.11,31.11,5610,0,82,-40.6785,1.17144,-328.934,31665.7,31949.9,-3056.49,-400.868,-96.267,0
28078,785.75,764.16,768.32,760.62,769.71,126.95,-934.08,401.37,-9.85,-2.92,0.75,40.88,5617,0,82,-39.7306,5.28541,-332.695,29851.1,31988.4,-2224.66,-401.85,-89.7261,0
28112,785.03,764.67,768.89,760.88,769.87,132.81,-921.87,389.16,-7.6,-4.12,3.78,49.7,5623,0,82,-39.2371,3.48362,-338.047,29057.4,32407.2,-1954.1,-402.134,-85.957,0
28146,784.85,765.02,769.38,761.19,770.11,129.39,-918.95,391.11,-6.18,-6.27,3.15,55.18,5630,0,82,-39.1573,1.95769,-344.823,28652.2,32727,-1657.78,-403.091,-83.0928,0
28180,785.32,765.23,769.76,761.4,770.43,114.26,-931.64,391.6,-7.49,-4.53,3.4,58.43,5637,0,82,-40.3889,1.16648,-353.086,27642.2,32950.6,-1113.71,-404.678,-78.2879,0
28214,786.46,765.44,769.89,761.43,770.81,127.93,-936.52,392.58,-12.21,-4.09,0.55,55.33,5644,0,82,-41.0112,0.706687,-362.509,27445.2,33439.1,-643.498,-405.757,-75.7091,0
28248,786.73,765.38,769.96,761.49,770.89,161.13,-986.33,342.29,-12.25,0.26,3.5,56.03,5651,0,82,-41.2081,-0.733589,-367.445,27954.7,33712.7,-409.017,-406.251,-76.078,0
28282,786.11,765.38,770.23,761.62,770.84,132.81,-935.06,393.55,6.66,2.4,-0.07,62.66,5657,0,82,-43.6566,-10.5218,-390.794,30718.5,36069.4,-1615.11,-405.703,-78.6046,0
28316,784.34,765.28,770.32,761.81,770.44,127.44,-916.5,405.27,3.76,4.1,3.05,69.11,5664,0,82,-47.2911,-14.5068,-401.785,31701.3,37119.6,-2469.37,-405.613,-78.9011,0
28350,783.69,765.38,770.5,761.83,770.35,123.05,-927.25,376.95,1.03,1.51,1.34,74.7,5671,0,82,-46.3184,-7.38234,-401.59,30843.4,37292.2,-1834.66,-405.139,-76.8033,0
28384,783.59,765.61,770.94,762.01,770.54,120.12,-924.8,392.58,1.03,2.73,1.23,81.53,5678,0,82,-41.0252,-2.49478,-372.542,27175.5,34418.3,-800.743,-405.613,-72.9446,0
28419,783.55,765.86,771.62,762.43,770.87,123.54,-933.59,390.14,-0.03,0.9,0.7,90.61,5685,0,82,-38.5611,0.0159883,-365.308,25731.1,33652,-84.7822,-405.88,-70.4367,0
28453,783.14,765.98,772.17,762.61,770.98,133.3,-922.36,394.53,1.76,3.46,0.5,101.92,5692,0,82,-39.7875,1.03697,-382.041,25869.8,34959.6,203.588,-406.492,-67.7151,0
28487,782.35,766.07,772.42,762.68,770.88,126.95,-930.66,385.74,-2.86,1.28,2.15,109.1,5698,0,82,-41.6131,0.927121,-399.212,26455.2,36447.2,30.8816,-406.702,-66.2689,0
28521,781.75,766.06,772.51,762.83,770.79,119.63,-937.01,376.95,-0.6,0.54,-0.15,111.25,5705,0,82,-42.1882,-0.421329,-403.605,26033.2,36635.4,-233.416,-407.229,-64.5018,0
28555,781.51,766.09,772.65,762.92,770.79,124.02,-931.15,385.25,-1.44,3.49,2.98,114.15,5712,0,82,-43.0248,-4.95849,-397.383,25193.5,35696.2,-847.299,-408.172,-63.3984,0
28589,781.48,766.22,772.84,763.03,770.89,116.21,-942.38,379.39,-0.44,1.8,2.53,116.32,5719,0,82,-41.2022,-7.50353,-388.302,24124.7,34741.9,-1270.07,-408.529,-62.1291,0
28623,781.49,766.37,773.07,763.15,771.02,118.16,-929.2,375.98,0.15,1.18,-1.49,119.05,5726,0,82,-40.199,-7.82808,-388.192,23844.5,34537.3,-1187.11,-409.03,-61.4245,0
28657,781.61,766.56,773.15,763.31,771.16,134.77,-939.45,381.35,-0.27,0.49,-2.59,116.65,5732,0,82,-39.9596,-7.72477,-392.586,23829.1,34928.1,-1015.07,-409.031,-60.6977,0
28691,781.67,766.69,773.27,763.41,771.26,114.75,-928.22,374.51,-0.93,2.17,1.02,116.98,5739,0,82,-40.3699,-7.53679,-399.783,23980.8,35408.8,-996.246,-409.43,-59.9846,0
28726,781.89,766.79,773.37,763.57,771.4,123.05,-927.73,378.91,-0.35,1.7,0.5,115.57,5746,0,82,-41.6651,-8.08431,-404.619,24043.4,35633.8,-1222.02,-409.933,-59.4223,0
28760,781.72,766.91,773.44,763.76,771.46,139.16,-936.52,392.09,0.8,2.89,0.58,114.06,5753,0,82,-43.2372,-8.89465,-408.956,24219.9,35747.5,-1778.83,-410.588,-59.2236,0
28793,781.21,766.99,773.69,763.95,771.46,119.63,-937.5,383.79,-0.16,3.21,2.7,118.47,5760,0,82,-45.8238,-10.3362,-412.957,24744.6,35964.9,-2592.46,-410.909,-59.9204,0
28827,780.66,767.1,774,764.07,771.46,128.91,-935.06,381.84,-1.28,1.57,0.08,125.58,5766,0,82,-46.6855,-10.9437,-415.497,24668.1,36132.2,-2945,-411.039,-59.3701,0
28860,779.61,767.38,774.38,764.34,771.43,128.42,-942.38,382.32,2.55,2.84,2.49,132.62,5773,0,82,-46.9902,-9.47159,-416.543,23914.6,35905.9,-3004.65,-411.8,-57.4121,0
28894,778.58,767.48,774.99,764.43,771.37,109.37,-944.34,387.21,1.99,-0.17,-0.46,149.21,5780,0,82,-46.7296,-8.92241,-414.28,22910.4,35539.6,-2772.39,-412.214,-55.3018,0
28929,777.42,767.57,775.73,764.62,771.33,120.61,-931.64,386.72,2.44,3.02,-0.69,167.96,5787,0,82,-45.7073,-6.4519,-411.422,21244,34894.4,-2143.95,-413.186,-51.6356,0
28963,776.16,767.74,776.75,764.81,771.36,116.21,-924.32,385.74,-0.38,2.21,0.08,193.51,5794,0,82,-44.5364,-6.20931,-408.409,19784.3,34337.4,-1763.6,-413.924,-48.4424,0
28997,773.51,767.98,778.31,765.21,771.25,130.86,-942.38,383.79,1.64,3.13,2.85,233.79,5800,0,82,-43.676,-6.00541,-408.079,18305.2,34170.6,-1416.05,-414.265,-44.8571,0
29031,770.45,768.06,780.23,765.51,771.07,112.3,-929.2,380.86,-0.09,-1.15,0.4,286.91,5807,0,82,-43.3178,-6.58538,-408.345,16845.9,33786.6,-1277.68,-415.26,-41.2539,0
29064,766.75,768.24,782.1,765.96,770.76,120.12,-925.78,383.3,2.27,1.97,4.22,338.15,5814,0,82,-43.1791,-1.87828,-400.769,13646.6,32320.8,-805.648,-417.353,-34.0499,0
29098,763.28,768.33,784.11,766.37,770.53,125.49,-932.13,379.39,1.1,0.25,1.77,393.41,5821,0,82,-41.9092,0.304559,-384.965,9524.95,30135.3,-343.264,-419.72,-24.7399,0
29132,761.6,768.24,785.42,766.66,770.48,100.1,-915.04,416.5,5.09,-0.87,2.05,428.28,5827,0,82,-40.2045,4.50253,-368.036,5636.82,27732.1,301.416,-422.65,-15.3127,0
29166,761.9,768.3,785.92,766.8,770.73,103.52,-897.95,435.55,-2.34,1.98,-0.4,437,5834,0,82,-37.67,9.47202,-344.71,1058.26,24798.7,1120.34,-426.06,-3.06687,0
29199,762.06,768.53,785.85,766.88,770.83,120.61,-950.68,368.16,-7.02,-0.27,0.53,431.85,5841,0,82,-35.9327,12.6675,-329.875,-1314.04,22983.3,1785.52,-428.327,3.98344,0
29234,762.17,768.57,785.59,766.88,770.8,134.28,-930.18,376.95,-0.7,3.09,-1.69,424.58,5848,0,82,-37.9607,8.11673,-340.091,-442.797,23997.7,1063.13,-427.438,1.30322,0
29268,762.26,768.35,785.32,766.86,770.7,112.79,-933.11,395.02,-3.24,0.79,0.31,419.71,5855,0,82,-37.9717,1.89967,-351.026,1132.87,25041,99.2605,-426.663,-3.22733,0
29302,762.06,767.99,784.83,766.4,770.32,129.39,-917.97,388.18,3.64,4.54,0.04,417.71,5861,0,82,-38.6715,0.533017,-347.484,1353.45,24642.4,-169.062,-427.083,-3.89495,0
29336,762.77,767.75,784.43,766.21,770.29,119.63,-933.59,391.11,-1.37,2.05,-2.93,410.19,5868,0,82,-37.9617,-3.20378,-342.169,1924.28,24377.4,-870.283,-426.757,-5.62347,0
29370,762.71,767.76,783.66,765.85,769.99,127.44,-948.24,375.98,-0.23,2.82,-0.35,396.25,5875,0,82,-34.5162,-1.36299,-319.484,1580.97,22738.2,-973.563,-426.828,-4.94877,0
29404,763.77,767.79,783.21,765.72,770.12,91.31,-945.8,364.26,0.61,0.41,1.18,383.31,5882,0,82,-32.3395,-3.23987,-324.047,3592.57,23816.7,-1413.79,-424.502,-11.0867,0
29438,764.54,767.56,782.56,765.37,770.01,108.89,-927.73,380.86,7.92,4.24,-0.16,371.3,5889,0,82,-30.9351,-3.94517,-309.605,3803.58,22530.8,-1387.86,-425.227,-12.2852,0
29472,766.62,767.69,782.12,764.95,770.34,114.75,-939.45,374.51,11.76,3.27,-0.92,358.36,5895,0,82,-33.51,-3.83478,-319.856,5614.87,23730.7,-1353.12,-423.809,-17.5532,0
29506,766.69,767.84,781.47,764.78,770.2,130.37,-889.16,414.06,4.53,1.73,3.63,343.22,5902,0,82,-32.7779,-3.4425,-319.313,7203.21,24216.5,-758.307,-422.161,-22.5585,0
29541,767.09,768.04,780.89,764.69,770.18,111.82,-949.71,395.51,14.88,3.22,3.27,327.16,5909,0,82,-35.2116,-1.99308,-345.226,10566.9,27151.8,-417.13,-419.352,-30.6056,0
29575,766.22,768.08,780.7,764.7,769.92,105.47,-942.38,396.48,11.43,6.96,2.63,324.96,5916,0,82,-32.6583,-5.27263,-341.896,10947.5,26969.7,-9.23961,-419.117,-32.02,0
29609,765.6,767.71,780.98,764.59,769.72,143.07,-895.02,430.66,11.02,2.88,2.15,338.62,5923,0,82,-31.5169,-6.24314,-352.326,12472.9,28178.4,372.969,-418.022,-35.4015,0
29643,765.74,767.34,780.98,764.17,769.56,118.16,-919.92,401.37,9.28,0.89,1.38,347.26,5930,0,82,-25.6471,-5.91501,-339.603,10312.5,27212.3,1165.87,-417.87,-30.3658,0
29677,764.96,767.48,780.85,764.32,769.4,126.95,-898.44,461.43,14.6,-0.98,1.03,343.43,5936,0,82,-22.9104,-6.38085,-321.019,8695.87,25849.3,1580.73,-417.478,-27.0882,0
29711,764.99,768.02,780.69,764.71,769.6,72.27,-859.37,451.17,11.42,-0.48,2.49,329.08,5943,0,82,-17.4491,-11.8972,-324.54,9786.78,27336.1,1890.7,-413.77,-30.1559,0
29745,763.8,768.17,782.04,765.73,769.93,132.32,-1026.86,408.2,-0.31,3.54,9.66,350.73,5950,0,82,-12.3325,-12.5417,-317.796,8608.97,26612.1,2491.12,-414.262,-27.0881,0
29779,763.23,768.05,783.42,766.2,770.22,115.23,-867.68,497.07,14.56,4.77,11.22,381.07,5957,0,82,-14.8789,-15.8892,-340.982,8909.98,28225.2,2561.18,-415.224,-26.131,0
29813,763.78,768.21,784.02,766.3,770.58,75.2,-874.51,454.59,16.5,-2.15,5.57,391.51,5964,0,82,-17.706,-12.3584,-341.735,4943.97,27015.5,3060.98,-418.946,-14.4676,0
29849,763.61,768.79,784.78,767.12,771.07,116.7,-910.16,459.96,8.89,5.99,4.85,394.09,5971,0,82,-15.6814,-10.2085,-339.988,3434.59,26614.1,3830.51,-419.72,-10.1019,0
29883,762.37,769.13,785.23,768.63,771.34,142.58,-976.56,439.45,13.56,9.93,11.11,384.87,5978,0,82,-15.2988,-11.5364,-367.078,4619.78,29538.2,4223.21,-417.533,-12.5813,0
29917,761.87,769.81,787.01,770.51,772.3,49.32,-808.11,521.97,23.49,1.34,12.44,397.58,5984,0,82,-22.1525,-7.5893,-392.077,4754.94,31468.3,5007.53,-417.74,-12.1278,0
29951,760.34,770.3,790.28,772.69,773.4,94.24,-993.16,454.1,4.79,2.18,13.13,448.43,5991,0,82,-21.9602,-9.55324,-390.558,2007.9,30356.6,5151.41,-420.274,-5.14055,0
29985,757.68,770.38,793.25,774.27,773.89,95.21,-957.03,491.21,26.98,5.23,18.69,507.53,5998,0,82,-23.0024,-8.25424,-421.078,-128.412,32177.9,6328.68,-421.58,0.301686,0
30020,755.94,770.57,796.03,775.89,774.61,21.97,-870.61,492.19,27.28,8.52,18.69,557.56,6005,0,82,-31.2192,-2.28478,-443.794,-3777.63,32488.4,7175.77,-424.794,8.51155,0
30054,754.71,770.93,798.7,777.82,775.54,28.32,-851.56,500.49,9.6,5.72,11.21,596.92,6012,0,82,-29.5819,3.26487,-425.179,-8778.81,29394.8,7614.92,-428.866,20.6502,0
30088,753.86,770.91,800.89,779.66,776.33,37.11,-912.11,526.37,8.3,-5.76,16.1,627.57,6019,0,82,-28.1665,11.3211,-432.101,-12295.4,28900.2,8579.1,-431.117,28.4549,0
30122,753.72,770.35,802.09,780.29,776.61,50.29,-862.3,543.95,-1.3,18.2,22.86,653.14,6025,0,82,-30.8008,16.737,-444.256,-14919.9,29005.8,9086.97,-432.709,33.5826,0
30156,753.51,770.8,803.84,781.34,777.38,-62.01,-746.58,563.48,8.85,-0.34,10.57,678.39,6032,0,82,-28.447,19.2399,-448.163,-16697.9,29040.3,9266.11,-433.202,37.259,0
30190,753.42,771.32,805.51,782.95,778.3,59.08,-855.96,548.34,-4.18,8.34,6.05,692.39,6039,0,82,-24.6682,22.649,-434.636,-17822.6,27851.4,8866.74,-433.92,41.0053,0
30224,753.36,771.63,806.49,783.66,778.78,7.32,-878.42,490.72,-0.04,1.52,2.97,703.98,6046,0,82,-31.7268,30.16,-463.352,-18875.8,29583,9997.22,-434.154,40.7379,0
30258,753.38,772.25,806.69,784.28,779.15,-36.62,-811.52,517.58,5.15,-9.19,-3.92,694.88,6053,0,82,-41.5608,33.5713,-485.916,-19889.5,30647.6,10564.2,-434.928,40.9322,0
30292,753.32,772.87,806.06,784.9,779.29,57.13,-867.19,557.62,0.55,-6.89,-9.47,665.21,6059,0,82,-43.5439,34.8024,-490.001,-20062.2,30751.8,10698.2,-435.241,40.9431,0
30326,753.34,773.16,804.6,784.5,778.9,6.35,-822.75,543.46,1.01,-13.3,-9.02,632.53,6066,0,82,-46.1739,38.6671,-506.721,-19766,32058.9,11491,-434.733,39.008,0
30361,753.75,773.38,802.35,783.56,778.26,44.92,-930.18,625.49,-0.94,-15.47,-11.08,587.14,6073,0,82,-45.8014,33.7264,-510.436,-18458.3,32564.9,10818.6,-434.202,36.1616,0
30394,754.07,773.04,800.11,781.78,777.25,31.74,-876.95,543.95,-2.15,-2.86,-7.85,559.23,6080,0,82,-42.6236,25.9956,-497.185,-16433.7,32141.1,10113.4,-433.354,33.0526,0
30428,754.98,772.56,797.81,779.96,776.33,35.16,-803.71,541.5,-1.34,0.11,-14.49,529.34,6087,0,82,-37.6254,11.6765,-486.815,-12390.7,32602.6,8777,-431.029,25.4519,0
30461,755.78,772.09,795.18,778.22,775.32,52.25,-845.21,524.41,-13.76,-4.24,-17.04,490.25,6093,0,82,-34.0259,8.23333,-463.593,-9702.37,31871.3,7980.32,-429.251,20.9272,0
30495,756.92,771.18,792.77,776.52,774.34,70.31,-955.57,491.7,-2.28,-1.07,-10.63,458.7,6100,0,82,-26.6412,0.0303073,-449.82,-5682.17,32523.2,6782.2,-425.697,12.6311,0
30528,758.17,770.35,790.45,774.98,773.49,78.12,-812.5,554.2,-6.67,-1.27,-12.02,425.84,6107,0,82,-23.0486,-8.40668,-438.401,-1635.44,33282.8,5003.79,-422.081,3.72915,0
30562,759.56,769.56,788.4,773.61,772.78,73.73,-906.25,494.14,-12.82,-2.33,-13.65,396.61,6113,0,82,-17.3295,-8.1195,-425.158,1078.45,33873.1,4366.77,-418.328,-2.53727,0
30596,760.55,769.04,786.73,772.36,772.17,102.05,-863.77,502.93,-13.66,-2.22,-11.69,374.25,6120,0,82,-11.2125,-10.1537,-421.184,4678.2,35548.6,3259.13,-413.598,-11.1076,0
30630,761.6,768.41,785.46,771.47,771.73,94.73,-864.26,506.84,-7.28,0.05,-9.18,357,6127,0,82,-7.15865,-12.7662,-420.642,8268.08,37265.6,2256.7,-409.408,-19.6556,0
30664,762.39,767.96,784.45,770.64,771.36,105.96,-856.93,511.23,-14.39,-2.05,-10.78,345.13,6134,0,82,-6.18428,-13.4759,-421.273,10262.8,38346.1,1663.15,-406.976,-24.3611,0
30697,762.92,767.6,784.08,770.13,771.18,114.26,-909.18,474.61,-11.36,0.37,-7.07,344.45,6140,0,82,-5.83103,-10.9584,-419.103,11926.5,38990.1,1382.75,-404.968,-28.4572,0
30731,763.42,767.34,783.97,769.69,771.11,99.12,-863.77,485.84,-7,0.63,-6.53,348.45,6147,0,82,-5.56946,-11.6059,-417.326,13529.1,39624.8,853.086,-403.051,-32.4188,0
30766,763.8,767.2,783.85,769.3,771.04,115.23,-875.49,481.93,-19.82,-0.1,-8.21,350.98,6154,0,82,-8.25603,-10.4634,-417.189,13969.9,39654,709.699,-402.95,-33.4858,0
30801,764.4,767.02,783.83,768.73,771,133.79,-923.34,447.27,-10.46,0.73,-2.7,358.22,6161,0,82,-8.14798,-8.34543,-416.119,14466.8,39733.7,888.872,-402.514,-34.7656,0
30835,765.21,766.94,783.68,768.16,771,141.11,-920.41,447.27,-12.01,-0.24,-5.33,361,6168,0,82,-13.3205,-9.6373,-414.18,14630.2,39324.1,603.79,-403.056,-35.3233,0
30869,765.82,766.8,783.91,767.8,771.08,140.62,-885.25,466.31,-5.08,-1.69,-1.04,370.93,6175,0,82,-17.4156,-5.89356,-413.066,15092.9,39045.8,880.944,-403.473,-36.5385,0
30903,766.16,766.59,783.95,767.13,770.96,132.32,-920.9,422.36,-21.03,-2.28,0.51,382.36,6182,0,82,-21.276,-7.00663,-418.176,16289.2,39409.7,587.734,-403.758,-38.9529,0
30937,766.56,766.41,784.12,766.48,770.89,100.1,-885.25,466.31,-2.66,-0.35,1.24,396.04,6188,0,82,-25.1088,-2.4056,-415.998,15946.1,38788.7,1134.14,-404.758,-38.3323,0
30971,767.13,766.38,784.15,765.64,770.82,118.16,-928.22,407.71,-14.12,-2.37,3.37,407.52,6195,0,82,-29.4636,-9.33743,-406.499,16350.4,37568.1,345.695,-405.581,-40.2223,0
31005,767.42,766.21,783.81,764.86,770.57,137.21,-909.18,454.59,-6.18,-1.67,1.18,411.04,6202,0,82,-32.1117,-2.53788,-393.728,15593.7,36013.2,1424.6,-406.533,-39.6054,0
31039,766.95,765.97,783.24,764.04,770.05,114.75,-940.92,389.16,-8.73,-3.39,-0.25,412.28,6209,0,82,-38.0978,-1.8595,-386.019,16057.4,35041.3,1490.04,-407.224,-41.598,0
31073,766.77,766.03,782.68,763.38,769.71,125.49,-903.32,418.95,-9.41,-3.33,-0.45,408.41,6216,0,82,-37.5614,-4.16896,-363.295,15952.6,32766.9,1323.01,-407.806,-43.9109,0
31108,766.68,766.11,782.73,763.11,769.66,116.7,-913.09,420.9,-6.38,-2.95,4.26,413.08,6223,0,82,-37.3308,-3.0936,-331.391,14929.9,29673.5,1487.68,-408.457,-45.0527,0
31142,764.74,766.31,782.61,762.75,769.1,159.18,-898.44,434.08,-6.56,-2.92,2.93,420.51,6229,0,82,-39.1583,-4.14248,-308.331,13800.1,26991,1274.36,-410.461,-44.7575,0
31176,764.13,766.46,782.37,762.56,768.88,145.02,-913.57,397.95,-7.56,-3.89,4.46,418.25,6236,0,82,-42.7459,-3.87601,-309.218,14082.6,26729.9,1078.74,-411.556,-45.5427,0
31210,763.66,766.69,782.54,762.75,768.91,131.84,-922.85,392.58,0.78,-0.92,2.11,419.32,6243,0,82,-40.8969,-4.27509,-268.404,10225.1,21847.4,1044.32,-416.605,-38.0905,0
31244,763.4,766.93,782.87,762.94,769.03,126.46,-931.64,402.83,2.37,1.38,-0.42,423.96,6250,0,82,-41.7889,-3.53094,-253.091,8619.41,19799.9,923.692,-419.768,-34.0563,0
31278,764.01,767.11,784.3,763.55,769.74,121.09,-912.6,412.11,8.97,5.46,-0.35,446.94,6257,0,82,-39.2055,-5.12278,-257.956,8455.09,20110,822.499,-420.041,-32.7772,0
31312,764.79,767.43,785.19,764.24,770.41,129.88,-913.57,419.43,0.62,0.8,-1.12,453.72,6263,0,82,-36.3684,-5.31805,-265.733,7697.19,20632.4,790.222,-420.357,-28.9712,0
31346,765.76,767.6,785.58,764.56,770.88,125,-922.36,383.3,0.05,0.07,-3.51,454,6270,0,82,-36.444,2.08847,-305.464,8370.36,24331.9,1180.96,-418.346,-27.3991,0
31380,766.62,767.71,785.55,764.63,771.13,125.49,-935.55,386.23,0.19,-0.57,-0.31,448.3,6277,0,82,-38.9929,2.38059,-343.307,10091.7,27756.1,946.225,-417.151,-29.3962,0
31414,767.77,767.64,785.08,764.44,771.23,126.46,-924.32,400.88,0.1,0.18,-3.38,436,6284,0,82,-42.2251,4.85404,-366.325,11917.6,30018.6,1066.43,-416.055,-32.5316,0
31449,768.85,767.61,784.31,764.13,771.23,124.02,-929.69,401.86,-0.69,-1.85,1.69,418.11,6291,0,82,-43.107,6.48544,-377.614,13280.7,31359.8,1200.58,-414.953,-35.1701,0
31483,770.27,767.76,783.7,763.78,771.38,121.09,-906.74,415.04,-2.07,-0.46,3.53,402.04,6298,0,82,-40.7592,6.80193,-373.412,14899.6,31455.1,1477.07,-413.763,-39.9017,0
31517,773.22,768.13,783.44,763.64,772.11,123.05,-913.57,396.48,-6.3,-0.92,2.82,384.37,6304,0,82,-38.7353,4.31306,-369.764,16664.6,31528.6,1523.3,-412.733,-45.069,0
31551,776.59,768.4,783.76,763.92,773.17,124.51,-935.55,381.35,-10.63,-2.73,2.53,374.4,6311,0,82,-38.2945,-3.91941,-369.24,18164.3,31703.7,1064.87,-412.139,-49.1924,0
31585,777.38,768.43,784.05,764.14,773.5,143.55,-966.31,357.91,-2,0.15,-0.18,375.43,6318,0,82,-42.4893,-12.5253,-404.266,21893.4,35119.9,-142.426,-411.128,-54.1518,0
31619,775.8,768.22,784.21,764.19,773.1,129.88,-934.08,381.35,5.29,3.21,1.66,385.96,6325,0,82,-50.4277,-20.3585,-457.874,26180.8,40154,-1697.89,-410.304,-57.1793,0
31653,773.43,767.93,784.2,764.18,772.44,129.88,-949.22,385.74,1.56,3.79,-0.46,396.22,6332,0,82,-50.4125,-16.7551,-474.32,27055.8,41930,-1617.06,-409.6,-57.0411,0
31687,771.8,767.74,784.23,764.25,772.01,115.72,-925.78,392.58,3.2,5.73,-1.39,402.97,6338,0,82,-47.9811,-8.68451,-453.219,24140.4,39923.4,-712.881,-409.912,-53.2622,0
31723,771.7,767.44,783.88,764.21,771.81,125.49,-936.04,375.49,1.6,2.33,-0.67,397.67,6346,0,82,-44.3544,0.152889,-401.858,18639.1,34830.2,242.624,-411.328,-46.3803,0
31757,772.49,767.35,783.57,764.08,771.87,125,-936.04,404.3,2.38,1.21,1.39,390.01,6352,0,82,-42.144,5.34438,-375.711,15930.5,32208.7,783.466,-412.273,-42.3994,0
31791,773.64,766.91,782.99,763.79,771.83,118.16,-934.08,391.6,0.34,1.15,-0.76,379.41,6359,0,82,-38.6716,6.18074,-366.126,15645.5,31682.1,1171.4,-411.467,-42.7325,0
31825,775.35,766.63,782.11,763.39,771.87,120.61,-906.25,400.39,-1.65,1.3,-2.48,359.64,6366,0,82,-36.138,2.81458,-373.504,17600.5,33071.3,1200.72,-409.457,-47.1222,0
31859,776.61,766.53,781.42,763.14,771.92,127.44,-937.5,379.39,-3.76,1.08,-0.55,342.59,6373,0,82,-34.9588,-4.4326,-374.657,19992.3,34203.9,496.729,-406.706,-53.3615,0
31894,777.26,766.38,780.9,762.97,771.88,133.79,-934.08,370.12,0.56,1.63,0.57,331.13,6380,0,82,-37.3219,-10.2966,-384.896,23148.4,35760.4,-781.185,-405.091,-60.1415,0
31928,777.46,766.29,780.76,762.92,771.86,119.63,-934.57,379.88,-0.47,1.36,-0.11,328.35,6387,0,82,-40.0859,-13.596,-389.016,25341,36259.6,-1732.57,-404.792,-65.1412,0
31961,777.22,766.31,780.52,762.88,771.73,124.51,-929.2,385.25,0.79,1.27,1.94,323.73,6393,0,82,-39.6147,-14.3451,-391.127,25995.7,36574.7,-2004.2,-404.489,-66.4637,0
31995,776.75,766.41,780.46,762.85,771.62,125.98,-927.25,379.39,4.06,0.42,1.42,323.41,6400,0,82,-37.7097,-13.5839,-388.389,26123.9,36498.8,-1832.28,-404.025,-67.2618,0
32028,776.51,766.57,780.58,762.9,771.64,123.05,-923.34,388.67,1.43,2.82,1.02,325.22,6407,0,82,-36.1507,-12.7979,-376.097,25197.3,35171.9,-1747.83,-404.482,-66.9966,0
32062,776.26,766.73,780.79,763.14,771.73,130.37,-930.18,388.67,0.5,1.54,-0.73,326.54,6413,0,82,-35.5014,-11.1552,-368.448,23956.6,34076.3,-1457.98,-405.514,-65.0201,0
32095,775.78,767.08,781.15,763.33,771.84,109.86,-940.92,399.41,1.91,2.24,3.37,331.58,6420,0,82,-35.6192,-10.7656,-369.266,23152.1,33763.3,-1453.53,-406.566,-62.6977,0
32129,775.65,767.24,781.43,763.55,771.97,112.79,-939.94,382.32,0.47,1.69,0.15,334.49,6427,0,82,-37.1124,-8.56956,-376.211,22476.9,33970.8,-1187.99,-407.703,-59.7455,0
32163,775.49,767.46,781.85,763.75,772.14,131.84,-935.06,394.04,1.77,2.74,0.94,340.76,6434,0,82,-39.2407,-6.6845,-383.377,21510,34095.2,-991.117,-409.066,-56.1067,0
32197,775.61,767.44,781.98,763.92,772.24,117.19,-924.8,394.04,1.6,0.78,0.82,341.21,6440,0,82,-40.0529,-5.85112,-389.206,21207.8,34379.6,-874.71,-409.667,-54.4897,0
32231,775.77,767.5,781.97,763.97,772.3,116.7,-924.8,392.09,0,3.49,-0.59,339.23,6447,0,82,-41.9671,-4.12055,-397.431,20783.8,34841.6,-753.435,-410.333,-52.2956,0
32265,775.94,767.45,781.86,763.92,772.29,112.79,-948.73,374.02,-0.54,2.76,-1.24,337.17,6454,0,82,-42.143,-3.52991,-401.999,20818.6,35229.4,-616.153,-410.364,-51.7877,0
32298,776.49,767.36,781.67,763.96,772.37,120.12,-929.69,393.55,1.62,-0.34,-0.27,330.66,6461,0,82,-42.3499,-5.61279,-404.38,21524.5,35559.7,-967.874,-410.064,-53.2284,0
32332,777.27,767.23,781.45,763.76,772.43,122.56,-927.25,389.16,-2.8,1.56,-1.82,326.31,6467,0,82,-42.7213,-8.60312,-406.414,22259.2,35794.4,-1637.4,-409.926,-54.7697,0
32366,777.44,767.12,781.17,763.66,772.35,125.49,-932.62,381.35,0.51,3.47,-0.07,321.08,6474,0,82,-40.6397,-9.77521,-409.436,23033.2,36503.4,-1807.01,-408.845,-56.2558,0
32400,777.05,767.21,781.3,763.65,772.3,125.49,-923.83,390.62,2.77,1.15,-0.04,325.19,6481,0,82,-40.2631,-12.7748,-413.066,24560.6,37331.5,-2331.7,-407.624,-59.4591,0
32434,776.42,767.3,781.4,763.73,772.21,119.63,-927.25,396,1.4,-1.69,1.1,327.96,6488,0,82,-39.4255,-13.9417,-411.955,25257.1,37434.5,-2562.14,-407.13,-61.3102,0
32468,775.19,767.46,781.8,764.05,772.13,136.72,-918.95,381.35,0.37,4.89,0.23,336.16,6495,0,82,-39.0963,-12.4843,-408.519,23864.7,36846.1,-2350.07,-407.806,-58.4176,0
32502,773.13,767.7,782.28,764.38,771.87,127.93,-936.04,379.88,-0.63,0.86,2.43,348.38,6501,0,82,-38.4294,-12.107,-408.406,23046,36605.9,-2248.87,-408.369,-56.4289,0
32536,769.69,768,782.76,764.75,771.3,140.14,-958.5,370.12,0.66,5.32,3.31,364.34,6508,0,82,-38.5391,-10.9233,-402.908,20592.5,35289.5,-2058.28,-410.413,-51.1094,0
32571,767.62,768.57,783.63,765.27,771.27,126.95,-906.25,360.35,6.98,6.3,1.93,380.68,6515,0,82,-36.9956,-11.0705,-388.23,17470,33072.5,-1881.87,-412.813,-44.996,0
32605,768.81,768.84,784.25,765.94,771.96,100.1,-890.62,449.22,-0.51,-0.03,-1.4,380.2,6522,0,82,-36.2688,-4.92052,-357.678,12344.7,28978.5,-997.406,-416.983,-34.5095,0
32640,769.68,768.98,783.99,765.84,772.12,141.11,-972.17,355.47,0.44,-0.22,-0.63,371.13,6529,0,82,-36.3428,4.48672,-350.129,8220.08,27171.9,11.3409,-420.394,-23.4787,0
32674,769.7,769,783.83,765.8,772.08,135.74,-952.15,390.62,0.53,1.71,0.55,367.42,6536,0,82,-43.1942,3.97364,-380.396,10540.3,29866.2,-467.373,-419.488,-27.7039,0
32708,769.63,768.81,783.48,765.71,771.91,108.89,-962.89,368.16,1.76,0.4,0.91,361.82,6543,0,82,-45.1026,0.00325529,-394.448,13047,31359.1,-1321.41,-418.499,-33.0766,0
32743,768.75,768.44,783.17,765.49,771.46,124.02,-942.87,374.51,2.34,3.02,0.37,363.35,6550,0,82,-43.1591,3.41938,-389.196,12612.2,30887.4,-1198.19,-418.638,-32.4056,0
32777,768.07,768,782.74,765.11,770.98,130.37,-925.29,396,0.53,3.15,-1.54,364.2,6556,0,82,-40.8445,1.40596,-376.542,12774,29997.6,-1655.79,-418.334,-33.9252,0
32811,767.56,767.42,782.47,764.78,770.56,114.75,-916.5,380.37,2.18,2.51,0.13,368.48,6563,0,82,-35.8703,2.23064,-352.692,11513.6,27927.5,-1447.6,-418.817,-32.6425,0
32845,768.37,767.3,782.55,764.63,770.71,106.45,-915.53,418.95,1.4,-0.3,-1.56,370.94,6570,0,82,-32.9059,2.3303,-317.418,9770.54,24976,-1435.53,-419.315,-30.7802,0
32879,768.23,767.29,782.46,764.54,770.63,138.67,-943.85,367.68,0.79,0.72,1.4,370.4,6577,0,82,-28.6935,-0.843284,-303.355,9239.94,24159.6,-1556.83,-418.359,-30.4591,0
32913,768.41,767.3,782.46,764.43,770.65,116.21,-911.13,412.11,1.11,0.44,1.95,371.56,6584,0,82,-29.6222,-4.70113,-316.379,10832.6,25582.4,-2063.63,-417.141,-34.2367,0
32947,768.91,767.59,782.88,764.68,771.01,136.23,-919.92,430.66,1.32,1.57,0.43,374.34,6590,0,82,-29.0653,-9.66958,-322.849,11615.7,26339.4,-2612.59,-416.416,-35.9781,0
32981,768.55,767.81,783.33,764.73,771.11,124.02,-932.13,374.51,9.63,-2.18,1.23,384.05,6597,0,82,-30.366,-7.40673,-321.46,11239.2,25906.8,-2226.91,-417.41,-34.9626,0
33015,768.37,767.82,783.39,764.66,771.06,149.9,-967.77,355.96,8.2,4.5,1.44,387.35,6604,0,82,-33.932,-11.243,-344.952,11821.8,27525.7,-2724.95,-418.204,-34.2698,0
33050,769.74,768.01,783.44,764.66,771.46,125.49,-955.57,398.93,9.65,0.89,-3.37,382.16,6611,0,82,-35.1979,-10.4983,-352.176,11541.3,27854.6,-2483,-418.907,-32.7712,0
33084,770.73,768.41,783.69,764.93,771.94,77.64,-969.73,401.86,23.31,2.44,1,377.87,6618,0,82,-33.8431,-11.8257,-335.366,9994.77,26405.1,-2084.97,-419.266,-29.8021,0
33118,767.71,768.56,783.16,765.05,771.12,115.72,-922.36,433.59,4.31,4.89,1.84,372.06,6625,0,82,-33.7705,-12.7513,-375.625,13119.8,30866.6,-1791.51,-415.827,-34.9262,0
33152,768.31,769.01,783.26,765.24,771.45,96.19,-882.81,424.32,10.82,3.63,0.57,366,6631,0,82,-34.3218,-11.5641,-428.846,17694.1,36634.3,-1296.99,-412.575,-41.2591,0
33186,768.08,768.83,782.76,765.37,771.26,114.26,-947.75,411.13,12.95,0.92,1.61,353.98,6638,0,82,-29.4398,-18.0003,-353.251,10748.6,28284.3,-1571.03,-417.933,-30.4219,0
33220,767.78,768.63,781.47,764.76,770.66,113.77,-887.7,442.87,15.91,4.11,0.78,333.37,6645,0,82,-27.9584,-15.3015,-372.27,11268.5,30033.5,-424.684,-417.325,-30.2678,0
33254,767.67,769.06,781.33,765,770.77,120.61,-907.71,434.57,7.47,1.32,2.34,323.46,6652,0,82,-21.3271,-17.8244,-373.972,12585.8,31375.4,292.283,-414.102,-33.6533,0
33288,766.5,769.19,781.41,765.54,770.66,92.77,-873.54,461.43,4.48,0.52,2.27,320.53,6659,0,82,-14.8019,-22.0517,-352.5,12793.8,30279.8,751.991,-412.1,-36.2945,0
33322,765.23,769.15,781.76,766.29,770.61,102.05,-935.55,422.36,-0.16,6.05,2.41,322.72,6665,0,82,-17.7416,-20.7608,-374.212,13164.9,32159.6,1365.98,-412.061,-35.1806,0
33356,764.78,769.19,782.44,767.1,770.88,113.28,-867.68,459.96,16.56,6.33,5.24,328.97,6672,0,82,-18.2697,-17.7504,-377.595,11626.4,32278.8,1944.73,-412.515,-30.7896,0
33391,763.79,769.28,783.41,768.4,771.22,139.16,-945.8,427.73,10.54,6.65,5.18,336.58,6679,0,82,-14.6271,-19.4992,-364.765,8865.51,30823.2,1711.5,-413.499,-24.3043,0
33425,761.59,769.06,784.61,769.59,771.21,143.07,-926.27,466.31,10.5,2.47,9.37,358.4,6686,0,82,-15.2534,-16.243,-381.474,7886.58,32071.7,1812.68,-413.927,-20.6751,0
33459,759.86,769.08,786.58,771.34,771.71,105.96,-904.3,473.14,16.99,4.6,16.71,387.63,6693,0,82,-16.5918,-13.9452,-385.666,5715.43,32097.3,2007.74,-414.775,-14.8206,0
33493,758.53,769.32,788.93,773.24,772.51,84.47,-874.51,487.79,14.85,1.47,10.39,420.82,6700,0,82,-15.732,-13.4932,-373.825,1993.23,30074.9,1893.5,-417.548,-5.33277,0
33527,756.74,769.9,791.57,775.16,773.34,76.66,-879.39,491.21,10.21,1.73,12.79,459.76,6706,0,82,-16.2585,-9.96601,-374.719,-1326.49,29131.9,2523.36,-420.256,3.5374,0
33561,754.69,770.13,794.02,776.9,773.94,65.43,-932.13,489.26,10.8,1.2,18.35,500.39,6713,0,82,-24.9343,-0.23804,-393.711,-4228.25,29608.5,3478.91,-422.796,10.7378,0
33596,753.68,770.27,796.16,778.64,774.69,88.38,-846.68,522.46,21.48,16.75,17.74,530.37,6720,0,82,-33.4279,3.60565,-412.495,-7739.28,29554.6,4118.65,-426.351,18.7617,0
33630,753.27,770.6,798.73,780.62,775.8,29.3,-895.02,491.7,10.56,5.95,12.13,564.12,6727,0,82,-34.6385,7.21747,-407.939,-11556.2,27491.7,4959.85,-430.609,28.3286,0
33663,753.1,770.43,802.27,781.51,776.83,72.75,-903.32,536.62,4.53,19.24,22.34,640.94,6734,0,82,-31.0888,5.26411,-414.591,-14074.2,27209.3,5375.15,-432.371,33.9466,0
33697,752.94,770,805.77,781.64,777.59,15.63,-864.75,542.48,1.05,17.03,26.47,730.4,6740,0,82,-30.5878,1.76512,-439.83,-15746.5,28581.9,5756.02,-433.016,35.8,0
33730,752.85,769.55,809.8,781.4,778.4,-5.37,-875,528.32,3.59,15.17,19.17,838.32,6747,0,82,-33.4445,7.86018,-450.863,-17993.9,28579.7,6487.45,-434.611,39.9095,0
33765,752.78,769.36,812.08,781.37,778.9,-40.04,-841.8,501.95,11.35,10.79,12.92,897.21,6754,0,82,-36.8144,14.5137,-461.473,-20236.7,28669.2,7295.07,-435.875,43.8516,0
33798,752.74,769.61,813,782.12,779.37,-52.73,-841.8,524.41,3.83,-3.66,5.14,907.08,6761,0,82,-41.581,18.3757,-477.237,-22309.3,29265.5,7605.88,-436.677,46.7461,0
33832,752.78,769.82,813.55,782.64,779.7,-48.34,-839.36,535.16,9.73,-1.05,-2.24,911.47,6767,0,82,-47.9412,26.4253,-496.154,-24173.9,30339.9,8607.91,-436.85,48.7219,0
33866,752.55,769.9,813.48,782.67,779.65,-34.18,-855.96,541.99,6.28,1.79,-5.47,909.42,6774,0,82,-55.4086,34.5108,-528.623,-26054.9,32339.4,9918.57,-436.824,49.2877,0
33900,752.45,769.85,813.15,781.95,779.35,16.6,-857.91,566.89,-2.27,-11.53,-9.73,912.52,6781,0,82,-59.4555,35.5387,-547.586,-26723.7,33590.6,10148.9,-436.657,48.8029,0
33934,752.24,769.16,812.63,780.03,778.52,2.93,-890.62,540.04,-0.76,3.08,-8.39,934.08,6788,0,82,-57.6979,30.2564,-536.07,-25752.2,32938.7,9506.37,-436.555,48.0391,0
33967,752.07,768.89,812.05,777.76,777.69,-33.2,-784.67,563.48,-1.68,-1.79,-4.72,955.95,6794,0,82,-54.2748,24.3203,-525.024,-24951.2,31977.8,9164.74,-437.093,47.5243,0
34001,751.86,769.25,811.48,776.76,777.34,-0.98,-821.78,508.79,-12.17,-8.53,-28.7,954.33,6801,0,82,-52.868,21.6138,-500.209,-25006,29720.6,8473.86,-438.584,49.9924,0
34036,752.02,769.43,810.93,777.1,777.37,20.51,-925.29,466.31,13.89,-13.13,-26.63,933.36,6808,0,82,-49.1673,20.0107,-469.815,-23881.8,27467.2,8113.42,-439.536,50.8326,0
34070,752.5,768.87,810.74,777.18,777.32,324.71,-774.9,576.17,-9.73,2.98,-17.32,930.28,6815,0,82,-47.515,6.82257,-457.169,-21228,27072.4,6263.74,-438.782,46.4329,0
34104,753.52,768.15,810.52,775.97,777.04,76.17,-932.13,464.36,7.52,-6.14,-5.45,944.99,6822,0,82,-38.7103,-3.43744,-449.684,-17616.7,28330.6,4825.55,-434.999,39.1753,0
34138,754.47,768.16,808.35,774.87,776.46,37.11,-710.94,610.84,-14.54,-0.66,-16.44,903.86,6829,0,82,-29.6879,-9.03341,-445.074,-13223.2,30484.3,2905.3,-429.506,29.7085,0
34172,755.52,768.03,804.74,773.75,775.51,88.87,-980.96,430.18,-21.5,-0.6,-17.11,827.81,6835,0,82,-23.1317,-4.35925,-433.222,-9911.08,31501.6,3116.34,-425.285,22.8769,0
34206,756.4,767.63,803.13,772.61,774.94,87.89,-837.89,513.18,-10.66,1.18,-12.17,804.57,6842,0,82,-22.7806,-8.15845,-428.889,-5818.48,32545.1,2227.69,-422.118,13.5655,0
34240,757.88,767.34,801.49,771.47,774.55,79.59,-889.16,479.49,3.41,1.92,-7.77,777.83,6849,0,82,-21.5738,-9.18184,-427.863,-2640.48,33368.3,1513.5,-420.012,6.17174,0
34274,759.47,767.37,798.93,770.34,774.03,100.1,-819.82,504.88,-19.17,-4.09,-13.56,725.06,6856,0,82,-18.5383,-6.54011,-421.77,-643.55,33809.7,1548.28,-417.838,1.52545,0
34308,760.73,767.36,796.73,768.98,773.45,134.28,-952.64,456.54,-39.2,-6.66,-18.77,685.83,6863,0,82,-15.1513,-5.77888,-417.527,2197.42,34609.2,1552.66,-415.109,-5.26302,0
34342,762.07,767.23,795.07,767.88,773.06,134.77,-944.34,427.25,-13.92,-2.76,-8.38,657.29,6869,0,82,-15.7047,-8.12505,-419.797,5341.76,35547.5,1192.07,-413.322,-12.7242,0
34377,763.67,767.01,793.81,766.95,772.86,160.16,-958.98,496.09,-24.27,-5.4,-5.15,635.85,6876,0,82,-18.478,-12.1731,-419.341,8358.26,36191,442.164,-411.695,-19.9323,0
34411,764.84,766.86,793.3,766.33,772.83,115.23,-902.83,421.39,1.71,0.67,-0.32,629.2,6883,0,82,-17.3533,-8.62428,-411.922,10180.6,36029.6,771.08,-410.533,-24.7143,0
34445,766.18,766.96,792.75,765.81,772.92,142.58,-959.96,409.18,-13.24,-4.6,2.92,617.85,6890,0,82,-20.574,-12.0468,-415.453,12666.6,36725.8,312.379,-409.601,-30.4887,0
34479,767.19,766.99,792.23,765.35,772.94,118.16,-913.57,437.5,-13.42,-0.89,0.79,608.05,6897,0,82,-22.0927,-9.28614,-411.029,13574.2,36430.7,687.348,-409.367,-33.0246,0
34515,767.55,766.88,791.55,764.74,772.68,86.43,-900.39,446.78,-2.24,-0.5,2.05,599.66,6904,0,82,-29.7494,-7.35961,-416.378,15091,36742.1,786.856,-409.758,-36.2437,0
34549,766.87,766.87,791.67,764.52,772.48,121.58,-968.26,386.23,-5.13,0.63,2.44,608.18,6911,0,82,-36.8792,-6.9592,-416.753,16085.8,36440.4,417.457,-410.562,-38.5965,0
34583,766.39,766.92,792.2,764.27,772.44,125.49,-922.85,422.85,-1.55,0.84,1.18,626.51,6918,0,82,-37.3541,-11.7628,-401.426,16283.5,35065.3,406.398,-410.648,-40.5639,0
34617,764.29,767,792.86,764.38,772.13,164.06,-929.69,396,-9.79,-1.31,3.73,647.85,6924,0,82,-42.1715,-7.6972,-391.786,14760,33609.6,822.411,-412.215,-37.6719,0
34651,763.04,767.3,793.82,764.55,772.18,126.46,-918.95,414.55,-5.19,-3.36,5.57,671.25,6931,0,82,-45.7041,-2.23545,-376.709,11947.8,31325.4,1523.14,-414.845,-31.7174,0
34685,762.14,767.53,793.93,764.56,772.04,127.93,-904.3,399.9,-5.44,-2.34,6.27,675.13,6938,0,82,-46.3847,-0.292944,-360.788,8801.64,28944.5,1833.16,-417.778,-24.385,0
34719,761.64,767.76,793.67,764.55,771.9,117.68,-929.2,404.79,-7.95,-4.38,-1.52,668.49,6945,0,82,-49.7376,3.91193,-347.837,5315.75,26521.8,2563.76,-421.752,-15.2819,0
34753,761.61,767.68,793.49,764.51,771.82,97.17,-941.41,396.48,-1.38,0.85,-3.04,665.49,6952,0,82,-51.3862,4.27912,-329.942,3866.07,24536.6,2771.87,-423.634,-11.7174,0
34787,762.42,767.47,793.09,764.67,771.91,101.07,-934.57,394.04,6.22,5.24,-2.95,652.1,6958,0,82,-49.0675,-0.589974,-323.35,3813.67,23842.9,2576.85,-424.263,-11.7944,0
34822,763.37,767.29,792.71,764.89,772.06,140.14,-930.18,407.23,2.03,2.81,-0.52,637.52,6965,0,82,-48.7105,1.36384,-317.788,3746.17,23371.5,2367.42,-424.456,-11.7878,0
34856,764.58,767.36,792.46,765.07,772.37,116.7,-906.74,429.2,1.25,0.69,-0.02,623.96,6972,0,82,-41.0307,5.79813,-329.525,5525.07,25545.1,2205.73,-420.481,-16.7631,0
34890,765.95,767.54,792.33,765.2,772.76,124.51,-938.48,392.58,0.39,-1.04,-0.26,612.65,6979,0,82,-37.2682,5.30704,-357.907,8140.34,29044.8,1868.54,-416.849,-22.7432,0
34924,767.36,767.63,791.78,765.24,773,116.7,-937.5,410.16,-2.5,-1.97,-0.64,592.83,6986,0,82,-37.3517,5.23116,-380.737,10665.3,31732.1,1583.18,-414.656,-28.0119,0
34958,768.8,767.55,790.86,765.06,773.07,118.16,-908.2,408.69,-3.44,-0.93,1.23,568.2,6993,0,82,-39.8697,5.3838,-403.909,12917.3,34197.5,1476.56,-413.334,-31.9793,0
34992,770.27,767.35,789.88,764.79,773.07,154.79,-938.48,360.84,-7.46,-1.82,-2.37,544.3,6999,0,82,-40.4681,6.30573,-416.268,15278,35789.5,1532.73,-412.023,-36.7019,0
35026,771.45,767.12,788.64,764.35,772.89,123.05,-927.73,398.44,-6.85,-1.98,2.98,517.63,7006,0,82,-41.5276,2.72452,-416.318,17225.5,36356.9,1340.27,-410.67,-41.3761,0
35060,773.75,767.11,787.7,764.05,773.15,125,-915.53,401.86,-4.52,-1.63,2.95,490.94,7013,0,82,-40.0396,-2.34694,-417.359,19744.6,37163.6,775.684,-408.954,-47.3098,0
35094,775.94,767.28,787.06,764.06,773.58,115.72,-936.52,362.79,-6.33,-1.05,0.47,465.88,7020,0,82,-39.4226,-7.27953,-408.235,21005.1,36885,190.417,-407.648,-51.4534,0
35128,775.86,767.26,786.82,764.22,773.54,139.16,-950.2,383.79,0.59,0.77,-0.91,458,7027,0,82,-40.7793,-12.4164,-426.062,24019.6,39033.4,-515.485,-406.386,-56.375,0
35162,774.7,767.22,786.84,764.25,773.25,121.58,-925.29,383.3,1.37,1.22,-0.15,462.25,7033,0,82,-42.3708,-15.4944,-449.702,26670.8,41410.7,-883.551,-405.915,-59.3078,0
35195,773.39,767.19,787.08,764.37,773.01,122.56,-928.71,403.32,1.34,2.72,2.05,471.24,7040,0,82,-41.2524,-13.6333,-454.434,26356.4,41947.7,-319.417,-405.693,-57.9979,0
35229,772.45,767.12,787.26,764.43,772.81,124.51,-935.55,396,0.67,1.54,-0.37,478.64,7047,0,82,-41.0243,-8.351,-436.317,23923.4,40050.8,56.521,-406.207,-54.8285,0
35262,772.22,767,787.29,764.46,772.74,112.3,-931.15,404.3,0.66,1.28,-1.97,480.89,7053,0,82,-41.2362,-2.77274,-418.54,20919.3,37875.8,416.492,-407.505,-49.9807,0
35296,772.22,766.92,787.11,764.37,772.66,129.39,-938.48,382.81,-0.24,2.35,-1.24,478.32,7060,0,82,-39.7478,-1.19596,-403.468,18824.5,36189.1,677.244,-408.305,-46.6566,0
35329,772.29,766.94,787.05,764.29,772.64,136.72,-929.2,385.74,-0.68,1.84,-1.09,477.59,7067,0,82,-37.4206,-2.71424,-395.247,18003.3,35482.2,759.01,-408.228,-45.5495,0
35364,772.37,766.92,787,764.31,772.65,114.75,-923.34,403.81,-0.24,2.11,-0.63,475.9,7074,0,82,-35.9799,-5.79403,-391.116,18254.3,35164.5,377.547,-408.092,-46.6724,0
35397,771.98,766.9,787.16,764.32,772.59,128.91,-935.06,393.07,-0.4,3.18,2.55,481.15,7080,0,82,-36.1927,-7.74298,-392.02,18817.6,35336.8,61.801,-407.86,-48.0016,0
35431,771.56,767.01,787.36,764.4,772.58,127.44,-942.38,396.97,-0.01,0.1,-0.5,485.53,7087,0,82,-36.6344,-9.3301,-397.522,19170.8,35821.6,-134.404,-407.888,-48.2257,0
35466,771.18,766.96,787.61,764.56,772.58,126.95,-924.8,401.86,0.93,0.37,1.9,491.14,7094,0,82,-37.1442,-8.05418,-396.203,18399.4,35636.1,148.667,-408.056,-46.4391,0
35500,770.78,767.11,787.82,764.64,772.59,118.16,-931.15,396.97,1.56,1.37,0.76,495.36,7101,0,82,-37.6191,-6.47626,-392.547,17337.9,34875.3,272.402,-409.156,-44.1676,0
35534,770.59,767.13,788.05,764.77,772.64,122.07,-934.08,402.34,1.48,0.22,-1.21,499.57,7108,0,82,-37.7456,-5.93222,-391.103,16460.6,34409.3,334.345,-410.02,-42.0878,0
35568,770.41,767.24,788.26,764.96,772.72,121.09,-929.69,392.58,2.14,2.02,-0.69,501.68,7115,0,82,-37.697,-4.68004,-393.553,15871.4,34416.2,530.858,-410.55,-40.3285,0
35602,770.09,767.46,788.46,765.13,772.79,113.28,-938.96,406.25,-0.44,1.28,-1.83,503.74,7121,0,82,-37.9511,-4.57312,-395.225,15338.2,34433.9,498.645,-410.875,-38.8089,0
35636,770.03,767.67,788.49,765.25,772.86,110.35,-934.08,391.6,-1.96,2.02,-0.31,501.19,7128,0,82,-38.6995,-2.90426,-396.5,14942.5,34298,554.283,-411.498,-37.6861,0
35670,769.81,767.84,788.86,765.47,772.99,115.23,-926.27,388.18,-0.08,4.96,2.15,506.35,7135,0,82,-40.1721,-2.72346,-398.341,14288.3,34039.3,464.093,-412.547,-35.8696,0
35704,769.89,767.93,789.03,765.62,773.12,138.67,-932.62,396.97,1.76,3.2,2.08,507.53,7142,0,82,-42.298,-2.83714,-404.648,14379.6,34280.6,191.084,-413.283,-35.5361,0
35738,769.99,768.1,789.16,765.82,773.27,113.28,-928.22,397.95,-0.12,0.94,0.15,505.96,7149,0,82,-43.3451,-3.40057,-408.073,13912.6,34207.4,-11.8859,-414.173,-34.0935,0
35772,770.12,768.16,789.09,765.86,773.31,119.14,-924.32,391.6,0.1,1.18,2.75,502.77,7155,0,82,-43.6696,-2.93499,-414.57,13924,34714,28.9586,-414.265,-33.5868,0
35806,770.4,768.14,789,765.84,773.34,117.68,-904.79,397.46,-0.19,-0.69,1.37,500.08,7162,0,82,-45.2929,-2.92499,-420.605,14170.1,34990.1,-198.916,-414.81,-33.69,0
35840,770.79,768.03,788.8,765.72,773.34,120.61,-924.8,388.67,-0.58,-0.06,-1.29,496.43,7169,0,82,-46.0516,-3.18963,-420.253,14460.8,34925.5,-508.043,-414.894,-34.4098,0
35874,771.31,767.99,788.62,765.62,773.38,126.95,-933.59,391.6,2.64,2.08,0.02,491.97,7176,0,82,-45.5431,-2.36015,-420.579,15073.3,35117.2,-442.766,-414.503,-35.8392,0
35908,772.15,767.92,788.31,765.4,773.44,125,-936.52,393.55,2.22,1.56,-1.17,485.09,7183,0,82,-45.3911,-3.23535,-423.421,16171.4,35684.3,-654.505,-413.724,-38.1922,0
35942,773.45,767.68,787.72,765.13,773.5,125.98,-936.52,409.18,0.29,-0.64,-1.56,471.98,7189,0,82,-45.7359,-2.32481,-425.965,16882.1,36127.5,-696.566,-413.187,-39.6325,0
35977,775.46,767.39,786.77,764.66,773.57,123.05,-923.83,394.53,-2.02,0.15,-0.9,450.53,7196,0,82,-45.3786,-1.90242,-425.169,18081.4,36461,-735.319,-412.244,-42.5275,0
36011,778.11,767.16,785.44,764.11,773.71,137.21,-931.15,388.67,-3.65,-1.12,-0.17,418.33,7203,0,82,-45.073,-2.43263,-425.701,20347.8,37211.5,-879.392,-410.587,-47.7989,0
36045,781.1,766.94,784.15,763.55,773.94,127.44,-929.2,385.74,-3.44,0.37,0.39,385.78,7210,0,82,-44.4851,-6.89259,-424.255,23258.8,37819,-1455.62,-408.858,-54.8225,0
36079,783.91,766.66,782.75,763.05,774.09,125.49,-944.34,403.32,0.02,3.8,-2.27,351.04,7217,0,82,-43.7842,-13.9838,-424.954,26606.6,38683.9,-2505,-406.969,-62.6105,0
36113,785.98,766.38,781.31,762.62,774.07,129.88,-946.78,370.12,0.5,1.76,1.46,316.74,7224,0,82,-42.8207,-17.2599,-430.625,29844,39979.5,-3272.58,-405.159,-69.3038,0
36147,787.63,766.21,780.33,762.45,774.16,128.91,-930.66,388.18,-0.76,4.73,-3.93,290.28,7230,0,82,-42.5078,-19.2324,-432.241,32110.9,40690.1,-3701.08,-403.863,-74.2893,0
36181,788.64,766.09,779.77,762.39,774.22,132.32,-924.32,395.51,2.54,2.49,-2.02,274.78,7237,0,82,-41.5254,-18.4549,-431.839,33911,41167.3,-4067.76,-402.67,-78.5269,0
36215,788.37,765.99,779.51,762.37,774.06,136.72,-930.18,390.14,1.11,2.09,0.35,270.33,7244,0,82,-41.4853,-17.2356,-432.873,34975.7,41657.5,-4289.02,-401.765,-80.799,0
36249,786.2,765.98,779.59,762.39,773.54,123.05,-927.25,387.21,1.21,4.2,2.82,279.52,7251,0,82,-41.5477,-17.0732,-434.14,35452.6,41986.9,-4407.28,-401.287,-81.6617,0
36283,781,766.11,780.05,762.56,772.43,116.21,-940.43,393.07,1.06,6.65,1.5,305.24,7258,0,82,-40.2398,-17.2743,-430.63,34730.6,41421.4,-4578.02,-401.812,-80.6501,0
36317,772.64,766.37,780.95,763.04,770.75,149.9,-959.96,344.24,-1.89,5.81,5.95,347.18,7264,0,82,-37.6418,-18.1656,-408.956,31648.2,38976.7,-4564.83,-402.691,-77.3855,0
36351,768.38,766.82,782.11,763.68,770.25,134.28,-883.79,396.97,-7.5,-0.27,4.08,377.68,7271,0,82,-30.7263,-17.3972,-368.65,25042.4,33980.7,-3581.14,-405.829,-67.9169,0
36387,768.81,767.05,782.88,764.15,770.72,74.71,-868.65,451.17,1.29,-0.05,-1.92,386.68,7278,0,82,-24.341,-5.69823,-305.07,14309.9,26038.4,-1531.72,-412.653,-46.8844,0
36421,769.12,767.49,783.56,764.8,771.24,134.77,-978.52,348.14,-0.4,2.57,-1.09,389.46,7285,0,82,-23.0829,0.198326,-276.897,8197.61,21954.3,-842.38,-418.713,-29.605,0
36455,769.75,767.7,783.86,765.12,771.61,115.23,-922.85,394.53,0.66,3.22,-1.94,388.48,7292,0,82,-29.5334,1.40332,-301.868,8786.78,23638.5,-1322.7,-419.694,-29.1039,0
36489,768.58,767.7,783.93,765.18,771.35,130.37,-940.92,386.72,-0.92,3.24,1.18,393.15,7299,0,82,-33.9377,-0.927257,-331.595,9985.61,25940.6,-2316.23,-419.77,-30.1133,0
36523,768.27,767.83,783.95,765.06,771.28,106.45,-948.73,360.84,-1.54,4.4,0.57,395.4,7306,0,82,-34.7124,-2.25965,-348.618,10998.3,27309.1,-2917.29,-419.665,-31.5484,0
36557,768.16,767.77,783.76,765.06,771.19,130.86,-958.01,378.91,3.56,3.44,1.91,391.76,7312,0,82,-32.6491,-5.82455,-334.3,9957.67,25812.3,-3048.29,-420.788,-29.7855,0
36592,767.96,767.6,783.35,764.85,770.94,145.51,-956.54,377.44,1.66,3.45,4.08,386.66,7319,0,82,-32.1737,0.695686,-317.97,8308.74,23847.5,-2437.92,-423.001,-26.1305,0
36626,770.29,767.75,783.78,764.96,771.69,119.14,-930.66,353.52,8.38,-0.7,0.11,386.49,7326,0,82,-28.0254,-1.97423,-317.546,8973.83,24179.1,-2304.75,-421.856,-28.2596,0
36660,768.68,767.71,783.84,765.16,771.35,126.46,-916.99,407.23,0.87,1.48,-1.6,390.99,7333,0,82,-27.0886,-7.02492,-298.383,8273.89,22443.9,-2585.14,-422.782,-27.7291,0
36694,769.07,767.97,783.76,765.19,771.5,116.7,-887.21,431.64,6.41,0.49,2.69,384.96,7340,0,82,-29.3611,-4.44797,-362.603,13200.4,29148.2,-2372.41,-417.616,-36.4038,0
36728,769.65,768.04,783.75,765.02,771.62,129.88,-904.79,418.95,8.24,-3.1,3.06,384.65,7347,0,82,-24.7105,-10.7394,-336.897,10629.6,26656.2,-2477.08,-418.879,-31.5497,0
36761,768.78,768.64,783.62,765.23,771.57,125,-877.44,445.8,5.27,1.28,6.85,376.49,7353,0,82,-25.4521,-9.1382,-341.077,10648,27032.4,-1768.46,-418.746,-31.2147,0
36795,769.45,769.81,784.07,765.54,772.22,99.12,-946.29,398.93,12.56,-0.69,5.02,371.57,7360,0,82,-24.1207,-11.7206,-368.94,13403.4,30794,-911.929,-414.536,-36.3275,0
36828,769.4,770.54,784.46,765.86,772.57,120.61,-962.4,406.74,12.44,2.11,5.63,371.03,7367,0,82,-24.7587,-14.5602,-360.649,11355.5,29016.1,-257.7,-417.545,-31.4865,0
36862,769.4,770.7,784.12,765.88,772.52,107.42,-915.04,408.2,11.47,4.43,-0.19,360.81,7373,0,82,-29.0144,-12.9065,-389.3,12175.8,31062.7,659.568,-418.208,-31.2776,0
36895,770.19,770.51,783.63,766.05,772.6,85.45,-950.2,401.86,15.27,7.02,-1.56,344.77,7380,0,82,-34.0235,-6.20253,-413.709,12693.6,32972.8,1853.38,-418.3,-30.6821,0
36929,769.91,769.94,783.15,765.89,772.22,122.56,-931.15,450.2,8.56,3.13,0.08,341.01,7387,0,82,-29.9228,-11.3296,-411.637,13331.1,33433.7,2043.44,-416.779,-32.3855,0
36963,768.82,769.3,782.83,766.04,771.74,148.44,-896.97,417.48,-3.95,4.09,-1.52,339.75,7394,0,82,-31.1304,-8.85557,-429.85,15385.3,36441.5,2570.18,-413.224,-35.7904,0
36997,768.05,768.86,783.11,766.45,771.62,125.49,-941.89,466.8,2.79,0,2.73,346.74,7400,0,82,-28.5231,-10.1347,-429.111,15733.9,37535.2,2500.74,-410.527,-36.6664,0
37031,766.82,768.76,783.57,767.15,771.57,123.05,-907.71,467.29,13.22,2.29,4.96,352.87,7407,0,82,-20.2428,-14.0324,-412.514,14520.7,37073.9,2121.03,-408.127,-35.2005,0
37064,765.19,768.84,784.16,767.88,771.52,130.86,-903.32,462.89,18.46,5.22,13.02,361.66,7414,0,82,-13.2359,-16.5542,-406.959,13075.3,36906.1,2178.7,-407.312,-32.1291,0
37098,764.2,769.17,785.09,768.96,771.86,87.89,-856.45,459.47,21.26,4.95,13.66,369.83,7421,0,82,-10.3632,-17.0264,-397.98,10857.8,35698.4,2322.9,-408.301,-27.281,0
37132,762.85,769.71,786.55,770.62,772.43,122.07,-911.62,482.42,10.18,7.56,9.78,381.92,7427,0,82,-8.19829,-15.2787,-380.947,7697.46,33114.6,2908.74,-411.073,-20.2044,0
37166,761.53,770.04,787.93,771.98,772.87,82.52,-899.9,493.16,16.97,3.35,12.59,398.18,7434,0,82,-6.80888,-9.36233,-383.641,4992.09,32265.1,4038.54,-413.897,-13.0151,0
37200,761.06,770.31,789.23,773.17,773.44,50.78,-811.04,533.2,18.91,5.69,9.09,412.42,7441,0,82,-11.8493,-1.00419,-398.026,2374.91,32165.8,4964.53,-417.186,-5.96717,0
37234,760.55,770.69,790.33,774.57,774.03,75.68,-875.98,513.18,4.1,4.09,4.73,418.12,7448,0,82,-11.9124,5.40009,-401.763,-311.117,31467.2,6088.17,-419.677,0.774221,0
37268,760.54,770.98,791.83,775.79,774.79,58.59,-846.68,534.67,12.3,0.63,10.08,435.23,7455,0,82,-10.1203,8.90288,-418.633,-1637.05,32505,6904.06,-420.354,3.90964,0
37302,760.71,771.34,792.93,776.72,775.42,22.95,-840.33,528.81,6.83,0.89,4.82,445.54,7461,0,82,-11.2204,10.8426,-432.245,-2738.2,33184.8,7131.75,-421.227,6.33448,0
37338,760.79,771.54,793.5,777.18,775.75,28.32,-855.47,523.44,1.36,5.32,2.68,451.13,7469,0,82,-14.3748,24.0737,-459.963,-3469.51,35211.2,9182.04,-421.447,7.54281,0
37372,760.94,771.44,793.22,776.94,775.64,58.11,-886.72,539.06,1.42,-0.11,-0.32,447.84,7475,0,82,-18.886,30.7164,-476.835,-3609.37,36547.3,10367.2,-421.354,7.56971,0
37406,761.32,771.03,792.34,776.13,775.21,63.48,-861.82,535.64,0.95,-0.15,-5.37,439.84,7482,0,82,-23.873,33.0316,-485.714,-3252.58,37160.9,10767.2,-421.492,6.69647,0
37440,761.93,770.44,790.91,774.99,774.57,59.57,-847.66,527.83,-2.23,-3.58,-8.61,423.66,7489,0,82,-22.7848,30.8553,-478.289,-1938.7,37324.7,10841.3,-419.962,4.05272,0
37474,762.61,769.67,789.2,773.68,773.79,65.92,-886.72,504.88,-12.04,-1.99,-12.85,404.05,7496,0,82,-20.5487,23.5755,-463.56,360.61,37279.3,9679.14,-417.58,-0.779617,0
37508,763.29,768.79,787.33,772.21,772.9,93.26,-876.95,519.53,-11.31,-1.28,-11.18,383.99,7503,0,82,-15.3149,13.1125,-449.585,3506.05,37796,7769.69,-413.931,-7.79928,0
37542,764.3,767.85,785.63,770.85,772.16,98.14,-952.15,471.19,-7.65,0.89,-7.97,365.76,7509,0,82,-12.1076,2.93136,-440.033,6433.92,38576.9,5723.06,-410.331,-14.6224,0
37576,765.48,767.04,783.72,769.35,771.4,98.63,-810.06,525.88,-8.97,-2.23,-10.33,342.56,7516,0,82,-8.30286,-3.93264,-425.039,9473.08,39062.7,4024.68,-406.096,-22.2886,0
37610,766.16,766.49,782.43,768.11,770.8,118.16,-881.35,484.37,-23.45,-3.26,-10.27,330.99,7523,0,82,-5.74838,-5.08414,-409.157,11950.6,39346.3,3476.14,-401.835,-29.2095,0
37644,766.98,766.07,781.45,767.05,770.39,87.89,-807.62,521.48,-19.29,-5.06,-13.74,322.6,7530,0,82,-3.36533,-8.79697,-399.013,15143.7,40240.2,2553.34,-397.151,-37.9538,0
37678,767.21,766.02,781.6,766.66,770.37,122.07,-942.87,439.45,-32.51,-3.06,-12.65,331.5,7537,0,82,-7.49503,-10.4957,-392.509,16540.2,40149,1616.74,-395.711,-42.1405,0
37713,768,765.85,781.24,766.22,770.33,120.61,-854.49,484.37,-20.24,-1.85,-11.44,327.63,7544,0,82,-11.1159,-13.1265,-392.115,18395.4,40469.1,624.122,-394.793,-46.9132,0
37747,768.77,765.59,781.06,765.41,770.21,146.48,-968.75,374.51,-23.65,-2.66,-10.93,334.84,7550,0,82,-19.4791,-11.6718,-396.12,17949.6,40033.2,114.288,-396.937,-45.3134,0
37781,769.37,765.31,781.2,764.99,770.22,132.32,-897.46,429.2,-3.66,3.08,-1.22,344.54,7557,0,82,-20.0437,-10.7238,-390.372,18871.5,39621.2,-49.1118,-396.504,-48.3424,0
37815,770.64,765.07,781.07,764.65,770.36,133.3,-929.69,432.13,4.69,2.35,-0.75,343.8,7564,0,82,-23.6209,-14.1173,-388.055,19833,39153.7,-830.046,-397.103,-51.1085,0
37849,771.32,764.75,780.7,764.14,770.23,154.3,-916.99,431.64,-5.73,4.44,-0.49,342.44,7571,0,82,-22.7912,-13.2673,-386.028,20198.6,38671.9,-885.799,-397.821,-52.324,0
37883,771.68,764.69,780.7,763.89,770.24,128.42,-899.9,428.22,-11.88,-0.96,0.34,345.31,7578,0,82,-24.7767,-12.9932,-382.917,21246.3,38404.3,-1414.15,-397.706,-55.4856,0
37917,772.19,764.52,780.69,763.72,770.28,142.58,-920.41,424.8,-5.08,-1.38,1.93,347.27,7584,0,82,-26.5821,-14.1131,-378.142,22107.2,37944.2,-2009.06,-397.656,-58.4629,0
37951,772.09,764.32,780.4,763.38,770.05,127.44,-910.16,432.13,-9.44,1.46,-1.11,346.76,7591,0,82,-30.026,-9.60371,-364.31,20941.2,36215.8,-1964.28,-398.59,-57.4816,0
37985,772.37,764.22,780.15,762.94,769.92,133.3,-932.62,409.18,-5.87,3.07,0.79,346.99,7598,0,82,-34.5929,-6.26935,-369.16,21863,36415.8,-2225.75,-399.355,-59.2237,0
38019,771.72,764.22,780.3,762.8,769.76,129.39,-916.99,416.5,-6.85,0.28,2.32,355.12,7605,0,82,-36.5192,-8.86466,-343.054,20708.5,33520.8,-2815.38,-400.288,-60.3659,0
38053,771.71,763.99,779.79,762.42,769.48,126.46,-907.71,411.13,-11.67,1.52,-0.08,349.89,7612,0,82,-38.5313,-10.7706,-337.339,20690.7,32736.9,-3199.87,-400.956,-61.3353,0
38087,772.02,763.85,779.11,762.06,769.26,137.21,-923.34,430.66,-3.54,0.72,-1.91,338.1,7618,0,82,-41.9139,-8.11755,-325.029,19460.8,31097.4,-3202.34,-402.325,-59.874,0
38122,771.86,763.85,778.73,761.74,769.04,147.95,-955.08,366.7,-2.17,-1.2,2.73,334.07,7625,0,82,-40.7513,-11.0285,-298.061,18678.3,28458,-3595.35,-402.523,-62.6663,0
38156,771.19,764.14,778.53,761.68,768.89,126.95,-943.85,381.35,-11.02,-4.47,5.01,329.71,7632,0,82,-38.713,-15.2501,-282.098,18889.3,26877.5,-3964.88,-402.723,-66.9599,0
38190,770.1,764.08,777.92,761.57,768.42,125.49,-935.55,380.37,-9.85,-1.78,3.66,320.58,7639,0,82,-39.9273,-15.6896,-277.061,18806.3,26084.4,-3879.31,-403.854,-67.8779,0
38224,770,764.3,777.57,761.45,768.33,128.42,-956.54,358.89,3.1,1.67,3.39,312.25,7646,0,82,-44.1727,-16.9645,-267.338,18025.2,24397.7,-4036.6,-406.739,-67.4237,0
38259,770.18,764.38,777.77,761.63,768.49,140.62,-929.69,389.65,10.13,5.49,1.59,313.08,7653,0,82,-41.8908,-17.3443,-238.166,15777.8,21137.2,-3369.32,-409.25,-66.2467,0
