currTime,s1,s2,s3,s4,s,AccX,AccY,AccZ,GyroX,GyroY,GyroZ,GRF,Frame,SubFrame,Weight,Fx,Fy,Fz,Mx,My,Mz,Cx,Cy,Cz
14226,789.47,762.3,759.07,759.11,767.49,12.21,-951.66,532.23,82.73,-32.03,-32.07,-165,2846,0,82,-7.9512,-1.29681,-61.747,7275.2,-3835.16,-536.745,-62.1167,-117.807,0
14263,798.05,764.45,759.5,760.56,770.64,-86.43,-811.52,621.09,26.01,-4.95,-10.5,-222.42,2854,0,82,15.4209,-0.210912,-194.237,21123.4,-8551.86,2118.02,-44.0269,-108.762,0
14299,800.24,767.5,760.02,762.43,772.55,-67.38,-838.87,559.08,9.74,6.01,-14.34,-269,2861,0,82,32.8766,-5.69423,-304.134,29552,-11896.8,4218.87,-39.1175,-97.1708,0
14336,802.55,771.45,760.73,764.56,774.82,-37.11,-885.74,480.96,6.1,4.44,-12,-322.16,2868,0,82,41.281,3.67566,-342.282,29988.1,-12198.5,4464.78,-35.6396,-87.6138,0
14372,805.3,773.84,761.37,766.29,776.7,-18.07,-868.65,547.85,1.49,5.2,-2.88,-360.17,2875,0,82,53.0106,7.51232,-392.191,30538.6,-12667.3,4617.86,-32.2997,-77.869,0
14408,807.2,774.77,761.52,767.23,777.68,-40.04,-864.75,546.87,-3.38,2.03,-0.07,-384.19,2883,0,82,63.4185,9.0421,-457.513,32123.5,-13864.5,4740.23,-30.304,-70.2142,0
14446,806.28,775.67,761.77,768.15,777.97,-24.41,-858.89,558.59,-4.44,1.11,-5.31,-395.64,2890,0,82,65.0102,4.43666,-497.732,33407.9,-14826.1,5022.22,-29.7873,-67.1203,0
14482,807.82,776.86,762.13,769.15,778.99,-27.34,-851.56,541.02,-5.71,1.24,-0.98,-416.41,2897,0,82,64.4458,-0.57107,-511.728,33640.1,-15039.4,5201.72,-29.3895,-65.7383,0
14518,816.05,778.95,762.67,770.39,782.01,-23.93,-884.77,515.14,2.21,-0.59,-1.8,-466.11,2905,0,82,66.4557,0.26309,-517.94,32258.1,-14484.7,5558.94,-27.9662,-62.2816,0
14555,826.91,780.76,763.12,772.02,785.7,-53.71,-886.72,527.83,1.02,2.52,0.11,-530.65,2912,0,82,81.3373,-3.13806,-581.987,36586.1,-15889.2,7096.33,-27.302,-62.8637,0
14591,831.42,782.04,763.6,773.6,787.66,-25.88,-870.61,549.8,1.82,-1.32,-1.51,-567.72,2919,0,82,98.756,-8.47462,-678.828,44203.7,-18674,8647.93,-27.509,-65.117,0
14629,829.8,782.75,764.01,774.63,787.8,-31.74,-893.55,535.64,1.06,0.27,-2.48,-572.96,2927,0,82,109.379,-10.6682,-769.663,50117.4,-21467.1,9850.97,-27.8914,-65.1162,0
14665,826.53,782.79,764.15,774.83,787.07,-26.37,-866.21,552.25,-0.57,-1.28,-2,-561.49,2934,0,82,110.481,-8.96267,-798.402,49846.8,-22366.3,9745.18,-28.0138,-62.4332,0
14701,823.79,782.49,764.21,775.12,786.41,-29.79,-875,558.59,0.85,0.98,-3.04,-552.3,2941,0,82,105.516,-4.6471,-788.196,46640.6,-22140.1,8862.34,-28.0896,-59.1738,0
14737,819.97,782.38,764.27,775.35,785.49,-39.55,-868.65,545.9,-0.03,-3.78,-0.53,-540.35,2948,0,82,99.8047,-4.20148,-762.493,43320.4,-21615.7,8219.56,-28.3487,-56.8141,0
14773,816.69,782.17,764.34,775.4,784.65,-20.02,-860.35,563.96,-1.52,-2.77,-0.52,-526.34,2956,0,82,95.378,-3.21379,-732.338,39908.4,-20788.4,7616.88,-28.3863,-54.4942,0
14810,811.42,782.22,764.54,775.95,783.53,-36.13,-871.09,529.3,-3.41,-0.63,-2.56,-511.77,2963,0,82,88.5344,-1.90788,-704.054,36476,-20199.3,7188.91,-28.69,-51.8084,0
14848,803.77,782.93,765.05,777.46,782.3,-24.9,-869.63,548.83,-3.86,-0.5,-4.68,-500.67,2971,0,82,85.2894,-2.42114,-666.696,32575.1,-18915.8,6559.12,-28.3724,-48.8601,0
14884,796.68,783.52,765.56,778.33,781.02,-24.41,-883.3,540.04,-8.34,-1.6,-0.82,-481.13,2978,0,82,79.127,3.19596,-626.538,26687.1,-17391.9,5444.27,-27.7586,-42.5938,0
14920,790.91,783.15,765.51,777.46,779.26,-17.09,-864.75,541.5,-10.6,2.44,-2.83,-446.91,2985,0,82,74.2413,10.6084,-600.175,20769.6,-16013.7,4422.47,-26.6817,-34.6052,0
14957,785.62,781.06,764.4,773.24,776.08,-35.16,-922.36,501.95,-14.88,-0.57,-0.98,-377.38,2992,0,82,69.9513,16.7552,-562.945,15594.5,-14433.8,3398.52,-25.6397,-27.7007,0
14993,778.52,777.23,762.61,767.08,771.36,-9.28,-854.49,548.83,-22.31,1.94,2.02,-276.29,3000,0,82,62.1517,14.9001,-497.053,11693.5,-12213.7,2776.64,-24.5721,-23.5252,0
15029,770.98,770.3,760.34,761.72,765.83,-45.41,-935.06,419.43,-51.5,9.71,11.07,-172.45,3007,0,82,44.6736,1.78662,-373.736,8652.27,-8654.12,2319.39,-23.1548,-23.1522,0
15068,763.42,764.48,759.36,759.64,761.72,-10.74,-937.5,401.37,-61.66,14.83,11.11,-93.77,3015,0,82,23.429,-19.7808,-208.967,6131.99,-4220.08,2098.75,-20.1919,-29.3572,0
15104,757.37,763,759.39,759.78,759.88,437.5,-933.11,364.75,-27.76,14.97,-10.97,-62.29,3022,0,82,1.58749,-34.0356,-96.2666,4534.52,-2198.8,1525.44,-22.8463,-47.124,0
15140,755.22,764,759.53,761.02,759.94,-422.36,-881.35,375,2.58,36.74,-20.71,-77.87,3029,0,82,-5.55023,-21.4859,-41.899,1684.27,-980.788,389.502,-23.3898,-40.1437,0
15176,756.02,766.04,760.09,763.43,761.4,-165.53,-688.96,643.55,59.37,-20.5,-24.06,-118.35,3036,0,82,-4.48882,-16.8812,-32.4978,-40.2419,-494.017,456.164,-15.2005,1.22587,0
15212,758.54,769.66,761.26,766.5,763.99,-51.76,-835.45,546.39,19.24,-0.11,9.13,-172.31,3043,0,82,-7.65579,-22.4689,-53.6849,271.627,-1109.74,-70.3171,-20.657,-5.02248,0
15249,767.29,773.28,761.86,768.39,767.71,-66.89,-992.68,365.23,64.38,-8.56,4.18,-244.1,3051,0,82,-0.190203,0.700525,-110.644,1243.71,-2875.66,-927.926,-25.9929,-11.2184,0
15288,778.63,774.22,761.79,768.22,770.72,-35.16,-859.86,528.32,24.01,5.33,0.36,-289.81,3059,0,82,19.0986,4.66561,-219.647,6642.07,-6327.25,-160.101,-28.8018,-30.2164,0
15324,785.65,773.79,761.55,766.84,771.96,-35.64,-822.27,563.48,4.27,6.12,-1.17,-296.29,3066,0,82,35.2098,1.4224,-334.818,16642.6,-11101.9,741.145,-33.1572,-49.7005,0
15360,792.8,773.54,761.26,765.63,773.31,-43.46,-883.3,500.49,-4.83,5.43,-1.69,-307.98,3073,0,82,37.0029,0.287028,-380.606,22793.1,-13695.5,1107.05,-35.9833,-59.8852,0
15397,798.73,773.67,761.29,765.21,774.73,-37.11,-876.95,524.9,-5.58,5.4,-2.29,-322.46,3080,0,82,43.0929,-7.33572,-399.32,27749.8,-14642.3,1870.23,-36.6681,-69.4917,0
15433,803.77,774.23,761.24,765.26,776.12,-62.01,-895.51,512.21,-3.95,4.56,0.02,-346.33,3088,0,82,50.1696,-13.0921,-417.354,32653.5,-15395,2733.46,-36.887,-78.2386,0
15471,808.04,774.88,761.34,765.59,777.46,-35.16,-871.58,525.88,-4.14,0.63,-0.08,-368.54,3095,0,82,55.4819,-16.0676,-443.539,36042.4,-16110.9,2989.13,-36.3236,-81.2603,0
15507,808.67,775.72,761.52,765.89,777.95,-48.34,-892.58,525.88,-0.7,1.16,-2.56,-377.39,3102,0,82,58.9518,-19.8942,-477.592,39565.1,-17417.1,3504.87,-36.4686,-82.8426,0
15544,807.83,776.34,761.65,766.49,778.08,-52.73,-890.62,515.14,0.39,-2.21,-1.58,-384.94,3110,0,82,60.5479,-20.8102,-494.701,40677.3,-17813.3,3293.52,-36.0082,-82.2261,0
15580,806.07,776.68,761.76,766.85,777.84,-37.6,-869.63,523.44,-2.51,0.56,-2.92,-384.18,3117,0,82,61.4297,-18.2841,-495.476,39559.4,-17356.7,3274.18,-35.0304,-79.8413,0
15616,804.58,776.79,761.91,767.08,777.59,-31.74,-880.86,520.51,0.62,-2.35,-2.65,-379.62,3124,0,82,60.1382,-12.2961,-492.403,37777.1,-16909.6,3126.5,-34.341,-76.7198,0
15652,804.09,776.87,761.89,767.11,777.49,-49.32,-885.25,514.16,-0.43,1.71,-1.17,-379.65,3131,0,82,58.12,-7.41535,-481.262,35575.4,-16274.2,2643.37,-33.8157,-73.921,0
15691,803.92,777.06,761.89,767.19,777.52,-39.06,-877.44,519.53,-0.57,1.95,-1.19,-381.58,3139,0,82,55.7529,-5.66011,-474.05,34464.6,-15987.8,2547.6,-33.7261,-72.7024,0
15727,803.58,777.2,761.92,767.2,777.47,-31.74,-885.74,530.27,0.31,3,-1.44,-381.02,3146,0,82,54.6543,-6.40688,-473.601,34214.2,-15960.9,2254.54,-33.7011,-72.2426,0
15763,802.59,777.44,761.89,767.28,777.3,-32.71,-890.14,512.7,-2.41,0.34,-2.7,-381.47,3154,0,82,54.2124,-8.44178,-473.279,34108.3,-15963.1,2099.69,-33.7287,-72.0679,0
15799,801.36,777.52,762.02,767.54,777.11,-48.83,-884.77,504.88,-1.57,-0.73,-2.12,-378.51,3161,0,82,53.1113,-9.62186,-470.016,33437.3,-15792.3,1954.82,-33.5996,-71.1408,0
15835,799.58,777.54,762.02,767.55,776.67,-40.04,-876.46,518.07,-1.31,1.39,-0.64,-372.88,3168,0,82,51.5451,-10.3367,-461.114,32332.4,-15404.5,1810.47,-33.4071,-70.118,0
15870,797.83,777.45,762.04,767.65,776.24,-29.79,-893.07,518.55,-1.15,1.49,-2.38,-367.12,3175,0,82,49.9624,-8.99317,-453.857,30781.2,-15047.7,1435.27,-33.1551,-67.8212,0
15909,796.26,777.42,762.06,767.92,775.92,-42.97,-880.86,508.3,-2.2,-1.26,-0.99,-364.92,3183,0,82,47.7735,-8.40887,-439.172,28927.3,-14488.4,1272.88,-32.9903,-65.8677,0
15945,794.71,777.59,762.15,768.11,775.64,-31.25,-885.25,509.28,-1.24,-1.91,0.02,-361.41,3190,0,82,45.6087,-7.23915,-428.937,27455.5,-14045.2,954.025,-32.7442,-64.0081,0
15981,793.33,777.71,762.21,768.28,775.38,-40.04,-885.74,517.58,-2.16,0.1,-3.48,-358.82,3197,0,82,44.864,-5.95814,-422.355,26209.1,-13761.1,777.479,-32.5819,-62.0547,0
16017,792.34,777.86,762.24,768.44,775.22,-37.6,-892.58,506.84,-0.59,-0.72,-1.65,-358.16,3204,0,82,43.9386,-5.30925,-416.78,25213.4,-13449.3,630.378,-32.2695,-60.4955,0
16054,791.21,778.12,762.32,768.6,775.06,-35.64,-886.72,511.23,-0.44,0.89,-1.99,-356.72,3212,0,82,44.2304,-4.48568,-412.012,24071,-13225.4,349.712,-32.0996,-58.423,0
16090,790.42,778.23,762.38,768.67,774.92,-35.64,-880.86,505.86,-0.41,-1.19,-0.13,-354.48,3219,0,82,43.8147,-3.92422,-408.428,23286.5,-12969.6,132.83,-31.755,-57.015,0
16129,789.9,778.23,762.42,768.86,774.85,-38.57,-877.44,514.65,-0.34,-0.74,1.31,-354.42,3227,0,82,44.1467,-3.25327,-405.605,22597.8,-12743.6,138.955,-31.4188,-55.714,0
16165,789.24,778.5,762.54,769.01,774.82,-41.5,-896.48,519.53,-2.1,3.37,-1.24,-353.47,3234,0,82,43.9457,-3.0661,-403.062,22106.2,-12665.3,60.0034,-31.4226,-54.8455,0
16202,788.66,778.79,762.5,769.19,774.78,-47.36,-883.3,516.11,-0.91,0.54,-0.18,-357.43,3241,0,82,43.7164,-2.88638,-402.428,21824.9,-12680.8,51.9462,-31.5108,-54.2331,0
16238,788.08,778.84,762.66,769.38,774.74,-37.11,-889.16,514.65,-1.09,-0.38,-2.64,-354.66,3249,0,82,44.0565,-2.66495,-402.137,21190.1,-12467.1,-69.8333,-31.0023,-52.6939,0
16274,787.89,778.93,762.71,769.36,774.72,-33.2,-887.21,517.09,-0.21,-1.09,-2.12,-353.21,3256,0,82,44.6321,-2.52871,-401.63,20774.2,-12346.1,-234.894,-30.74,-51.7248,0
16313,787.6,779.17,762.72,769.49,774.74,-41.5,-879.88,522.95,-1.02,-1.36,-1.44,-355.97,3264,0,82,44.9676,-1.95241,-402.437,20535,-12252.3,-358.649,-30.4453,-51.0265,0
16350,787.39,779.17,762.73,769.47,774.69,-18.55,-877.93,517.09,-1.46,-1.12,-0.36,-354.63,3271,0,82,45.1854,-1.30394,-403.103,20391.5,-12304.6,-340.086,-30.5246,-50.5864,0
16386,787.5,779.11,762.72,769.45,774.69,-24.41,-883.3,523.44,-0.7,1.71,-2.92,-354.49,3278,0,82,45.4204,-0.544688,-402.614,20169.7,-12115.3,-283.521,-30.0917,-50.097,0
16422,787.69,779.02,762.62,769.3,774.66,-30.27,-879.88,517.58,0.98,-0.37,-0.45,-354.53,3285,0,82,45.5195,-0.876357,-403.253,20366.1,-12229.9,-355.179,-30.3281,-50.5046,0
16458,788.03,778.75,762.6,769.15,774.63,-35.16,-896,519.53,0.64,-1.52,0.16,-351.99,3293,0,82,45.3977,-1.14744,-402.478,20628.1,-12240.3,-147.119,-30.4125,-51.2527,0
16494,788.73,778.57,762.56,768.88,774.69,-39.55,-881.84,510.74,2.3,1,1.93,-349.85,3300,0,82,45.9928,-1.4946,-403.073,21025,-12406.1,-36.3937,-30.7789,-52.162,0
16533,789.57,778.17,762.39,768.54,774.67,-37.11,-877.44,505.86,0.97,0.84,1.16,-348.76,3308,0,82,46.1645,-1.53084,-404.999,21712.6,-12604.6,60.3866,-31.1224,-53.6116,0
16570,790.97,777.47,762.21,767.82,774.62,-32.23,-887.7,522.95,3.24,-2.15,0.69,-341.82,3315,0,82,45.7731,-1.50251,-404.798,22486.1,-12893.9,-15.39,-31.8528,-55.5491,0
16606,793.07,776.7,761.99,767.31,774.77,-43.95,-884.77,503.42,0.16,0.5,2.09,-340.87,3322,0,82,45.4909,-2.11375,-403.959,23668.5,-13132.3,220.322,-32.5092,-58.5914,0
16642,794.68,776.18,761.89,766.8,774.89,-25.39,-886.72,522.95,-0.55,2.35,0.2,-337.18,3329,0,82,45.4209,-4.2329,-406.072,25450.1,-13667.8,484.568,-33.6585,-62.6738,0
16678,795.4,775.79,761.8,766.51,774.88,-21.97,-887.21,513.67,1.05,-1.42,-4.04,-334.55,3337,0,82,44.6031,-5.93505,-409.272,27474.1,-14350.9,721.363,-35.0644,-67.1293,0
16715,796.12,775.42,761.7,766.29,774.88,-31.74,-891.6,528.81,-0.61,-1.57,0.1,-333.34,3344,0,82,44.4548,-7.01278,-406.989,28264,-14478.9,1032.17,-35.5756,-69.4467,0
16753,797.04,775.14,761.64,765.99,774.95,-30.27,-876.95,521,1.63,0.11,0.09,-331.36,3352,0,82,43.7211,-6.58247,-404.449,28712.3,-14466,1005.36,-35.7671,-70.9912,0
16790,797.7,774.8,761.6,765.7,774.95,-45.41,-888.18,524.9,-0.4,1.95,0.46,-327.56,3359,0,82,44.0275,-6.70737,-406.237,29380.7,-14720,1104.77,-36.235,-72.3239,0
16826,798.43,774.37,761.5,765.52,774.96,-40.04,-887.7,514.16,1.02,-0.46,0.56,-326.44,3366,0,82,43.941,-7.11538,-406.155,29959.5,-14784.7,1216.19,-36.4015,-73.7636,0
16862,799.05,774.03,761.41,765.24,774.93,-29.79,-881.84,528.81,-1.26,-0.03,0.92,-323.92,3373,0,82,43.6623,-7.47634,-404.395,30589.2,-14929.9,1461.11,-36.919,-75.6419,0
16898,799.3,773.72,761.35,765.04,774.85,-42.97,-886.23,521.97,-0.68,-0.25,0.01,-320.89,3381,0,82,43.5632,-8.26163,-403.328,31105.2,-15064.8,1417.11,-37.3514,-77.1215,0
16935,799.05,773.35,761.29,764.9,774.65,-33.69,-891.11,522.95,-1.85,0.41,-0.24,-316.66,3388,0,82,43.1924,-8.46625,-402.537,31476.3,-15100.2,1605.59,-37.5127,-78.1947,0
16973,799.52,773.11,761.23,764.78,774.66,-35.16,-872.07,524.9,0.85,0.27,0.11,-316.02,3396,0,82,42.3997,-8.22849,-392.734,31019.7,-14748.1,1604.98,-37.5524,-78.984,0
17010,800.28,773.07,761.21,764.68,774.81,-41.02,-873.54,510.25,0.95,1.96,-0.86,-317.28,3403,0,82,42.1321,-7.76476,-389.338,30975,-14680,1758.7,-37.7051,-79.558,0
17046,801.32,772.88,761.2,764.66,775.02,-26.37,-877.44,506.84,0.3,0.54,-1.72,-319.17,3410,0,82,43.271,-7.45515,-393.751,31700.3,-14849.8,2076.25,-37.7137,-80.5084,0
17082,802.42,772.93,761.18,764.58,775.28,-47.85,-893.07,515.62,-0.38,-0.69,-0.17,-322.68,3417,0,82,44.8083,-7.80575,-400.055,32566.4,-15152.5,2176.7,-37.8761,-81.4047,0
17119,803.45,772.93,761.2,764.59,775.54,-32.23,-881.84,514.16,-0.05,1.11,-0.65,-325.82,3425,0,82,46.2878,-8.1449,-407.009,33593.6,-15397.5,2382.75,-37.831,-82.5376,0
17158,804.27,773.01,761.18,764.63,775.77,-48.83,-887.21,527.34,-2.13,2.11,0.56,-330.45,3433,0,82,47.4946,-8.62129,-414.91,34498.5,-15746.8,2512.87,-37.9524,-83.1469,0
17194,804.82,773.01,761.26,764.52,775.9,-38.57,-892.58,515.14,0.69,1.56,0.7,-328.82,3440,0,82,47.7159,-8.89903,-420.694,35183,-15981.4,2559.04,-37.9881,-83.6308,0
17230,805.28,773.11,761.19,764.6,776.05,-52.25,-888.18,528.81,-2.04,-0.85,0.61,-334.05,3447,0,82,47.7245,-9.25333,-424.232,35655.9,-16051.7,2649.01,-37.8372,-84.0483,0
17266,805.38,773.13,761.25,764.54,776.07,-38.57,-868.65,519.04,0.46,-0.48,1.11,-332.07,3454,0,82,47.9039,-9.51627,-428.437,36070.9,-16316.4,2646.23,-38.0835,-84.1918,0
17302,805.43,773.15,761.12,764.6,776.08,-40.04,-877.44,531.74,-2.05,-1.74,-0.25,-336.79,3461,0,82,47.8169,-9.51337,-429.373,36143.1,-16283.7,2569.93,-37.9244,-84.1763,0
17338,805.23,773.38,761.22,764.83,776.16,-49.8,-890.14,523.93,-0.09,0.09,-1.08,-338.46,3469,0,82,47.5373,-9.29798,-429.169,36145.2,-16279.2,2523.47,-37.9319,-84.2213,0
17377,804.23,773.68,761.34,765.22,776.12,-36.13,-887.7,515.62,-0.63,0.37,-1.73,-340.42,3476,0,82,47.6926,-9.24317,-429.695,36038.9,-16399.6,2322.76,-38.1656,-83.8708,0
17413,803.01,774.07,761.42,765.56,776.01,-37.11,-893.07,521,-1.9,0.15,-0.94,-342.32,3484,0,82,47.7682,-7.96938,-430.763,35205.3,-16202.1,2195.78,-37.6126,-81.7278,0
17449,802.06,774.39,761.46,765.79,775.93,-44.43,-891.6,520.51,-1.11,-2.06,0.47,-343.94,3491,0,82,47.2541,-7.12817,-428.961,34059.3,-15939,1986.97,-37.1572,-79.3994,0
17485,801.1,774.58,761.58,765.91,775.79,-39.06,-871.58,525.39,-2.37,1.89,-3.3,-341.08,3498,0,82,47.4235,-6.10649,-428.018,32890.6,-15750.6,1755.64,-36.7989,-76.844,0
17521,800.59,774.67,761.55,765.96,775.69,-34.18,-885.74,521,2.01,1.19,-0.92,-341.34,3505,0,82,46.9473,-5.37912,-426.564,32036.5,-15584.1,1586.91,-36.5341,-75.1036,0
17557,800.41,774.66,761.61,766.01,775.67,-32.23,-876.95,517.09,-0.12,1.18,0.82,-340,3512,0,82,46.4666,-4.95212,-424.454,31330,-15372.9,1336.31,-36.2182,-73.8125,0
17595,800.21,774.62,761.53,765.95,775.58,-46.39,-883.79,526.86,1.31,-1.27,-1.45,-340.09,3520,0,82,45.5341,-5.05384,-422.19,31051.1,-15336.1,1363.91,-36.3251,-73.5478,0
17632,800.08,774.56,761.58,765.81,775.51,-30.27,-879.88,522.95,0.27,1.31,0.26,-335.96,3527,0,82,45.454,-5.52064,-419.995,30900.1,-15332.5,1209.69,-36.5064,-73.5726,0
17668,800.01,774.46,761.46,765.74,775.42,-41.99,-887.7,517.09,-0.21,2.52,1.04,-336.82,3535,0,82,45.0804,-5.41146,-417.051,30592.5,-15235.4,1069.03,-36.5312,-73.3543,0
17704,800.23,774.26,761.54,765.59,775.4,-42.48,-874.02,521.48,-0.06,0.02,0.86,-331.73,3542,0,82,44.5851,-5.87869,-414.087,30498.2,-15121.6,1114.88,-36.5179,-73.6516,0
17740,800.2,774.09,761.47,765.61,775.34,-36.13,-895.02,514.16,0.26,2.83,0.61,-332.36,3549,0,82,44.0609,-5.90597,-412.487,30738.6,-15215.2,1110.13,-36.8865,-74.5202,0
17777,799.91,774.13,761.47,765.58,775.27,-34.67,-895.51,526.37,-0.37,-2.07,1.65,-331.38,3556,0,82,44.3952,-5.98445,-410.898,30850.9,-15228.5,1113.27,-37.0614,-75.0816,0
17816,799.71,774.16,761.46,765.63,775.24,-20.02,-887.21,515.62,-1.6,-0.16,-0.76,-331.85,3564,0,82,43.9003,-6.22087,-408.909,30655.6,-15190,1171.35,-37.1475,-74.9692,0
17852,799.37,774.19,761.52,765.76,775.21,-40.53,-885.74,513.67,0.8,-0.79,-0.66,-331.37,3571,0,82,43.8088,-5.87897,-406.68,30470.7,-15122.7,1055.32,-37.1858,-74.9255,0
17888,799,774.27,761.47,765.81,775.14,-48.34,-887.21,522.95,0.58,0.2,1.15,-332.64,3579,0,82,44.0848,-5.91402,-406.644,30212.5,-15067.8,1180.02,-37.0541,-74.2972,0
17924,798.44,774.31,761.59,765.88,775.05,-41.02,-885.74,520.51,-2.32,0.51,-1.24,-328.98,3586,0,82,43.6842,-5.6459,-405.545,29805.3,-14992.2,1106.49,-36.968,-73.4944,0
17961,798.09,774.42,761.62,765.97,775.02,-37.11,-886.72,511.72,-0.68,0.23,-0.72,-329.22,3593,0,82,43.6009,-5.83666,-403.621,29317.3,-14822.3,1022.88,-36.7233,-72.6357,0
17997,797.85,774.51,761.6,766.05,775,-40.53,-878.42,525.39,-0.15,2.15,-2.13,-330.98,3600,0,82,43.4043,-5.33308,-402.185,28955,-14791,941.958,-36.7766,-71.9942,0
18036,797.7,774.64,761.61,766.06,775,-53.71,-888.18,512.7,0.58,1.7,-1.47,-331.34,3608,0,82,43.1655,-5.28888,-401.417,28611.8,-14710,849.518,-36.6451,-71.2769,0
18072,797.29,774.69,761.65,766.17,774.95,-35.64,-881.35,526.37,-1.17,2.34,0.4,-330.93,3615,0,82,43.1527,-5.09662,-402.168,28535.5,-14724.1,813.569,-36.612,-70.9543,0
18108,796.98,774.83,761.69,766.28,774.95,-47.85,-879.88,529.3,-1.47,0.84,0.57,-331.51,3623,0,82,42.9371,-5.02863,-402.619,28333.1,-14637.1,652.036,-36.3546,-70.3719,0
18145,796.5,775.01,761.67,766.41,774.9,-38.09,-884.28,531.25,-0.11,0.66,-0.81,-333.65,3630,0,82,43.2359,-5.09323,-401.346,27920.9,-14550.2,533.296,-36.2534,-69.5681,0
18181,796.04,775.18,761.75,766.55,774.88,-34.18,-887.21,512.21,-1.25,0.78,-0.21,-333.66,3637,0,82,43.5842,-4.68073,-401.593,27584.1,-14510.9,477.272,-36.1334,-68.6868,0
18220,795.57,775.29,761.83,766.73,774.85,-48.34,-879.88,509.28,-0.09,-1.1,-1.4,-333.66,3645,0,82,43.2866,-4.18139,-401.936,27164.8,-14449.2,440.833,-35.949,-67.585,0
18256,795.02,775.39,761.84,766.89,774.79,-40.53,-874.51,512.21,0.05,0.18,-1.67,-334.69,3652,0,82,43.5972,-3.9854,-400.538,26837,-14355.2,504.211,-35.8399,-67.0024,0
18293,794.8,775.53,761.93,766.95,774.8,-34.18,-882.32,525.88,0.96,2.32,-0.75,-333.44,3660,0,82,43.6592,-3.66258,-400.97,26417.4,-14232.1,375.575,-35.4942,-65.8836,0
18329,794.5,775.64,761.85,766.97,774.74,-46.88,-884.77,519.53,-0.4,-1.81,-1.91,-335.6,3667,0,82,43.4015,-3.54107,-401.487,26143.6,-14274.9,340.433,-35.555,-65.117,0
18365,794.3,775.63,761.93,767,774.71,-34.67,-888.67,512.21,0.11,-1.79,-2.25,-333.51,3674,0,82,43.7809,-3.22825,-400.756,25977.1,-14229.9,296.152,-35.5077,-64.8202,0
18401,794.2,775.67,761.83,767.06,774.69,-47.36,-878.91,517.58,0.12,0.72,0.8,-336.86,3681,0,82,43.7248,-3.31957,-401.554,25849.1,-14200.2,330.04,-35.3631,-64.3726,0
18440,794.09,775.74,761.95,767.15,774.73,-38.09,-878.91,524.41,-1.88,1.09,1.33,-335.36,3689,0,82,43.7436,-3.14677,-401.095,25717,-14163.2,302.113,-35.3114,-64.1171,0
18476,793.98,775.77,762.01,767.13,774.72,-42.97,-886.72,529.79,0.53,-0.7,-0.15,-333.26,3696,0,82,44.1997,-2.85911,-401.97,25690.1,-14140.9,190.704,-35.1791,-63.9105,0
18513,793.98,775.86,761.92,767.15,774.73,-36.13,-880.86,522.46,0.1,0.22,0.15,-336.59,3704,0,82,44.1641,-3.13723,-402.27,25602.5,-14124.5,93.4215,-35.1119,-63.6452,0
18549,793.9,775.93,762.01,767.26,774.77,-43.95,-878.42,512.7,-1.85,0.91,-1.41,-336.39,3711,0,82,44.1219,-3.19437,-403.263,25661.5,-14189.2,214.123,-35.1859,-63.6346,0
18585,793.91,775.98,761.97,767.19,774.76,-42.97,-885.25,518.07,-1.15,0.98,0.94,-336.76,3718,0,82,44.3069,-3.16364,-403.532,25533.3,-14131.9,187.644,-35.0204,-63.2744,0
18621,793.77,775.97,762.02,767.31,774.77,-50.78,-879.88,526.86,-1.37,0.89,-1.34,-336.71,3725,0,82,44.3131,-3.24738,-403.619,25517.9,-14133.5,234.836,-35.0168,-63.2227,0
18660,793.58,776.07,761.94,767.33,774.73,-41.99,-881.35,521.48,-2.1,0.93,-2.98,-339.05,3733,0,82,44.3869,-3.29109,-403.781,25448.2,-14072.3,307.693,-34.8513,-63.0248,0
18697,793.34,776.13,761.96,767.46,774.72,-32.23,-876.95,515.14,-0.7,-0.31,-1.63,-340.22,3740,0,82,44.3111,-3.23577,-404.637,25373.8,-14093.3,339.084,-34.8295,-62.7077,0
18733,793.19,776.16,762.06,767.49,774.73,-42.48,-880.37,508.3,-0.56,1.89,-1.36,-337.75,3748,0,82,44.205,-3.26283,-403.472,25133.1,-14052.3,246.185,-34.8284,-62.292,0
18769,793.13,776.17,762.02,767.46,774.69,-31.25,-880.37,510.25,1.46,-0.6,-0.13,-338.26,3755,0,82,44.335,-3.02076,-403.173,25005.7,-13993.3,117.559,-34.708,-62.0222,0
18806,793.02,776.23,762.07,767.52,774.71,-32.23,-886.72,510.74,-0.98,-0.9,2.7,-337.96,3762,0,82,44.2416,-3.16651,-403.467,24940.8,-14031.4,-33.47,-34.7771,-61.8164,0
18842,792.96,776.22,762.13,767.46,774.69,-30.27,-868.16,513.18,0.22,-1.69,-1.16,-335.28,3769,0,82,44.5979,-3.14007,-404.174,24976.4,-13987,-75.2955,-34.6065,-61.7963,0
18881,792.65,776.2,762.04,767.6,774.62,-35.16,-888.67,512.21,0.02,0.48,-1.16,-338.25,3777,0,82,44.7687,-2.9194,-404.638,24838.6,-13967,25.2589,-34.5173,-61.3848,0
18917,792.53,776.23,762.05,767.68,774.62,-41.02,-887.21,511.23,-1.63,1.97,0.02,-339.16,3784,0,82,44.5654,-2.73,-403.08,24781.5,-14017.6,-5.0766,-34.7761,-61.4803,0
18953,792.5,776.22,762.14,767.65,774.63,-34.67,-887.7,513.18,-0.96,-0.95,-1.59,-336.15,3792,0,82,44.5187,-2.81135,-402.574,24572,-13919.4,-180.663,-34.576,-61.0371,0
18989,792.49,776.23,762.12,767.66,774.62,-33.2,-889.65,516.6,-0.69,-0.45,1.04,-337.11,3799,0,82,44.4051,-2.74855,-402.238,24506.7,-13942.8,-39.6606,-34.663,-60.9258,0
19025,792.47,776.21,762.1,767.68,774.62,-32.71,-877.44,511.72,0.57,0.58,1.18,-337.58,3806,0,82,44.193,-2.56628,-403.094,24548.5,-13938.5,-9.79023,-34.5789,-60.9001,0
19064,792.44,776.26,762.16,767.68,774.64,-36.62,-876.95,522.46,-0.22,-2.06,-0.21,-336.52,3814,0,82,44.4457,-2.53902,-402.939,24547.1,-14005.5,46.7656,-34.7583,-60.9202,0
19101,792.3,776.32,762.19,767.66,774.62,-30.76,-887.7,509.77,-0.89,0.31,-1.21,-335.46,3821,0,82,44.3319,-2.317,-403.266,24482.1,-13946.4,10.3778,-34.5835,-60.7095,0
19137,792.24,776.35,762.12,767.77,774.62,-38.57,-883.3,521,0.44,1.6,-1.43,-338.74,3828,0,82,44.1353,-2.51934,-403.516,24494.8,-13940.2,-51.4865,-34.5469,-60.7034,0
19173,792.01,776.38,762.16,767.76,774.58,-46.39,-883.79,520.51,0.77,-1.24,-0.08,-337.21,3836,0,82,43.9792,-2.67725,-402.5,24420.1,-13936.9,77.4593,-34.6259,-60.671,0
19209,791.99,776.36,762.21,767.76,774.58,-36.62,-886.23,515.14,-1.32,-1,-1.45,-335.59,3843,0,82,44.4102,-2.41734,-401.422,24147.8,-13886.1,59.0736,-34.5924,-60.1557,0
19245,792.06,776.4,762.2,767.84,774.62,-50.78,-888.18,518.55,-1.42,1.03,-0.55,-337.62,3850,0,82,43.9511,-2.39566,-401.76,24079.4,-13843,20.8748,-34.456,-59.9349,0
19284,792.09,776.41,762.16,767.83,774.62,-34.18,-896.48,531.74,0.8,-0.31,-1.26,-338.56,3858,0,82,44.0098,-2.69562,-403.393,24209.2,-13890,11.9707,-34.433,-60.0139,0
19320,792.22,776.38,762.24,767.81,774.66,-34.18,-878.91,512.21,0.91,0.03,-0.44,-336.52,3865,0,82,44.5658,-2.46985,-404.931,24395.9,-13950.1,3.32149,-34.4506,-60.247,0
19356,792.21,776.33,762.13,767.74,774.6,-43.46,-880.37,524.9,-1.32,0.38,-2.83,-337.73,3872,0,82,44.5527,-2.69533,-404.675,24464.9,-13961.5,136.164,-34.5006,-60.4556,0
19393,792.26,776.32,762.2,767.74,774.63,-36.62,-870.12,532.71,1.16,0.11,-0.85,-336.04,3880,0,82,44.2021,-2.68889,-404.906,24524,-14033.6,-12.1565,-34.659,-60.567,0
19429,792.28,776.33,762.15,767.78,774.64,-35.16,-875.49,520.02,1.17,0.41,-1.57,-337.97,3887,0,82,44.2346,-2.74249,-404.456,24603.3,-14061.8,-30.3033,-34.7673,-60.8305,0
19465,792.48,776.25,762.21,767.66,774.65,-41.99,-881.84,521.48,0.15,1.1,0.02,-334.78,3894,0,82,44.5544,-2.94594,-404.719,24677.4,-14041.6,40.4594,-34.6946,-60.9743,0
19504,792.62,776.13,762.1,767.58,774.61,-20.51,-872.07,511.23,-0.31,0.19,0.54,-336.14,3902,0,82,44.3038,-2.78981,-404.236,24754.7,-14094.5,76.9944,-34.8671,-61.2382,0
19541,792.77,776.05,762.04,767.54,774.6,-41.99,-884.77,521.48,-0.31,0.95,-3.47,-336.66,3909,0,82,44.1125,-2.85282,-404.637,24951.3,-14142.8,180.442,-34.9519,-61.6633,0
19577,792.94,776.05,762.07,767.51,774.64,-41.02,-870.12,521,-0.66,1.19,0.03,-336.06,3916,0,82,43.984,-3.14628,-404.059,25046.3,-14139.5,84.9273,-34.9937,-61.9866,0
19613,793.16,775.93,762.07,767.33,774.62,-36.62,-885.74,516.11,-0.03,1.68,-0.35,-333.33,3924,0,82,44.0721,-3.19853,-403.817,25311.2,-14163.2,111.072,-35.0733,-62.68,0
19650,793.26,775.73,762.05,767.22,774.57,-32.23,-883.3,508.79,-1.76,-2.57,3.31,-330.94,3931,0,82,44.1908,-3.68388,-403.684,25435.9,-14210.7,64.7941,-35.2025,-63.0095,0
19686,793.46,775.65,761.99,767.15,774.56,-36.62,-868.16,521.97,-1.21,-1.19,-0.74,-331.5,3938,0,82,44.4094,-4.00585,-403.465,25740.7,-14345.9,282.606,-35.5568,-63.7991,0
19725,793.66,775.64,761.95,767.04,774.57,-46.88,-883.3,511.23,-1.49,-1.28,-1.37,-331.47,3946,0,82,43.9765,-4.47116,-401.399,25812.6,-14387,273.93,-35.8421,-64.3067,0
19761,793.86,775.51,761.99,767.01,774.59,-35.16,-886.23,530.76,-0.53,-1.42,-3.88,-329.53,3953,0,82,43.4649,-4.41874,-401.191,26027.3,-14371.4,326.951,-35.8218,-64.8751,0
19798,793.96,775.57,761.96,766.94,774.61,-32.23,-885.74,516.6,-1.37,-1.03,-0.31,-330.17,3961,0,82,43.4725,-4.57381,-401.96,26258.4,-14412.4,391.292,-35.8553,-65.3259,0
19834,793.9,775.53,761.92,766.95,774.57,-32.71,-883.79,519.04,-0.88,-0.51,-0.39,-330.9,3968,0,82,43.8032,-5.17422,-401.519,26401.6,-14429.2,422.743,-35.9365,-65.7544,0
19870,793.86,775.52,761.97,766.93,774.57,-41.99,-871.09,512.21,-0.45,-3.95,-1.73,-329,3975,0,82,43.4205,-5.28506,-401.891,26494.2,-14469.9,316.918,-36.0046,-65.924,0
19909,793.97,775.47,761.94,766.94,774.58,-28.32,-881.35,517.09,-0.91,-0.31,0.06,-329.98,3983,0,82,43.5271,-4.662,-400.465,26431.4,-14411.4,376.755,-35.9866,-66.0017,0
19946,793.97,775.45,761.92,766.94,774.57,-26.86,-895.02,513.18,0.64,-0.38,1.6,-330.38,3990,0,82,42.9229,-4.60942,-399.942,26384.7,-14375,388.502,-35.9428,-65.9713,0
19982,794.15,775.45,761.94,766.89,774.61,-34.18,-876.95,517.09,-0.4,2.69,1.53,-329.72,3997,0,82,43.3203,-4.33719,-399.827,26394.6,-14439.1,314.385,-36.1134,-66.0151,0
20018,794.13,775.44,761.93,766.9,774.6,-34.18,-880.37,516.6,-0.31,-0.15,1.19,-330,4005,0,82,42.9364,-4.60252,-400.283,26411.4,-14385.1,472.995,-35.9374,-65.9818,0
20054,794.13,775.43,761.9,766.8,774.56,-29.3,-880.86,529.79,0.64,-0.47,-0.29,-329.14,4012,0,82,43.1849,-4.43302,-399.936,26408.9,-14400.9,272.819,-36.0079,-66.0328,0
20091,794.17,775.39,761.95,766.87,774.59,-46.39,-880.37,515.62,-1.28,1.59,0.18,-328.65,4019,0,82,43.317,-4.48803,-400.166,26427.8,-14384.1,475.117,-35.9454,-66.0421,0
20131,794.25,775.37,761.89,766.93,774.61,-34.67,-893.55,521,1.02,-1.15,-3.16,-330.96,4027,0,82,43.3074,-4.17076,-399.92,26424.3,-14371.2,364.196,-35.9352,-66.0739,0
20167,794.22,775.39,761.91,766.82,774.58,-45.9,-879.39,513.67,-0.08,-0.05,-1.14,-329.2,4034,0,82,43.0125,-4.06451,-400.287,26551.5,-14456.6,424.81,-36.1156,-66.3312,0
20203,794.23,775.38,761.89,766.77,774.57,-41.02,-862.79,525.39,-1.23,0.02,-0.25,-328.77,4042,0,82,42.9388,-3.67478,-399.064,26528.4,-14386.6,582.82,-36.0509,-66.4767,0
20239,794.42,775.28,761.89,766.89,774.62,-55.66,-890.62,530.27,0.02,0.08,-1.56,-330.34,4049,0,82,43.4451,-3.57822,-399.757,26478.2,-14443.6,495.755,-36.1308,-66.2357,0
20276,794.62,775.28,761.9,766.72,774.63,-32.23,-865.23,513.67,0.21,1.02,-0.72,-328.27,4056,0,82,43.3172,-3.81682,-400.103,26667.8,-14480,523.557,-36.1907,-66.6522,0
20312,794.86,775.1,761.86,766.58,774.6,-43.95,-880.37,531.25,-0.66,-3.44,0.85,-326.7,4063,0,82,43.781,-3.89691,-401.019,26876.2,-14585,594.561,-36.3699,-67.0198,0
20351,795,775.06,761.85,766.55,774.62,-38.09,-868.65,520.02,0.37,1.63,0.49,-326.52,4071,0,82,43.5083,-4.45968,-402.024,27111.8,-14690.2,617.648,-36.5407,-67.4382,0
20388,795.34,774.87,761.8,766.36,774.59,-39.55,-891.11,514.16,1.68,2.19,0.18,-324.76,4079,0,82,43.1936,-4.22266,-401.297,27378.8,-14708.6,718.626,-36.6527,-68.2259,0
20424,795.91,774.66,761.75,766.21,774.63,-44.92,-885.74,521.97,-1.52,-0.36,-1.93,-324.19,4086,0,82,43.2069,-4.13639,-400.604,27549.8,-14746.1,722.796,-36.8098,-68.7708,0
20460,796.49,774.5,761.75,766.06,774.7,-34.67,-884.77,515.62,-2.18,-0.01,0.53,-322.57,4093,0,82,43.2023,-4.36197,-399.999,28039.9,-14780.7,898.266,-36.9518,-70.1,0
20497,796.89,774.26,761.73,765.95,774.71,-39.55,-886.23,508.3,-0.27,-0.53,-0.63,-320.81,4100,0,82,43.0661,-5.03014,-400.114,28478.7,-14825.8,976.651,-37.0538,-71.1764,0
20533,797.31,774.09,761.63,765.74,774.69,-41.5,-894.04,512.7,1.56,2.32,2.05,-320.38,4108,0,82,43.5357,-5.74489,-401.293,29001.2,-14972.4,1087.23,-37.3105,-72.2694,0
20572,797.71,774.02,761.57,765.62,774.73,-37.6,-883.3,518.55,0.15,0,-1.02,-320.96,4115,0,82,43.264,-6.08829,-400.352,29329.4,-15043.7,1151.12,-37.5763,-73.2592,0
20608,798.18,773.91,761.54,765.46,774.77,-44.92,-870.61,515.14,0.98,2.63,-1.93,-320.03,4123,0,82,42.8388,-6.54006,-401.157,29771.5,-15120.5,1393.89,-37.6922,-74.2139,0
20644,798.61,773.74,761.5,765.33,774.79,-41.99,-882.32,521,-0.37,-0.73,-0.57,-319.1,4130,0,82,43.0972,-6.55177,-401.755,30098.3,-15241.3,1233.13,-37.9368,-74.917,0
20680,798.8,773.65,761.56,765.28,774.82,-39.55,-887.21,519.04,-0.26,2.07,0.58,-316.91,4137,0,82,42.9332,-6.68661,-401.04,30495,-15256.8,1306.55,-38.0431,-76.0397,0
20716,799.1,773.7,761.5,765.27,774.89,-41.02,-877.44,525.88,-2.85,-0.77,-1.12,-319.63,4144,0,82,42.95,-7.29405,-399.43,30581.2,-15106.5,1363.99,-37.8201,-76.5621,0
20752,799.34,773.62,761.49,765.31,774.94,-36.62,-888.18,518.55,1.15,-1.7,-2.5,-320.68,4151,0,82,43.0194,-7.45385,-399.829,30782.8,-15161.2,1399.72,-37.9192,-76.9897,0
20791,799.41,773.64,761.46,765.44,774.99,-38.57,-879.39,510.74,0.27,0.73,-3.64,-323.88,4159,0,82,43.0353,-8.10944,-404.129,31203,-15456.1,1514.28,-38.2454,-77.2105,0
20827,799.33,773.69,761.45,765.54,775,-37.11,-888.18,523.93,-1.5,0.34,0,-325.42,4166,0,82,43.5654,-8.42845,-407.279,31439.5,-15592,1704.97,-38.2834,-77.194,0
20864,799.11,773.64,761.53,765.51,774.95,-39.55,-881.35,526.86,-0.16,0.56,-1.09,-322.07,4174,0,82,43.4572,-7.55158,-408.619,31323.5,-15667.1,1574.06,-38.3416,-76.6571,0
20900,798.89,773.61,761.55,765.45,774.87,-34.18,-871.09,513.67,1.86,-0.18,0.34,-319.66,4181,0,82,43.4394,-7.3758,-407.915,31095.9,-15668.8,1530.5,-38.4119,-76.2314,0
20936,798.79,773.29,761.51,765.42,774.75,-41.5,-874.51,527.34,-1.2,-0.94,0.82,-317.38,4188,0,82,43.4754,-7.43579,-406.297,30830.2,-15620.5,1435.07,-38.4461,-75.8809,0
20974,799.13,773.25,761.56,765.55,774.88,-41.02,-887.21,527.83,0.7,0.34,-1.11,-318.81,4196,0,82,43.0752,-8.99184,-401.382,30421,-15386.5,1557.98,-38.3337,-75.7906,0
21011,799.29,773.32,761.49,765.65,774.94,-32.71,-880.37,532.71,1.82,-1.37,-2.34,-323,4203,0,82,43.3264,-11.2403,-403.65,30860.9,-15612.8,1931.95,-38.6791,-76.4548,0
21048,798.43,773.43,761.57,766.16,774.9,-40.53,-884.28,514.16,1.14,-1.79,2.21,-326.53,4211,0,82,43.2368,-12.7025,-409.079,31371.2,-16003.5,1872.42,-39.1208,-76.6873,0
21084,796.59,773.67,761.73,766.58,774.64,-38.09,-877.44,523.93,-1.11,0.44,-1.59,-324.46,4218,0,82,43.285,-13.3917,-409.111,31010.2,-16019,2018.08,-39.1557,-75.7991,0
21121,794.91,773.91,761.75,767.07,774.41,-44.43,-882.81,523.93,1.58,-1.02,1.47,-327.14,4225,0,82,42.9954,-11.8772,-404.533,29309.4,-15684.8,1727.12,-38.7726,-72.4522,0
21157,793.61,773.93,761.88,767.51,774.23,-27.83,-869.63,524.41,1.33,1.98,0.1,-326.29,4232,0,82,41.9341,-11.0712,-398.69,27576.3,-15363,1606.82,-38.5336,-69.167,0
21196,790.51,774.79,762.2,769.18,774.17,-53.22,-889.16,518.07,-2.6,-1.79,-2.84,-339.19,4240,0,82,41.3152,-12.0778,-393.769,25979.1,-14992.8,1590.07,-38.0751,-65.9754,0
21232,785.45,775.76,762.77,771.27,773.81,-56.64,-882.81,512.7,-5.99,0.27,-3.08,-346.01,4247,0,82,41.1348,-13.4401,-393.053,24715.9,-14867.7,1570.89,-37.8262,-62.8819,0
21269,779.47,776.92,763.6,773.92,773.48,-52.73,-887.7,523.44,-12.27,2.03,-4.66,-353.04,4255,0,82,40.8201,-9.83299,-390.123,20501.3,-14157,917.548,-36.2884,-52.5502,0
21305,773.58,777.81,764.72,776.59,773.18,-18.55,-891.11,492.68,-14.69,6.29,-7.6,-351.58,4262,0,82,40.2059,-6.26627,-380.601,15598.6,-13091.4,291.703,-34.3966,-40.9838,0
21341,769.52,778.44,765.74,778.93,773.16,-9.28,-891.6,527.34,-4.69,1.98,-9.08,-351.8,4269,0,82,40.6181,1.12247,-370.187,9865.1,-11771,-397.242,-31.7973,-26.6469,0
21378,767.66,779.04,766.41,780.28,773.35,-11.72,-863.28,514.16,0.11,0.92,-6.11,-353.23,4277,0,82,41.7958,11.0977,-366.104,4231.14,-10430.6,-1245.6,-28.491,-11.5576,0
21417,767.15,779.17,766.62,780.57,773.38,-2.44,-871.58,521.97,2.01,-0.32,0.85,-351.5,4284,0,82,44.1356,17.201,-374.889,1594.88,-10236.7,-1848.04,-27.3059,-4.25449,0
21453,767.55,779.14,766.43,780.04,773.29,-28.32,-887.21,511.23,2.44,-1.23,2.08,-349.45,4292,0,82,46.0527,17.2528,-388.273,610.759,-10442.2,-2153.72,-26.8939,-1.5729,0
21490,768.21,779.1,766.34,779.06,773.18,-20.02,-868.16,523.44,0.28,1.23,0.57,-339.48,4299,0,82,46.9335,13.6005,-395.923,1385.21,-10878.3,-1953.4,-27.4757,-3.49849,0
21526,769.1,779.14,765.95,777.81,773,-29.3,-906.25,531.25,-0.83,1.02,1.89,-333.94,4306,0,82,45.057,9.1089,-397.311,2686.02,-11327.7,-2009.22,-28.511,-6.76046,0
21562,770.42,779.31,765.69,776.7,773.03,-27.83,-880.86,520.51,1.44,0.69,0.85,-330.2,4313,0,82,44.8064,6.79134,-396.737,4194.73,-11471.8,-2221.68,-28.9153,-10.5731,0
21599,771.34,779.39,765.52,776.35,773.15,-19.04,-908.2,490.72,0.44,0.02,3.08,-333.1,4321,0,82,45.4505,4.8977,-394.676,6275.49,-11545.8,-2166.15,-29.254,-15.9004,0
21638,772.45,779.24,765.29,776.03,773.25,-19.04,-889.65,514.16,2.71,0.64,1.39,-336.55,4329,0,82,47.4326,-1.89699,-397.328,8272.77,-11635.6,-1701.63,-29.2847,-20.821,0
21674,772.89,778.88,765.21,776.08,773.27,-33.2,-910.64,503.91,1.48,1.62,1.91,-337.96,4336,0,82,48.1286,-5.85085,-409.989,10283.7,-12273.5,-1091.44,-29.9361,-25.0827,0
21710,772.6,778.9,765.37,776.4,773.32,-23.44,-905.27,514.65,-3.34,-1.97,-4.65,-337.87,4343,0,82,45.9024,-5.33519,-406.746,10677,-12374.8,-924.118,-30.4239,-26.2497,0
21747,771.43,778.77,765.48,776.68,773.09,-8.79,-875,529.3,-6.12,3.57,-1.39,-334.11,4350,0,82,44.625,-4.45609,-408.404,11037.8,-12618.6,-673.536,-30.8973,-27.0266,0
21783,770.72,778.7,765.62,776.93,772.99,-35.64,-905.76,512.7,-2.69,-2.61,-1.72,-331.35,4358,0,82,41.7306,1.56414,-397.473,8870.63,-12070.7,-1209.98,-30.3684,-22.3172,0
21819,769.98,778.13,765.67,776.84,772.66,-28.32,-913.09,519.53,-5.27,0.63,-2.52,-321.8,4365,0,82,40.5397,4.15543,-388.671,7563,-11651.1,-1299.3,-29.9767,-19.4586,0
21858,769,777.43,765.62,776.78,772.21,-17.09,-872.56,520.51,-3.48,1.94,-0.25,-312.95,4373,0,82,38.73,6.69168,-382.341,6197.59,-11408.1,-1546.28,-29.8374,-16.2095,0
21895,768.7,776.83,765.6,776.52,771.91,-20.02,-829.1,528.81,-4.08,1.97,-1.89,-303.84,4380,0,82,35.7289,6.57697,-366.052,5204.11,-11088.6,-1758.72,-30.2924,-14.2168,0
21931,768.79,776.55,765.54,776.33,771.8,-27.83,-925.78,486.82,-0.73,0.42,-1.5,-300.65,4387,0,82,34.5131,7.26083,-355.414,4088.51,-10614.4,-1897.13,-29.8647,-11.5033,0
21967,769.63,776.28,765.52,776.2,771.91,-38.57,-867.68,502.44,-2.46,1.05,-0.05,-299.96,4394,0,82,35.5195,6.31753,-352.416,4331.31,-10629.7,-1797.55,-30.1622,-12.2901,0
22004,770.27,776.09,765.4,775.63,771.85,-23.93,-863.28,514.65,-2.39,-1.07,-3.73,-295.16,4402,0,82,38.8875,6.44605,-363.066,5154.13,-11397.5,-1932.68,-31.3922,-14.1956,0
22044,771.02,775.88,765.38,775.42,771.92,-18.07,-860.35,515.14,-0.39,0.2,-0.87,-293.62,4410,0,82,42.2688,2.78751,-377.088,6662.89,-12236.5,-2020.21,-32.4501,-17.6694,0
22080,771.65,776.13,765.47,775.7,772.24,-34.18,-939.45,485.35,-6.37,-3.46,2.84,-299.52,4417,0,82,42.2044,2.5997,-378.971,7474.27,-12528.1,-2032.38,-33.0581,-19.7225,0
22116,772.86,776.04,765.33,775.36,772.4,-6.35,-856.45,528.81,-3.95,-2.49,5.15,-301.39,4424,0,82,42.6863,4.06189,-386.575,8339.33,-13005.5,-1900.39,-33.6427,-21.572,0
22153,774.1,775.76,765.08,774.6,772.39,-34.67,-949.22,453.61,-0.45,-5.33,0.95,-298.47,4432,0,82,42.7817,2.98482,-404.93,9308.39,-13719.7,-1330.71,-33.8815,-22.9872,0
22189,775.38,775.01,764.73,773.59,772.18,-36.62,-912.6,478.03,5.91,-1.92,3.15,-290.88,4439,0,82,42.8464,-3.40777,-416.849,11482.7,-14395.1,-777.589,-34.5331,-27.5463,0
22225,777.13,774.64,764.5,772.53,772.2,-6.35,-873.05,505.37,22.76,-4.54,2.93,-283.83,4446,0,82,37.4995,-6.04525,-412.454,12608.1,-14621.8,-550.427,-35.4507,-30.5687,0
22264,778.7,774.63,764.35,771.9,772.39,-23.93,-886.72,513.67,1.11,4.59,-2.66,-283.76,4454,0,82,33.9728,-8.94104,-406.462,14052,-14699.8,-305.479,-36.1652,-34.5714,0
22301,780.96,775.49,764.43,772.24,773.28,-62.5,-883.3,511.23,12.66,3.02,-2.37,-301.37,4461,0,82,33.2647,-16.0524,-414.574,16738.7,-15489.4,-193.177,-37.3622,-40.3762,0
22337,783.66,776.13,764.53,771.96,774.07,-11.23,-896.97,541.5,13.67,-0.27,-4.18,-309.2,4468,0,82,34.9933,-17.5068,-417.414,17329.3,-15443.6,-447.652,-36.9978,-41.5155,0
22373,784.57,776.75,764.71,772.31,774.59,-6.84,-934.08,497.07,19.58,-6.02,-3.72,-318,4476,0,82,40.0347,-17.3653,-470.686,21046.7,-17708.1,-841.333,-37.6219,-44.7148,0
22409,787.19,777.41,764.56,772.13,775.32,14.65,-859.86,599.61,21.64,-6.26,-2.82,-333.25,4483,0,82,41.8046,-20.0841,-478.81,21696.8,-18013.9,-1199,-37.6223,-45.3141,0
22445,785.49,777.47,764.49,772.04,774.87,-56.15,-956.54,489.26,-7.1,-6.27,-5.16,-328.33,4490,0,82,42.2487,-14.611,-505.227,23107.2,-19379,-1898.31,-38.357,-45.7359,0
22485,783.62,778.5,764.71,773.37,775.05,-17.58,-859.86,581.54,15.14,-1.18,-9.57,-344.35,4498,0,82,38.9334,-24.543,-508.08,24278.5,-19855.5,-1786.6,-39.0785,-47.7837,0
22520,782.53,778.84,764.71,774.85,775.23,-18.55,-899.9,572.27,-2.28,1,-6.45,-365.08,4505,0,82,38.9614,-21.6319,-463.291,19137.4,-17525.1,-2308.79,-37.8273,-41.3079,0
22556,779.46,779.42,765.47,778.22,775.64,1.95,-905.27,523.93,9.58,1.34,-15.15,-389.77,4512,0,82,38.2964,-12.5341,-480.655,18844.4,-18475.7,-3274.6,-38.4386,-39.2057,0
22592,778.09,779.64,766.1,781.74,776.39,31.25,-844.24,589.84,20.05,-1.16,-17.45,-423.11,4519,0,82,33.5446,-18.9187,-449.154,14952.6,-16824.4,-2991.06,-37.4571,-33.2877,0
22628,774.43,779.32,766.82,784.73,776.33,46.39,-944.34,568.85,9.93,1.24,-15.27,-433.97,4527,0,82,34.3133,-11.0096,-472.509,12263.9,-17511.9,-3583.83,-37.0614,-25.9552,0
22664,770.87,779.09,767.87,788.98,776.71,42.97,-777.83,558.11,18.92,1.89,-20.45,-456.28,4534,0,82,32.9711,-9.36687,-474.867,8919.52,-17432.8,-3805.49,-36.7105,-18.781,0
22703,768.72,779.56,768.8,792.17,777.31,13.18,-883.79,615.72,1.56,3.46,-14.18,-476.35,4542,0,82,31.2885,-4.75732,-448.68,2857.1,-15537.8,-4158.52,-34.6299,-6.36674,0
22739,763.64,778.35,769.67,794.83,776.62,49.8,-907.23,568.85,-0.33,2.09,-18.74,-466.62,4549,0,82,34.554,2.01618,-468.04,93.4736,-16112,-4932.53,-34.4244,-0.20066,0
22775,761.12,777.82,770.79,798.19,776.98,27.34,-759.77,583.01,1.82,1.22,-14.22,-475.37,4556,0,82,38.8962,0.497392,-451.795,-4389.47,-14412.6,-4568.05,-31.8995,9.72081,0
22811,759.49,777.92,771.96,800.53,777.47,74.71,-866.21,591.31,3.32,2.64,-12.31,-476.07,4563,0,82,40.0678,5.59277,-431.738,-8673.37,-13011.4,-4866.76,-30.1373,20.0888,0
22848,757.83,776.9,772.87,800.81,777.1,10.25,-878.42,601.07,-4.34,-9.51,-12.21,-443.55,4571,0,82,44.7119,6.03815,-447.215,-11535.9,-13098.3,-5346.45,-29.289,25.7938,0
22886,757.13,776.18,773.85,803.23,777.6,119.63,-831.05,498.05,20.14,-1.48,-16.27,-446.46,4578,0,82,47.756,3.09816,-456.124,-14022,-12840.1,-5556.97,-28.1504,30.7418,0
22923,756.71,776.16,774.76,803.88,777.88,35.64,-812.99,678.22,13.73,0.83,-12.65,-431.75,4586,0,82,49.4678,6.08698,-449.595,-16509,-12186.5,-5514.43,-27.1054,36.7196,0
22959,756.23,774.85,775.64,802.32,777.26,73.24,-866.7,541.5,7.99,-18.23,-20.56,-374.73,4593,0,82,48.2278,9.07342,-473.628,-17853.6,-13185.7,-6306.97,-27.8397,37.695,0
22996,756.13,774.25,776.4,804.06,777.71,194.34,-756.84,485.35,19.24,0.12,-18.69,-376.3,4600,0,82,48.161,5.54109,-482.47,-19240.5,-13260.5,-6256.77,-27.4846,39.8795,0
23032,756.01,774.89,776.73,805.57,778.3,18.07,-766.6,763.67,10.94,2.27,-7.46,-394.9,4607,0,82,48.6633,10.0287,-474.396,-20604.1,-12767,-6281.23,-26.9121,43.4324,0
23068,755.67,774.19,776.88,804.27,777.75,132.32,-910.16,514.65,3.07,-16.52,-17.55,-365.32,4615,0,82,47.5825,18.8434,-497.347,-21332.3,-14117.2,-7640.17,-28.3846,42.8928,0
23107,755.66,774.39,777.24,805.82,778.28,175.78,-725.59,594.73,13.04,10.54,-9.22,-380.67,4622,0,82,46.0033,6.05374,-505.428,-21463.7,-14597.1,-7092.45,-28.8805,42.4665,0
23143,755.61,774.93,777.29,808.34,779.04,161.13,-713.38,623.05,8.69,11.05,-0.55,-420.71,4630,0,82,46.0307,17.5129,-497.289,-22150.1,-14202.5,-7465.2,-28.5598,44.5418,0
23179,755.73,775.99,777.04,810.44,779.8,120.61,-785.64,648.93,3.59,14.33,2.64,-466.79,4637,0,82,43.9188,22.1088,-512.437,-22234.5,-15182,-8366.93,-29.627,43.3898,0
23215,755.72,776.52,776.44,811.33,780,132.32,-750.98,649.41,3.29,5.97,8.11,-499.04,4644,0,82,49.0056,26.5569,-533.376,-22128.7,-16116.8,-9082.17,-30.2166,41.4882,0
23252,755.6,777.17,775.66,811.93,780.09,109.86,-804.2,629.88,-0.06,12.97,9.46,-532.18,4651,0,82,49.4098,23.7449,-545.505,-21351.9,-16809.6,-9428.02,-30.8148,39.1415,0
23288,755.57,777.47,774.37,811.48,779.72,95.21,-808.11,618.16,4.6,10.66,15.21,-560.05,4659,0,82,50.2109,23.0599,-541.802,-19867.8,-16945,-9200.85,-31.2752,36.6697,0
23327,755.8,777.31,772.76,810.35,779.05,58.59,-820.31,635.25,14.33,10.72,16.19,-582.93,4666,0,82,47.9981,17.7753,-533.292,-17740.6,-17019.1,-8672.71,-31.9135,33.2657,0
23363,757.02,777.17,771.35,807.53,778.27,22.95,-750.98,689.94,2.41,1.17,17.21,-579.61,4674,0,82,42.3843,12.3364,-513.138,-14429,-17218,-7601.38,-33.5545,28.1188,0
23399,758.31,776.65,770.05,804.3,777.33,44.92,-806.64,653.32,-1.69,0.91,13.43,-564.72,4681,0,82,34.2711,1.07503,-506.779,-9489.6,-18474.2,-6253.45,-36.4543,18.7247,0
23435,759.75,775.89,769.08,801.21,776.48,46.88,-815.92,627.44,-2.12,-1.41,14.44,-542.41,4688,0,82,30.6973,-6.60467,-492.201,-5029.58,-19069.3,-4340.76,-38.7431,10.2176,0
23471,761.08,774.8,768.6,799.41,775.97,25.88,-790.53,668.46,-14.02,-0.29,11,-523.56,4695,0,82,27.1627,-10.0121,-478.444,-1106.48,-19519.2,-3380.11,-40.7976,2.3119,0
23508,761.4,774.15,768.29,797.28,775.28,51.76,-822.75,624.02,-12.77,-2.5,6.42,-495.98,4703,0,82,23.8739,-13.4657,-466.159,2692,-19949.8,-2418.43,-42.7963,-5.77515,0
23546,762.14,773.33,767.94,795.47,774.72,39.06,-798.34,627.93,-18.38,-2.76,9.11,-473.82,4710,0,82,27.1549,-10.8754,-460.927,3504.92,-19499.4,-2282.25,-42.3045,-7.6042,0
23582,763.33,773.14,767.62,793.87,774.49,23.93,-823.24,616.21,-14.94,-1.6,11.78,-461.01,4717,0,82,27.1849,-5.7911,-449.7,4438.02,-18943.6,-2461.53,-42.1249,-9.86894,0
23619,763.85,773.11,767.62,793.15,774.43,32.23,-837.4,619.63,-18.1,4.53,9.92,-451.93,4725,0,82,29.6044,-4.60095,-449.264,5937.35,-18896.4,-1829.38,-42.0609,-13.2159,0
23655,764.11,773.07,767.5,791.61,774.07,7.32,-825.2,586.43,-26.72,6.04,8.26,-432.78,4732,0,82,29.1917,-4.52955,-449.316,7211.85,-18871,-1553.2,-41.9995,-16.0507,0
23691,764.45,773.43,767.26,790.05,773.8,22.46,-842.29,580.57,-14.56,3.59,5.63,-419.75,4739,0,82,29.1699,-2.51689,-449.439,7482.26,-18472.8,-1592.75,-41.1019,-16.648,0
23730,765.55,774.11,766.81,787.35,773.46,0,-848.63,585.45,-18.8,5.27,11.13,-400.49,4747,0,82,30.1114,-1.72649,-437.489,7441.66,-17379.6,-1548.19,-39.7257,-17.0098,0
23766,766.31,774.61,766.5,785.16,773.15,-11.72,-884.77,559.08,-19.37,6.98,7.01,-382.61,4754,0,82,30.2624,-0.326545,-439.666,8924.46,-17324.4,-1694.11,-39.4035,-20.2984,0
23802,767.21,774.83,765.92,782.48,772.61,-0.98,-865.23,541.02,-16.05,2.92,2.65,-362.41,4761,0,82,31.6363,-1.75757,-429.267,9996.29,-16604.9,-1339.01,-38.6818,-23.2872,0
23839,768.42,774.72,765.28,779.45,771.97,-9.77,-856.93,559.57,-11.44,7.53,5.05,-337.06,4769,0,82,33.6164,-1.08737,-423.02,11369.8,-16145.5,-1565.13,-38.1672,-26.8781,0
23875,770.47,774.77,764.85,776.79,771.72,-15.63,-892.09,526.37,-7.62,2.5,3.63,-316.14,4776,0,82,34.0687,-1.34249,-409.492,12498.1,-15615.4,-1833.86,-38.1336,-30.5212,0
23911,771.82,774.24,764.15,773.76,770.99,-25.39,-913.09,587.89,-9.11,2.48,1.98,-289.3,4783,0,82,35.4759,-5.75088,-398.534,14428.3,-15425.3,-1928.88,-38.705,-36.2031,0
23951,774.32,773.56,763.47,770.92,770.57,-23.93,-858.4,566.89,4.4,3.87,3.73,-267.62,4791,0,82,37.0248,-6.17769,-390.73,16653.4,-15586.7,-2068.3,-39.8919,-42.6225,0
23987,776.79,772.96,762.94,768.77,770.37,-53.22,-908.2,527.34,-4,5.24,1.83,-252.84,4798,0,82,36.792,-6.05162,-374.47,18241.1,-15318.4,-2223.22,-40.907,-48.7131,0
24023,777.84,772.36,762.61,767.36,770.04,-56.64,-883.79,529.79,-8.72,1.85,1.52,-238.94,4806,0,82,38.5421,-11.7866,-370.935,21365.3,-15628.8,-1609.17,-42.1338,-57.5991,0
24059,777.97,771.74,762.35,766.62,769.67,-36.62,-870.61,516.6,-0.03,0.15,2.69,-230.03,4813,0,82,38.5107,-12.028,-353.519,22127.6,-15167.6,-1415.95,-42.9048,-62.5928,0
24094,779.02,771.29,762.21,765.96,769.62,-35.64,-883.79,526.37,-0.21,-4.79,4.88,-223.83,4820,0,82,37.4334,-12.1778,-329.716,21410,-14031.5,-979.714,-42.5574,-64.9358,0
24130,781.38,770.46,761.93,765.63,769.85,-60.06,-903.81,514.65,-2.82,0.2,0.47,-227.41,4827,0,82,37.5467,-12.9327,-324.999,22097.1,-13922.9,-580.444,-42.8395,-67.9918,0
24170,782.12,770.53,761.95,766.69,770.32,-22.46,-859.37,554.69,9.26,-5.46,4.69,-245.78,4835,0,82,39.7756,-13.6467,-333.069,24224.2,-14524.8,569.713,-43.609,-72.7303,0
24208,785.45,770.85,762.07,767.8,771.54,-63.48,-858.4,553.71,7.89,-4.07,1.15,-273.1,4843,0,82,38.3246,-13.6171,-332.085,24339.4,-14637.5,1220.33,-44.0779,-73.2935,0
24244,785.06,771.64,762.37,769.26,772.08,-58.59,-872.56,537.6,-0.4,-2.13,-0.84,-292,4850,0,82,38.3448,-12.0578,-370.98,27193.9,-16826.3,1691.02,-45.3565,-73.3023,0
24280,783.96,772.82,762.69,770.38,772.46,-19.53,-870.61,557.13,0.64,0.47,0.76,-306.29,4857,0,82,36.9004,-13.4562,-395.359,28002,-17975.6,1906.07,-45.4666,-70.827,0
24316,783.8,773.04,762.77,770.31,772.48,-29.3,-861.82,547.36,-0.18,2.92,-1.68,-304.53,4864,0,82,40.2352,-8.89766,-407.714,26579.2,-17922.5,1701.79,-43.9585,-65.1913,0
24352,783.49,772.57,762.64,769.58,772.07,-33.2,-859.86,549.8,-4.92,0.12,-0.51,-291.96,4871,0,82,43.5874,-5.6992,-425.521,26006.4,-18334.6,1176.12,-43.0872,-61.1169,0
24391,784.4,771.96,762.34,768.18,771.72,-40.53,-871.58,550.78,-1.89,0.71,-1.55,-277.19,4879,0,82,42.3278,-6.5498,-423.126,25773.6,-18351.8,597.741,-43.3719,-60.9126,0
24427,786.19,771.3,762.11,766.7,771.57,-31.25,-855.96,556.64,-2.27,5.69,1.56,-262,4886,0,82,39.1239,-7.82433,-406.647,25760.2,-17971.3,261.21,-44.1939,-63.3482,0
24463,788.58,770.87,761.84,765.63,771.73,-37.6,-864.75,544.92,-4.44,6.6,-1.89,-257.58,4894,0,82,36.0176,-10.3984,-396.405,27644.5,-18088.1,129.362,-45.6305,-69.7384,0
24500,791.18,770.47,761.76,764.87,772.07,-36.13,-867.19,558.59,-6.96,3.37,-1.4,-254.32,4901,0,82,36.0079,-12.1725,-387.435,29256.1,-17910.3,108.649,-46.228,-75.5129,0
24536,792.59,770.42,761.56,764.63,772.3,-51.27,-865.23,545.9,-5.75,1.42,1.13,-260.04,4908,0,82,36.4619,-13.5798,-390.559,31291,-18217.6,238.242,-46.645,-80.1186,0
24572,795.26,770.89,761.68,764.57,773.1,-55.18,-894.53,537.6,-3.86,1.42,-1.14,-269.09,4915,0,82,35.1379,-15.283,-382.501,31881.9,-17848.9,528.099,-46.6636,-83.3512,0
24611,795.17,770.96,761.65,764.77,773.14,-47.85,-881.35,522.46,-1.5,0.38,-3.16,-273.08,4923,0,82,40.068,-17.9613,-395.034,33622.4,-18067.3,1171.28,-45.7366,-85.1127,0
24647,795.07,770.98,761.73,765.15,773.23,-40.04,-873.54,538.57,0.98,-1.13,-0.4,-276.49,4930,0,82,43.5121,-18.734,-401.697,33982.4,-17968.8,1499.23,-44.7322,-84.5971,0
24684,793.87,771.1,761.84,765.72,773.13,-49.32,-857.91,553.71,1.6,0.06,-0.88,-279.03,4938,0,82,43.5987,-16.9519,-400.125,33252,-17787.3,1717.15,-44.4544,-83.1038,0
24720,792.68,771.21,761.97,766.11,772.99,-26.86,-861.82,549.32,3.35,1.9,-1.62,-278.45,4945,0,82,42.4268,-13.8282,-406.52,32986.8,-18409.1,1325.81,-45.2846,-81.1443,0
24756,791.94,771.27,762,766.53,772.94,-41.99,-862.79,550.78,1.21,-1.47,0.76,-281.65,4952,0,82,40.5158,-10.6516,-402.232,31138.5,-18176.1,965.457,-45.1882,-77.4144,0
24795,789.85,771.27,761.95,766.86,772.48,-34.18,-864.26,539.55,-1.69,0.63,-1.27,-280.6,4960,0,82,40.3517,-9.02082,-406.283,30537.2,-18499,1054.53,-45.5323,-75.1625,0
24831,788.44,771.24,762.05,766.93,772.17,-26.37,-877.93,541.5,-2.72,1.22,2.5,-274.13,4967,0,82,38.968,-7.7775,-398.286,28839.2,-18050.1,825.573,-45.3195,-72.4077,0
24868,787.52,771.23,762.07,767.19,772,-47.36,-884.28,537.6,-0.46,-0.69,-0.25,-274.07,4975,0,82,38.0822,-6.28974,-382.891,26569.2,-17069.8,643.732,-44.5812,-69.391,0
24904,787.4,771.4,762.1,767.23,772.03,-33.69,-867.19,548.83,1.59,3.07,1.08,-274.96,4982,0,82,36.9675,-6.39999,-374.862,25417,-16748.4,560.108,-44.6788,-67.8035,0
24940,787.88,771.66,762.23,767.71,772.37,-43.46,-861.82,563.48,3.48,-0.09,-0.77,-282.51,4989,0,82,36.0875,-6.75831,-373.981,25066.4,-16664.9,557.346,-44.5608,-67.026,0
24976,787.76,772.29,762.31,768.38,772.68,-30.76,-874.51,547.36,0.47,-0.29,-3.22,-295.2,4996,0,82,36.4186,-8.48336,-382.427,25766,-17108.5,512.767,-44.737,-67.3751,0
25015,787.05,773.13,762.61,769.55,773.08,-36.13,-885.25,532.71,-0.98,-3.25,-0.89,-309.22,5004,0,82,39.1857,-9.93275,-397.017,26113,-17329.9,496.489,-43.6506,-65.7737,0
25052,785.27,774.13,763.13,771.03,773.39,-32.23,-876.95,531.74,1.31,0.19,-3.74,-319.96,5011,0,82,40.9816,-10.2228,-406.212,25957.4,-17473.9,440.849,-43.0167,-63.9013,0
25088,782.18,775.43,763.71,772.94,773.57,-18.55,-855.96,560.55,-2.7,1.98,-4.88,-333.33,5019,0,82,44.1203,-11.8353,-413.767,24214,-16962,501.965,-40.9942,-58.5211,0
25124,778.91,777.07,764.63,775.25,773.97,-45.9,-884.77,520.02,-10.41,7.24,-8.46,-346.28,5026,0,82,44.4338,-9.49629,-417.988,21516.8,-16449,-35.7177,-39.3528,-51.4774,0
25160,774.77,779.5,766.06,778.69,774.76,-33.69,-866.7,532.71,-16.15,8.31,-12.33,-366.68,5033,0,82,45.6194,-7.71212,-419.897,17764.7,-15444.8,-842.861,-36.7826,-42.3075,0
25197,770.23,782.04,767.87,782.37,775.62,-39.06,-933.59,514.65,-10.37,11.47,-14.77,-380.44,5040,0,82,46.5195,-3.7498,-424.207,13769.3,-14440.5,-1939.41,-34.0413,-32.4596,0
25236,765.26,783.83,769.69,785.39,776.04,2.93,-859.37,520.51,-9.95,9.47,-18.34,-377.01,5048,0,82,50.2264,-0.224042,-439.389,7497.91,-12928.9,-3174,-29.4255,-17.0666,0
25273,761.11,784.73,771.2,788.02,776.27,4.39,-935.55,475.1,-16.81,15.63,-15.37,-370.85,5056,0,82,54.6707,6.13974,-453.858,1135.04,-11064.2,-4048.71,-24.3782,-2.50092,0
25309,757.61,785.67,772.62,789.69,776.4,25.39,-925.78,474.12,-10.61,10.69,-14.71,-355.78,5063,0,82,56.1176,11.5456,-447.056,-4249.3,-9075.49,-4884.28,-20.3004,9.50556,0
25345,754.89,785.75,773.44,789.18,775.82,-3.91,-935.55,558.59,-9.25,7.86,-12.24,-319.08,5070,0,82,58.8471,16.4118,-452.034,-8750.82,-7626.15,-5812.81,-16.871,19.358,0
25382,753.81,784.92,773.04,787.1,774.72,30.27,-854,561.52,-9.89,-3.98,-5.08,-288.08,5077,0,82,57.4975,19.972,-452.606,-12446.4,-6556.27,-6964.47,-14.4854,27.4999,0
25418,753.63,784.22,772.29,786.11,774.06,34.67,-896,458.01,2.92,4.68,-1.11,-285.96,5085,0,82,54.3957,24.4058,-437.565,-14229.3,-5580.65,-7448.12,-12.7538,32.52,0
25457,754.14,783.91,770.6,784.64,773.32,54.2,-824.71,548.83,26.43,9.24,10.44,-305.68,5092,0,82,52.6412,24.1428,-404.18,-13877.9,-4807.29,-7135.7,-11.8943,34.336,0
25493,757.31,784.65,769.87,785.18,774.25,28.32,-732.91,618.16,24.85,-10.79,20.93,-348.7,5100,0,82,46.0878,25.5101,-380.408,-11893.5,-5070.06,-7067.98,-13.3284,31.2643,0
25530,759.63,785.38,769.46,784.24,774.68,-30.76,-1026.86,421.87,4.38,-15.21,17.81,-358.83,5107,0,82,37.4584,17.742,-373.202,-6422.41,-7052.27,-6253.7,-18.895,17.2141,0
25566,761.22,782.96,767.97,779.8,772.99,12.21,-855.47,514.65,5.08,-7.73,7.27,-316.77,5114,0,82,45.3787,13.1494,-427.437,-1338.41,-9760.15,-4498.06,-22.8341,3.13504,0
25602,762.55,781.05,767.48,779.32,772.6,-51.76,-901.86,535.16,-7.64,-5.67,7.37,-311.14,5121,0,82,48.6988,10.5014,-442.368,1336.41,-10718.5,-3379.5,-24.2299,-3.02184,0
25641,761.63,781.08,767.52,779.14,772.34,-2.44,-833.5,503.91,-5.47,-0.53,-2.8,-304.45,5129,0,82,38.7773,5.24929,-388.743,4616.55,-10817.2,-2925.35,-27.8265,-11.8765,0
25677,762.6,779.73,766.29,776.28,771.23,2.44,-871.58,563.48,13.65,-4.87,6.51,-285.38,5136,0,82,41.6654,13.3438,-379.898,4188.77,-10350.8,-2229.6,-27.2457,-11.0252,0
25714,767.36,777.48,765.12,774.1,771.01,-56.64,-911.62,467.77,17.63,-10.83,10.39,-280.9,5144,0,82,43.7104,19.9878,-366.316,3444.55,-9701.67,-2123.81,-26.4846,-9.40399,0
25750,771.56,775.05,764.18,771.7,770.62,-35.64,-871.09,548.34,2.86,-4.77,5.04,-263.76,5151,0,82,38.7434,10.7798,-357.464,8559.07,-11408.4,-1401.32,-31.9144,-23.9426,0
25786,775.63,773.39,763.34,769.14,770.37,-46.88,-907.71,487.3,8.94,-2.47,1.75,-247.84,5158,0,82,33.8129,-1.02249,-376.431,14616.7,-14155.9,-149.106,-37.6057,-38.8298,0
25822,778.34,772.07,762.7,767.27,770.09,-27.83,-887.7,515.62,1.31,-1.67,2.69,-234.97,5165,0,82,28.071,-5.56022,-371.123,18074.6,-15367,179.571,-41.4069,-48.7029,0
25861,781.18,771.37,762.18,765.61,770.09,-47.85,-896,520.02,8.3,0.79,-1.98,-227.64,5173,0,82,26.6312,-14.4434,-365.347,21861.5,-16103,1079.56,-44.0758,-59.8386,0
25897,783.56,771.22,762.02,765.15,770.49,-31.74,-804.2,578.12,17.21,-6.5,-4.12,-231.87,5180,0,82,23.0996,-16.1494,-351.105,23327.5,-16110.1,935.256,-45.8844,-66.4417,0
25933,784.41,771.18,761.9,764.81,770.58,-39.06,-850.59,517.58,-4.14,0.29,-2.89,-232.43,5188,0,82,22.146,-18.2998,-352.765,25781.6,-16742.2,531.007,-47.46,-73.0846,0
25970,785.04,771.53,762.02,765.41,771,-54.2,-903.32,500.98,3.64,-1.79,-3.37,-243.28,5195,0,82,22.8331,-16.1432,-361.549,27120.6,-17376.9,249.527,-48.0624,-75.0123,0
26006,786.5,772.23,762.12,765.82,771.67,-3.91,-839.84,575.2,5.27,-2,-1.18,-257.37,5202,0,82,20.7584,-17.7765,-359.034,26895.1,-17283.5,-54.6083,-48.1388,-74.9096,0
26042,785.41,772.28,762.11,766.17,771.49,-14.16,-877.44,533.2,-4.33,0,-1.66,-259.29,5209,0,82,21.2882,-17.5552,-392.554,28561.7,-19050.3,-448.784,-48.5286,-72.7614,0
26080,785.51,772.94,762.33,767.26,772.01,-43.46,-886.72,552.25,7.47,-2.02,-3.11,-275.73,5217,0,82,18.6097,-15.1758,-396.466,27671.5,-19403.3,-1073.31,-48.9407,-69.7953,0
26117,784.82,773.58,762.65,768.03,772.27,-35.16,-914.55,545.41,3.13,-0.49,-3.92,-281.59,5224,0,82,13.0557,-23.0746,-393.075,26704.3,-19433,-1039.64,-49.4377,-67.9372,0
26153,782.12,774.02,762.85,769.7,772.17,-5.86,-863.28,537.11,2.21,0.08,-8.91,-295.65,5232,0,82,12.64,-18.5854,-417.34,26833.8,-20615.7,-1746.55,-49.3977,-64.2973,0
26190,781.72,775.37,763.58,772.37,773.26,11.72,-904.79,526.37,17.81,-6.03,-11.68,-325.96,5239,0,82,9.69475,-23.2997,-402.649,23945.1,-19502.7,-1905.27,-48.4352,-59.4653,0
26226,779.21,775.66,764,774.4,773.32,9.77,-848.63,586.91,5.31,-2.64,-13.11,-339.34,5246,0,82,11.4945,-19.4284,-413.63,21917.4,-19664.5,-2529.67,-47.5419,-52.9909,0
26263,777.65,776.43,764.57,777.81,774.11,17.09,-861.33,588.38,23,-4.02,-12.04,-376.11,5254,0,82,13.5351,-10.7242,-445.694,20717.9,-20732.3,-3455.96,-46.5163,-46.4822,0
26302,775.12,777,765.38,781.84,774.84,28.32,-875.98,557.62,3.62,-2.27,-10.68,-410.9,5261,0,82,15.7899,-7.7149,-427.327,16355.5,-19165.9,-3077.97,-44.8506,-38.275,0
26338,772.86,777.11,766.24,785.45,775.41,6.35,-822.75,602.05,12.98,-1.27,-14.58,-435.85,5269,0,82,19.3715,-3.50712,-447.683,13891.9,-19604.7,-3161.15,-43.7914,-31.0299,0
26374,770.52,777.17,767.21,789.38,776.07,70.31,-822.75,598.63,6.73,-1.41,-14.04,-462.15,5276,0,82,22.2854,-2.50466,-458.314,10587.5,-19190.7,-2822.25,-41.8724,-23.1019,0
26411,768.16,777.56,768.17,792.82,776.67,57.13,-876.95,588.38,6.56,0.2,-18.66,-483.71,5283,0,82,21.9747,-1.43567,-457.358,6818.37,-18476.1,-2737.11,-40.3974,-14.9075,0
26447,764.25,776.83,769.05,795.21,776.34,57.13,-789.55,618.65,-7.79,0.64,-15.21,-477.76,5290,0,82,26.5241,-0.273272,-472.016,3872.38,-18257.5,-2775.19,-38.6799,-8.20398,0
26486,760.51,776.62,770.28,799.51,776.73,74.71,-882.32,533.69,5.97,-3.56,-15.96,-495.87,5298,0,82,28.7859,3.34428,-464.409,-941.105,-16788.4,-3075.2,-36.1491,2.02969,0
26522,759.29,777.25,771.49,803.12,777.79,6.35,-807.13,601.07,9.3,-2.11,-17.12,-519.62,5305,0,82,25.6024,-1.4991,-429.827,-5866.61,-14205.6,-2672.19,-33.0491,13.6516,0
26558,757.29,776.68,772.64,803.96,777.64,32.71,-908.2,656.74,-7.64,-6.79,-17.27,-491.95,5313,0,82,24.9219,1.12564,-450.891,-9049.72,-14344.8,-3665.65,-31.8145,20.0697,0
26594,756.46,776.25,774.07,806.6,778.34,145.02,-829.59,515.62,12.44,-4.07,-23.19,-488.8,5320,0,82,24.5194,4.31439,-468.313,-11884.4,-14222.7,-4522.83,-30.3701,25.3772,0
26630,756.19,777.3,775.63,810.4,779.88,166.02,-763.67,593.26,10.24,3.4,-12.66,-513.49,5327,0,82,23.4426,10.3091,-458.198,-14971.4,-12975.7,-4803.93,-28.3191,32.6741,0
26666,755.89,777.58,776.75,811.45,780.42,76.66,-882.32,618.65,-0.79,-6.06,-12.74,-502.31,5334,0,82,25.6834,22.7572,-488.892,-17084.1,-13845.3,-6169.99,-28.3195,34.9438,0
26705,755.85,777.83,777.36,813.48,781.13,158.69,-763.67,540.53,10.53,5.22,-9.77,-518.9,5342,0,82,34.6682,30.6897,-547.245,-19229.5,-15364.9,-7748.41,-28.077,35.1385,0
26742,755.74,778.25,777.44,814.93,781.59,99.61,-718.75,671.39,2.36,5.82,4.44,-541.15,5349,0,82,41.9456,42.5655,-563.729,-20941.6,-15369.6,-8462.68,-27.264,37.1483,0
26778,755.65,778.34,776.88,814.92,781.45,125.98,-812.01,597.17,-1.79,3.35,8.75,-555.42,5357,0,82,40.0747,49.7796,-588.132,-21346.7,-16688.7,-9437.63,-28.3756,36.2959,0
26814,755.49,778.41,775.97,813.53,780.85,93.75,-791.5,634.28,-9.89,5.3,11.47,-557.62,5364,0,82,42.8133,46.9924,-599.785,-20956.2,-17160.1,-8896.08,-28.6104,34.9395,0
26850,755.38,778.12,774.54,811.3,779.83,113.77,-870.61,580.57,2.34,9.09,13.76,-557.73,5371,0,82,37.1305,39.8117,-585.748,-19424,-16905.7,-7852.65,-28.8617,33.1608,0
26886,755.67,778.28,773,808.53,778.87,70.8,-769.53,622.56,2.97,8.5,15.89,-557.44,5378,0,82,33.2706,28.3845,-555.306,-17366.1,-15964,-6400.45,-28.748,31.2727,0
26925,756.58,778.14,771.32,804.61,777.66,55.18,-834.96,607.42,-2.17,-0.77,17.34,-543.65,5386,0,82,24.4749,19.7207,-516.969,-13778.4,-15629.4,-5854.12,-30.2331,26.651,0
26961,758.19,778.23,769.69,800.09,776.55,57.62,-819.82,628.91,0.91,-0.66,17.69,-524.12,5393,0,82,19.5458,8.22102,-493.086,-9582.29,-15883.2,-4617.33,-32.212,19.4316,0
26997,759.92,776.98,768.39,796.04,775.33,63.96,-870.61,584.96,6.75,-7.47,15.7,-492.6,5400,0,82,16.9688,1.09589,-472.824,-5168.52,-16139.7,-3308.06,-34.135,10.9298,0
27034,762.45,776.07,767.11,792.38,774.5,22.95,-732.91,624.02,-8.89,-4.5,19.1,-471.99,5408,0,82,13.2188,-6.48525,-451.462,37.419,-16788.6,-2151.69,-37.188,-0.0850933,0
27070,764.91,776.16,766.05,788.21,773.83,34.67,-875.98,591.31,0.34,3.1,12.48,-446.43,5415,0,82,9.55822,-8.26043,-440.025,4416.56,-17979.9,-1362.74,-40.8612,-10.0376,0
27106,767.47,775.74,765.12,784.87,773.3,-22.46,-824.22,593.26,-11.31,-2.47,17.34,-425.69,5422,0,82,10.6497,-14.1608,-437.065,8388.22,-18872.4,-262.472,-43.1799,-19.1923,0
27145,770.48,775.21,764.48,781.81,773,18.07,-854,571.78,-6.55,-1.14,12.02,-402.77,5430,0,82,8.21312,-14.6012,-432.884,12557.8,-19760.6,-98.3287,-45.6489,-29.0099,0
27182,773.46,775.38,764.05,779.57,773.12,14.16,-805.18,610.84,-10.09,2.84,9.82,-392,5437,0,82,8.20962,-17.5016,-436.348,16132,-20653.8,531.618,-47.3334,-36.9704,0
27218,775.16,775.83,763.88,778.4,773.32,-20.02,-883.79,584.47,-11.85,2.49,2.57,-388.43,5445,0,82,8.64098,-16.1299,-441.917,19369.2,-21514,523.184,-48.6833,-43.8294,0
27254,776.38,775.62,763.94,777.62,773.39,17.58,-857.91,588.38,-6.44,-1.14,4.4,-378.07,5452,0,82,9.09528,-18.6519,-453.027,21944.9,-21890.8,574.268,-48.3215,-48.4405,0
27290,778.18,775.59,763.77,776.47,773.5,18.55,-775.39,614.26,-4.87,4.97,5.66,-371.22,5459,0,82,11.0134,-13.6935,-454.434,22261.6,-21430.7,65.5036,-47.1592,-48.9875,0
27327,780.72,776.41,763.56,774.72,773.85,-31.74,-952.15,541.02,-4.54,1.7,2.18,-366.02,5466,0,82,11.7801,-9.8215,-456.391,23000.6,-21491.8,-201.859,-47.0909,-50.397,0
27365,784.07,776.24,763.1,772.34,773.94,33.2,-800.78,614.26,8.07,3.08,1.12,-352.66,5474,0,82,16.7994,-10.2762,-469.973,25110.2,-21806.6,-282.815,-46.3998,-53.4286,0
27401,788.41,775.78,762.79,770.09,774.27,-27.83,-892.58,502.44,4.08,6.07,3.77,-338.48,5481,0,82,18.0276,-6.17158,-472.547,27018.6,-21745.3,-652.467,-46.0173,-57.1768,0
27437,794.13,775.1,762.35,768.17,774.94,-3.91,-844.24,606.45,2.08,7.14,2.02,-335.36,5488,0,82,18.6787,-6.46085,-477.904,30371.3,-22451.7,-769.114,-46.9796,-63.551,0
27473,799.2,774.35,761.82,765.68,775.27,10.25,-833.01,590.33,-1.19,6.4,1.13,-323.3,5496,0,82,22.6734,-5.74997,-480.481,33973.3,-23038.1,-617.634,-47.9477,-70.7063,0
27509,804.68,772.75,761.39,764.03,775.71,-30.27,-890.14,533.69,-10.56,4.18,1.56,-315.56,5503,0,82,29.1231,-6.23958,-485.114,37108.4,-23276.2,-254.927,-47.981,-76.4942,0
27548,812.55,771.41,760.96,762.83,776.94,-63.96,-897.95,562.99,-8.07,2.81,3.13,-324.91,5511,0,82,34.0522,-5.27605,-474.573,40670.9,-23218,562.584,-48.9241,-85.7016,0
27584,812.65,770.73,760.87,761.89,776.54,7.81,-863.28,598.14,-1,-1.82,0.97,-308.43,5518,0,82,33.4256,-9.44324,-473.383,44080.4,-23718.1,1404.34,-50.1031,-93.1169,0
27620,817,768.94,760.47,760.68,776.77,-46.39,-860.35,543.46,-7.91,0.26,3.71,-301.14,5525,0,82,37.5766,-8.67716,-470.315,45780.9,-23593.1,2209.93,-50.1639,-97.3401,0
27656,820.11,767.36,760.18,760.18,776.96,-26.37,-794.43,582.52,-12.59,4.66,5.54,-298.81,5532,0,82,38.2365,-3.25653,-448.733,44918.6,-22593.6,2703.61,-50.3497,-100.101,0
27692,822.11,769.07,760.46,761.07,778.18,17.09,-920.9,526.86,7.34,-3.67,-3.42,-325.6,5539,0,82,38.271,-5.32723,-441.008,47027.2,-22805.6,3631.41,-51.713,-106.638,0
27728,822,767.26,760.19,759.83,777.32,-6.35,-969.73,470.7,-0.65,-0.71,5.59,-299.27,5547,0,82,43.0554,-9.89563,-459.196,49953,-23676.8,4635.18,-51.5627,-108.792,0
27766,823.19,766.75,760.16,760.68,777.7,-29.79,-936.52,507.81,13.25,-6,-2.5,-312.37,5554,0,82,44.4796,-1.91733,-462.624,47529.8,-23350.2,4227.1,-50.4744,-102.746,0
27802,821.62,766.86,760.13,760.24,777.21,82.52,-784.67,672.36,12.15,3.05,0.95,-302.21,5561,0,82,35.229,-16.8833,-431.099,48325,-22767.2,4580.4,-52.8122,-112.099,0
27838,824.59,767.02,760.25,760.25,778.03,-60.55,-858.89,546.87,-1.57,4.82,-2.38,-310.94,5569,0,82,30.2656,-14.8255,-439.017,46507.7,-23203.5,3795.81,-52.8534,-105.936,0
27874,827.03,767.46,760.29,760.61,778.85,-62.99,-876.46,532.71,0.84,1.8,-2.01,-327.13,5576,0,82,30.1472,-23.6842,-451.666,49486.9,-24111.3,4134.49,-53.3829,-109.565,0
27911,825.69,768.68,760.54,761.75,779.17,-23.93,-867.68,562.99,4.7,0.02,-3.08,-342.69,5583,0,82,35.3864,-24.2789,-475.879,51967,-25127.3,4366.46,-52.8021,-109.202,0
27947,822.29,769.83,760.82,762.87,778.95,-41.5,-878.42,551.76,-3.61,-0.71,1.02,-349.78,5590,0,82,40.1844,-21.7358,-497.48,52763.7,-25995,4293.33,-52.2534,-106.063,0
27986,818.08,770.46,761.01,763.86,778.35,-26.86,-882.32,551.27,-1.88,-3.25,-2.92,-350.05,5598,0,82,43.8795,-10.6434,-506.097,49766.5,-25901.9,3489.53,-51.1797,-98.3341,0
28022,813.66,770.73,761.19,764.59,777.54,-13.18,-869.63,553.71,-1.55,-3.25,-2.53,-343.46,5605,0,82,45.5442,-1.26856,-501.876,45873.3,-25238.7,2959.3,-50.2888,-91.4032,0
28058,810.23,770.86,761.32,764.58,776.75,-15.14,-855.47,587.4,-6.31,1.82,-1.56,-329.33,5613,0,82,42.0525,1.05913,-488.066,41937.6,-24259.3,2377.35,-49.7049,-85.9249,0
28095,808.42,770.61,761.27,763.98,776.07,-30.76,-866.7,553.71,-11.48,5.73,-0.7,-313.75,5620,0,82,38.6631,3.11495,-468.038,38274.7,-22976.3,1853.16,-49.0906,-81.7766,0
28132,807.64,770.5,761.12,763.24,775.62,-27.34,-862.79,532.23,-16.27,6.17,-2.62,-302.74,5627,0,82,36.4819,0.567988,-445.246,35828.5,-21424.5,1532.62,-48.1177,-80.4692,0
28168,810.36,771.22,761.15,763.37,776.53,-45.41,-901.86,514.65,-13.47,4.77,-3.34,-319.25,5635,0,82,35.2455,-0.882191,-414.674,34140.3,-19479.8,1371.19,-46.976,-82.331,0
28207,812.36,772.03,761.36,764.15,777.48,-57.62,-919.43,479.49,1.76,-2.41,-0.37,-338.76,5642,0,82,33.1306,-8.77111,-403.401,34710.6,-18694.8,1406.78,-46.3428,-86.0435,0
28243,812.06,772.23,761.46,764.84,777.65,-29.79,-881.35,523.93,4.65,-1.4,-0.18,-347.07,5650,0,82,38.9846,-22.4467,-445.528,39057,-20119,2338.23,-45.1581,-87.6645,0
28279,808.81,772.48,761.65,765.44,777.09,-26.86,-875,527.34,0.02,-2.94,-1.44,-341.93,5657,0,82,44.6009,-18.4854,-471.95,40316,-21100.7,2874.05,-44.7095,-85.4248,0
28315,803.87,772.53,761.77,766,776.04,-26.37,-877.44,528.81,-2.17,1.51,-1.29,-330.69,5664,0,82,43.6591,-9.55281,-470.106,38355.5,-21111.7,2422.64,-44.9083,-81.5884,0
28352,800.7,772.72,761.83,766.77,775.5,-26.37,-865.72,530.76,0.83,-1.19,-1.4,-331.11,5671,0,82,40.9609,-3.50796,-442.028,33401.1,-19577.2,1611.4,-44.2895,-75.5619,0
28388,797.51,773.39,762.17,768.29,775.34,-36.13,-895.51,512.21,-1.4,-1.73,-1.95,-339.47,5679,0,82,38.8213,-0.287277,-419.805,29837.6,-18438.5,1210.55,-43.9216,-71.0747,0
28427,794.23,774.14,762.56,769.78,775.18,-30.76,-879.88,529.79,4.95,-6.15,-1.5,-346.29,5686,0,82,37.8593,-0.328783,-417.052,28066.3,-18186.6,934.298,-43.6075,-67.2973,0
28463,791.37,774.44,762.92,770.58,774.83,-31.74,-869.63,550.78,-1.08,-0.63,0.63,-341.92,5694,0,82,38.401,-1.22554,-425.968,25810.7,-18041.9,793.194,-42.3553,-60.5937,0
28499,788.25,774.72,763.18,771.4,774.39,-25.39,-875.98,529.3,-4.94,-3.62,-2.37,-339.12,5701,0,82,37.8789,-0.431122,-429.699,23968.7,-18049.6,474.908,-42.0051,-55.7803,0
28536,785.89,774.75,763.36,772.07,774.02,-24.9,-888.67,525.88,0.22,0.03,0.01,-336.48,5708,0,82,39.409,0.0873407,-421.502,21515.6,-17161.4,364.792,-40.7148,-51.0449,0
28572,784.14,774.71,763.54,772.45,773.71,-26.86,-879.88,519.04,-1.43,-0.27,-0.49,-331.39,5715,0,82,41.1624,1.17673,-413.874,19270.3,-16307.3,469.345,-39.4016,-46.5606,0
28611,782.96,774.6,763.62,772.92,773.53,-25.88,-882.32,527.34,-1.78,-0.51,-3.02,-331.24,5723,0,82,40.8593,1.95095,-408.778,17705.9,-16027.2,323.67,-39.2077,-43.3141,0
28647,781.85,774.43,763.67,773.19,773.29,-31.74,-862.79,527.34,0.82,1.71,-0.31,-328.82,5730,0,82,39.6052,1.65034,-405.629,16862.7,-15932,296.656,-39.2773,-41.5719,0
28684,780.98,774.29,763.76,773.5,773.14,-28.81,-875.98,532.71,-1.66,-0.15,-1.12,-327.08,5738,0,82,38.0498,0.285974,-400.581,15897,-15809.8,76.9226,-39.4673,-39.6846,0
28720,779.65,774.31,763.92,774.15,773.01,-32.23,-878.42,524.9,-2.09,2.12,-1.74,-328.28,5745,0,82,37.1008,-0.550399,-397.917,15338.8,-15723.4,87.5137,-39.5142,-38.5478,0
28756,778.56,774.22,764.17,774.9,772.96,-25.39,-890.62,525.39,-2.32,-0.39,-1.92,-328.55,5752,0,82,37.3002,-0.619034,-394.323,14604.7,-15557.4,-9.6858,-39.4536,-37.0374,0
28792,777.16,774.33,764.47,775.92,772.97,-22.95,-878.91,530.27,-2.24,0.31,-2.72,-332.3,5759,0,82,37.0469,1.21149,-393.829,13514.9,-15382.9,-97.348,-39.0599,-34.3169,0
28832,775.81,774.48,764.86,777.08,773.06,-31.25,-892.58,518.55,1.6,1.64,-2.64,-336.04,5767,0,82,36.7404,2.93959,-393.846,12370.2,-15198.8,-374.407,-38.5907,-31.4088,0
28868,774.59,774.53,765.31,777.96,773.1,-16.6,-868.16,537.11,-0.02,1.17,-6.56,-333.95,5775,0,82,39.0361,4.92118,-398.167,10776.2,-15019.5,-563.707,-37.7217,-27.0645,0
28904,773.24,774.46,765.74,778.71,773.04,-23.44,-869.63,528.81,1.06,0.56,-3.21,-329.2,5782,0,82,38.508,6.56678,-403.214,9769.63,-15060.9,-947.188,-37.3522,-24.2296,0
28940,771.77,774.28,766.3,779.54,772.97,-10.25,-875.98,525.39,-3.57,3.92,-3.4,-320.91,5789,0,82,38.381,7.13048,-402.722,8169.25,-14645.2,-942.402,-36.3655,-20.2849,0
28977,770.01,774.09,766.99,780.46,772.89,-15.14,-892.58,531.25,-2.6,1.95,-2.75,-309.82,5796,0,82,38.5207,8.13692,-405.452,6882.59,-14452.7,-1133.8,-35.6458,-16.975,0
29013,767.85,773.87,767.68,781.05,772.61,-9.77,-879.88,509.28,-7.72,3.19,-6.79,-292.04,5804,0,82,39.8796,8.58083,-406.335,4742.3,-13816.3,-1260.54,-34.0023,-11.6707,0
29052,765.66,773.72,768.4,781.79,772.39,-9.77,-875.98,531.25,-6.74,3.07,-6.05,-276.35,5811,0,82,40.143,12.0955,-403.516,2259.36,-13066.4,-1441.37,-32.3813,-5.59878,0
29089,763.35,773.52,769.15,781.53,771.89,-4.88,-912.11,508.3,-14.79,4.44,-4.29,-244.37,5819,0,82,40.3701,13.6115,-397.082,-385.169,-12064.4,-1714.36,-30.3826,0.970073,0
29125,761.75,772.94,769.5,780.56,771.19,13.18,-844.24,538.57,-9,5.07,-2.56,-211.27,5826,0,82,42.0226,15.8608,-397.007,-2666.81,-11167.2,-1730.58,-28.1284,6.71765,0
29161,760.9,772.83,769.73,780.09,770.89,-12.21,-916.02,466.31,-9.43,-0.56,0.56,-194.69,5833,0,82,43.2009,16.3791,-384.133,-5115.63,-9762.4,-1820.52,-25.4139,13.3181,0
29197,761.26,772.68,769.48,779.65,770.76,12.7,-854.49,538.57,8.15,-0.12,-0.04,-194.45,5840,0,82,44.0861,14.257,-371.35,-6066.22,-8864.54,-1938.23,-23.8709,16.3357,0
29234,761.74,772.79,769.57,780.11,771.05,-20.02,-926.76,490.72,-13.49,-5.76,5.51,-201.63,5848,0,82,44.7453,12.8465,-370.912,-6210.35,-8603.29,-1656.32,-23.195,16.7439,0
29273,761.5,772.84,769.97,780.41,771.18,-6.84,-868.65,493.65,-2.4,-3.05,-1.14,-195.5,5856,0,82,39.2111,5.45039,-379.085,-4087.52,-9761.18,-1144.24,-25.7489,10.7836,0
29309,761.57,772.43,769.29,778.42,770.43,-22.95,-870.61,496.58,-11.85,-1.45,4.65,-180.08,5863,0,82,40.2151,6.09417,-390.972,-4446.78,-9863.51,-579.896,-25.2284,11.3733,0
29345,762.95,772.23,768.7,777.38,770.32,9.28,-876.46,503.42,-9.89,-0.98,10.1,-182.77,5870,0,82,35.9135,8.43904,-390.634,-5149.13,-9755.28,-711.997,-24.9729,13.1816,0
29381,763.09,772.6,768.64,776.8,770.28,-53.22,-1024.9,398.93,-5.31,3.05,-2.08,-178.97,5877,0,82,34.2516,2.84774,-367.733,-3556.7,-9356.32,-135.171,-25.4436,9.67032,0
29417,762.75,772.68,768.64,776.02,770.02,1.46,-856.45,508.3,-2.01,0.88,-5.33,-167.2,5884,0,82,34.8281,-3.93123,-376.354,-307.33,-10444.5,309.485,-27.752,0.816993,0
29456,764.34,772.33,767.69,773.75,769.53,30.27,-822.27,532.71,17.93,-2.94,2.65,-160.11,5892,0,82,32.8406,-0.533084,-350.568,-2166.89,-8797.73,-675.568,-25.0956,6.18129,0
29492,766.64,772.16,766.82,772.61,769.56,48.34,-894.04,512.7,5.27,-4.99,1.76,-171.45,5899,0,82,33.7212,6.8406,-347.843,-2054.06,-8658.91,-1335.58,-24.893,5.9055,0
29528,770.04,772.48,766.3,772.19,770.25,-50.78,-880.86,499.02,13.24,-0.97,1.57,-192.61,5907,0,82,28.7357,-1.66261,-339.633,2294.31,-9822.94,-1528.91,-28.9226,-6.75685,0
29565,771.43,773.09,766.36,772.54,770.86,-13.67,-864.26,503.91,16.7,0.24,-2.6,-205.65,5914,0,82,27.6935,-2.52728,-351.223,6708.49,-11689.5,-1824.66,-33.2813,-19.0974,0
29601,772.4,774.13,766.54,772.83,771.48,-30.76,-891.6,493.16,8.79,-3.66,-2.66,-217.14,5921,0,82,25.7964,-5.48435,-368.23,9347.9,-13167.7,-2110.03,-35.7593,-25.3857,0
29637,772.01,774.67,766.76,773.58,771.75,-11.72,-771,449.71,14.04,-6.34,-8.5,-225.61,5928,0,82,24.6372,-7.0471,-394.656,10768.1,-14458.2,-2344.59,-36.6352,-27.2849,0
29676,773.45,775.94,766.88,774.12,772.6,-42.48,-967.29,496.58,-2.66,-3.6,-2.5,-245.89,5936,0,82,25.9607,-7.46506,-408.784,10339.3,-14679.7,-2327.14,-35.9103,-25.2909,0
29713,772.77,776.05,767.31,775.11,772.81,-15.14,-871.58,553.22,5.56,0.9,-13.82,-248.26,5944,0,82,27.3155,-9.9259,-441.885,11777.1,-16175.3,-2335.46,-36.6053,-26.6517,0
29749,770.89,776.23,768.43,777.66,773.3,-6.35,-867.19,509.28,2.53,-3.47,-11.25,-252.8,5951,0,82,30.7792,-14.325,-451.94,11194.1,-16115.7,-2229.18,-35.6589,-24.7694,0
29785,770.82,776.39,769.37,779.25,773.96,-12.7,-825.2,589.36,8.18,0.95,-9.89,-253.99,5958,0,82,27.8505,-16.2983,-434.331,7470.91,-14778.5,-2555.61,-34.0259,-17.2011,0
29822,769.86,776.41,769.63,781.17,774.27,20.02,-892.58,520.51,9.92,-0.63,-4.44,-272.59,5965,0,82,31.6128,-10.7664,-468.233,5210.81,-15378.2,-2883.75,-32.8427,-11.1293,0
29858,767.94,777.23,769.22,785.44,774.96,61.04,-867.19,546.39,20.29,-4.03,-10.34,-345.65,5973,0,82,36.3386,-5.63057,-484.584,2872.34,-15501,-2772,-31.9885,-5.92772,0
29897,767.93,778.34,769.51,790.84,776.66,-5.37,-923.83,551.27,15.69,-5.27,-9.4,-426.61,5980,0,82,34.4036,-13.356,-479.057,1479.8,-15309.9,-2130.77,-31.9578,-3.08747,0
29933,765.17,778.05,770.45,794.42,777.02,5.86,-863.28,538.09,-3.56,0.55,-15.1,-444.12,5988,0,82,30.1177,-23.9582,-492.569,2335.15,-16673.2,-1709.09,-33.8484,-4.73971,0
29970,761.93,777.51,772.05,798.01,777.37,65.43,-847.17,618.65,5.65,5.86,-19.97,-441.86,5995,0,82,28.9095,-30.357,-502.326,740.561,-16961.3,-1530.54,-33.7652,-1.47235,0
30006,760,777.58,773.69,802.5,778.44,97.66,-845.7,583.98,10.02,2.02,-19.47,-460.71,6002,0,82,23.8477,-27.2048,-475.88,-5455.91,-14346,-1866.28,-30.1458,11.4662,0
30042,757.58,776.89,775.02,803.69,778.3,21.48,-924.32,643.55,-3.82,-7.82,-22.95,-431.3,6009,0,82,23.9882,-18.0786,-485.137,-9660.62,-13589.2,-3184.52,-28.0116,19.9116,0
30079,756.21,775.42,776.13,804.14,777.98,65.43,-829.59,554.69,8.37,-18.43,-27.06,-393.97,6017,0,82,31.1543,-3.5546,-511.686,-13939.9,-13414.5,-4833.79,-26.2162,27.2434,0
30118,755.78,775.46,777.3,805.57,778.53,71.29,-867.68,580.57,7.11,-5.96,-18.2,-384.61,6025,0,82,30.913,5.75919,-493.502,-17687.6,-11865.9,-5253.03,-24.0443,35.8419,0
30154,755.44,774.78,778.29,804.97,778.37,97.66,-900.39,560.06,10.4,-13.92,-22.22,-344.4,6032,0,82,32.4921,15.3848,-500.607,-19714.5,-11874.6,-5802.6,-23.7203,39.3809,0
30191,755.43,774.73,778.9,806.84,778.97,167.97,-770.51,483.89,22.69,3.16,-22.11,-356.41,6039,0,82,34.9269,19.5941,-519.996,-21264.6,-12461.2,-6331.26,-23.9641,40.8937,0
30227,755.52,775.92,779.47,810.18,780.27,102.54,-697.27,683.11,12.62,17.09,-3.15,-401.13,6046,0,82,38.1651,30.4019,-525.377,-22731,-12575.9,-6831.98,-23.9368,43.2659,0
30263,755.37,775.84,779.28,810.2,780.17,130.37,-844.24,610.35,-3.09,-5.13,2.71,-405.08,6054,0,82,38.3193,43.2616,-552.469,-23816.3,-13903.4,-8528.02,-25.1659,43.1099,0
30302,755.31,775.99,778.51,810.84,780.16,168.46,-716.8,578.61,6.46,9.55,7.34,-434.72,6061,0,82,41.6357,39.2731,-584.726,-24226.8,-15165.4,-8934.71,-25.936,41.4329,0
30339,755.21,776.14,777.31,811.03,779.92,134.28,-749.51,658.69,-8.08,3.44,15.5,-468.17,6069,0,82,43.667,37.8753,-572.908,-23465,-14858.7,-8300.44,-25.9358,40.9576,0
30375,755.03,776.22,775.99,810.18,779.36,116.21,-797.36,592.77,-7.54,12.54,21.54,-488.66,6076,0,82,36.3683,33.9385,-560.761,-21702.1,-15204.9,-8067.96,-27.1149,38.7008,0
30441,754.86,776.26,773.22,806.34,777.67,114.75,-796.87,554.69,4.81,11.52,15.91,-500.77,6089,0,82,28.2234,14.9468,-515.355,-17201,-14430.4,-5407.25,-28.0005,33.376,0
30477,755.71,776.33,771.5,803.92,776.86,35.16,-841.31,694.82,14.15,2.46,22.53,-511.54,6096,0,82,26.6093,12.315,-480.743,-14733.4,-13583.9,-4821.58,-28.2566,30.6463,0
30513,757.27,775.99,769.93,800.14,775.83,62.01,-904.79,552.25,4.67,0.47,14.31,-497.7,6104,0,82,21.2519,8.71002,-455.888,-10581.5,-14111.5,-4385.63,-30.954,23.2103,0
30556,759.86,775.22,768.25,796.17,774.87,30.76,-756.84,664.55,5.32,-0.61,14.5,-483.75,6112,0,82,17.037,-6.45497,-450.158,-4604.6,-15859.3,-2570.91,-35.2312,10.227,0
30592,762.07,774.79,767.26,792.82,774.24,22.95,-840.33,604.98,-2.47,2.06,14.82,-463.24,6119,0,82,10.7508,-7.79178,-435.102,-160.595,-16975,-1883.16,-39.0141,0.36824,0
30628,764.28,774.1,766.45,790.24,773.77,37.6,-842.29,596.19,1.78,-2.73,12.65,-447.61,6127,0,82,8.75212,-16.1955,-435.681,5072.8,-18803.4,-1055.81,-43.1586,-11.643,0
30664,766.57,773.35,765.76,788.16,773.46,22.95,-803.22,623.05,-3.94,-0.59,11.01,-436.16,6134,0,82,8.46725,-20.4298,-432.694,8506.34,-19640.4,-175.098,-45.3913,-19.6597,0
30700,767.95,772.91,765.58,786.93,773.34,11.23,-878.42,586.91,-6.32,1.09,5.96,-423.59,6141,0,82,6.27481,-21.6875,-435.556,11761.1,-20809.1,176.02,-47.776,-27.0022,0
30736,769.2,772.6,765.32,785.74,773.22,21.48,-778.32,648.44,-9.53,-1.16,8.71,-414.23,6148,0,82,8.48842,-23.5407,-439.91,14251.2,-21618.7,504.591,-49.1436,-32.3955,0
30776,769.32,772.32,765.52,785.92,773.27,-18.55,-961.91,525.88,-6.44,4.66,-1.37,-410.14,6156,0,82,8.35957,-21.4223,-442.047,15471.7,-21825.5,473.304,-49.3737,-35.0001,0
30811,769.71,772.2,765.5,784.98,773.1,35.64,-728.52,651.37,-7.33,1.93,3.6,-397.35,6163,0,82,13.8821,-23.223,-443.243,16194.4,-21684.1,893.415,-48.9215,-36.5362,0
30847,770.21,772.38,765.43,783.94,772.99,-0.98,-883.3,582.52,-11.82,4.3,4.83,-386.76,6170,0,82,13.6481,-15.6679,-444.562,15314.9,-21238.2,27.3769,-47.7732,-34.4493,0
30883,770.96,772.65,765.41,783.59,773.15,6.84,-851.56,616.7,-15.56,8.28,7.62,-386.91,6178,0,82,18.9439,-14.3375,-444.097,15863.2,-20841.1,9.9733,-46.9291,-35.7202,0
30919,770.54,772.9,765.62,783.01,773.02,21.97,-854.49,577.15,-14.79,5.51,-2.08,-373.75,6185,0,82,22.9798,-14.9585,-444.754,16615.1,-20575.2,-47.5442,-46.2619,-37.3579,0
30954,769.95,773.15,765.73,781.62,772.61,7.32,-869.63,544.92,-19.47,7.69,1.44,-350.58,6192,0,82,25.1312,-15.3932,-443.017,16340.9,-19984.3,-243.543,-45.109,-36.8848,0
30993,769.56,773.64,765.57,780.01,772.2,-1.95,-838.87,608.4,-10.4,7.9,2.64,-333.43,6200,0,82,33.0509,-4.87289,-431.129,14346.1,-18174.3,-1140.11,-42.1546,-33.2752,0
31029,769.93,774.04,765.34,778.01,771.83,-22.95,-862.79,558.59,-13.11,4.08,5.85,-314.2,6207,0,82,36.6418,-1.92098,-404.987,12730.5,-16246.7,-1548.79,-40.1163,-31.4344,0
31065,769.6,774.17,765.12,776.31,771.3,-40.53,-918.46,535.64,-21.58,3.98,2.98,-294.42,6214,0,82,42.6803,1.89733,-401.254,13259.1,-15715.3,-1843.15,-39.1656,-33.0443,0
31100,767.74,773.95,765.08,775.41,770.54,-24.9,-887.21,505.86,-9.83,1.04,-0.85,-274.12,6221,0,82,46.7447,5.66447,-390.723,13720.6,-15102.4,-1716.79,-38.6525,-35.1173,0
31136,766.81,774.13,765.17,775.58,770.42,-85.45,-937.5,496.58,-13.75,1.66,0.44,-272.56,6228,0,82,47.8661,3.56047,-355.225,11441.9,-12700.6,-1618.56,-35.7515,-32.2072,0
31172,765.26,774.24,765.38,775.93,770.2,-36.62,-878.42,530.27,-21.24,11.11,-4.12,-268.05,6235,0,82,46.5734,6.12509,-330.519,9493.84,-11154,-1650.65,-33.7468,-28.7242,0
31210,762.96,773.97,765.61,776.31,769.71,-6.84,-871.09,517.58,-3.26,4.7,-3.7,-257.74,6243,0,82,46.9658,3.40005,-321.209,7596.63,-10167.8,-1204.34,-31.6546,-23.6495,0
31246,762.76,773.8,765.91,777.43,769.97,-34.18,-861.82,513.67,5.4,-1.18,-1.16,-264.85,6250,0,82,47.867,-0.0140259,-308.127,5036.4,-8860.12,-1266.56,-28.7543,-16.3422,0
31282,763.35,773.69,766.04,778.29,770.34,15.63,-817.87,536.62,16.34,-7.79,5.11,-275.43,6257,0,82,45.7416,2.72689,-302.252,3770.34,-8492.96,-1343.73,-28.098,-12.4735,0
31318,764.46,773.34,765.96,778.71,770.62,4.39,-879.39,526.37,11.26,-7.85,4.47,-284.64,6265,0,82,42.3672,1.16963,-325.166,4337.25,-9869.84,-1079.74,-30.3519,-13.3377,0
31355,766.1,773.16,765.77,778.53,770.89,-8.3,-878.42,534.18,6.69,-3.22,5.3,-290.84,6272,0,82,41.4001,2.57682,-350.699,6025.69,-11508.1,-835.212,-32.8142,-17.1811,0
31394,767.27,772.54,765.38,777.23,770.61,-7.32,-855.47,540.04,2.84,1.96,2.36,-280.55,6280,0,82,40.3622,3.09636,-379.366,8896.33,-13820.4,-395.47,-36.4293,-23.4481,0
31430,768.44,772.24,764.91,775.97,770.39,-29.3,-867.19,530.27,-2.83,1.76,3.44,-275.3,6287,0,82,40.539,4.06905,-391.131,11140.8,-15166.8,-279.885,-38.7769,-28.4835,0
31466,769.71,772.24,764.55,774.31,770.2,-11.72,-836.43,537.11,-0.76,4.76,1.53,-264.12,6294,0,82,36.9181,5.28722,-381.74,12749.5,-15529.5,-508.227,-40.6807,-33.3986,0
31502,771.8,772.82,764.3,773.5,770.6,-30.27,-889.65,519.53,3.43,3.82,2.57,-270.23,6301,0,82,34.8442,5.71191,-371.852,14154.2,-15501.5,-677.54,-41.6876,-38.0651,0
31538,774.16,773.67,764.26,772.8,771.22,-18.07,-843.75,545.9,0.16,5.9,0.43,-275.81,6309,0,82,34.4767,1.68594,-368.706,16619.3,-15791.4,-883.483,-42.8294,-45.074,0
31574,777.48,774.89,764.1,772.27,772.19,-42.48,-908.2,517.58,-2.79,4.15,3.18,-293.26,6316,0,82,35.077,0.213915,-383.268,18759.4,-16285.7,-1015.94,-42.4921,-48.9452,0
31612,779.8,775.42,764.12,772.3,772.91,-52.73,-893.55,514.65,-2.71,-1.23,0.67,-305.41,6323,0,82,37.7435,-7.24217,-403.526,21521.7,-16908.7,-760.772,-41.9032,-53.3324,0
31649,779.1,775.06,764.14,772.04,772.59,-23.93,-872.07,516.6,-0.75,2.14,-1.02,-295.94,6331,0,82,44.8723,-16.123,-429.981,24416.9,-17490,323.031,-40.6763,-56.7857,0
31684,777.86,774.69,764.12,772.43,772.28,-37.6,-886.72,497.56,-0.19,-0.52,-3.66,-294.94,6338,0,82,47.8233,-13.253,-429.9,24083.4,-17144.8,831.536,-39.8805,-56.0204,0
31720,777.36,774.71,764.28,772.73,772.27,-36.62,-867.68,528.32,0.61,2.47,-3.34,-293.6,6345,0,82,43.4435,-6.94244,-408.067,22011.2,-16289.5,101.821,-39.9188,-53.9397,0
31757,777.95,774.89,764.24,772.79,772.47,0.49,-857.91,552.73,3.4,1.54,1.65,-299.11,6352,0,82,39.7997,0.940092,-397.083,20048.3,-16116.4,-767.613,-40.5869,-50.489,0
31793,778.79,775.19,764.2,772.53,772.68,-28.32,-856.93,553.22,0.05,-0.91,0.02,-301.34,6360,0,82,38.2075,4.17997,-407.88,20233.8,-16946.1,-1035.46,-41.5467,-49.6073,0
31831,779.7,775.35,764.17,772.37,772.9,-35.16,-873.05,542.97,-1.54,0.27,0.91,-304.42,6367,0,82,41.6952,4.02028,-422.871,21827.1,-17471.7,-818.569,-41.3166,-51.6163,0
31867,780.44,775.45,764,772.27,773.04,-32.71,-882.81,504.88,-0.64,-1.36,1.46,-310.37,6374,0,82,45.326,1.23192,-428.811,22977.2,-17507.7,-59.9759,-40.8286,-53.5836,0
31903,780.99,775.5,764,772.54,773.26,-27.34,-872.56,515.62,-1.28,-0.92,-0.21,-316.77,6382,0,82,47.8977,-5.42668,-434.384,24076.6,-17450.5,689.632,-40.1731,-55.4269,0
31939,781,775.15,764.05,772.9,773.28,-43.95,-884.28,524.9,2.04,-2.15,-1.17,-318.12,6389,0,82,47.8694,-10.2341,-437.03,24686.9,-17533.3,1166.89,-40.1193,-56.4879,0
31975,780.37,774.95,764.18,773.35,773.21,-21.48,-870.61,541.5,1.78,-0.16,0.43,-317.55,6396,0,82,47.8792,-12.8491,-441.113,24868.8,-17807.3,1590.45,-40.369,-56.3775,0
32011,779.1,774.72,764.22,773.95,773,-16.11,-868.16,541.5,-1,-0.38,-0.36,-319.26,6403,0,82,44.3111,-10.1566,-442.545,24537.9,-18364.5,1201.85,-41.4975,-55.4474,0
32050,777.43,774.64,764.5,774.88,772.86,-21.48,-868.16,539.55,-1.13,-0.99,-2.11,-319.48,6411,0,82,41.5587,-5.60217,-435.857,22497.3,-18230,590.102,-41.8255,-51.6159,0
32086,776.19,774.62,764.74,775.58,772.78,-26.86,-869.63,526.37,-3.39,1.31,1.48,-319.42,6418,0,82,40.3337,-1.70573,-426.332,20313.1,-17684.8,325.542,-41.4813,-47.6458,0
32122,774.82,774.68,764.93,776.2,772.66,-23.44,-869.14,537.6,-3.02,2.72,-4.11,-319.67,6425,0,82,40.5141,1.03705,-420.752,18282.7,-17127.8,206.116,-40.7077,-43.4524,0
32158,773.71,774.86,765.04,776.52,772.53,-5.37,-863.77,532.71,-2.31,1.08,-4.37,-319.15,6433,0,82,41.1156,3.42422,-416.727,16355.8,-16695.8,-17.3471,-40.0641,-39.2483,0
32194,773.57,774.98,765.14,776.65,772.58,-26.86,-881.84,533.69,-1.05,1.25,-0.18,-319.2,6440,0,82,40.5676,5.93524,-410.158,14584.6,-15943.9,-554.645,-38.8725,-35.5585,0
32230,773.31,775,765.11,776.79,772.55,-25.88,-885.74,523.44,-2.01,-0.96,-1.98,-321.18,6447,0,82,40.789,5.00033,-409.924,13965.9,-15770.9,-650.84,-38.4727,-34.0696,0
32268,773.52,775.15,765.25,777.01,772.73,-32.23,-879.88,535.64,-0.31,2.16,0.97,-322.8,6455,0,82,41.419,4.41506,-411.429,13852.3,-15781.7,-562.781,-38.3582,-33.6688,0
32305,773.35,775.01,765.17,777.16,772.67,-11.23,-894.04,508.79,-0.41,-2.62,-3.05,-325.43,6462,0,82,41.8913,2.95594,-416.303,14279.8,-16123.8,-412.526,-38.7308,-34.3012,0
32341,773.25,774.69,765.24,777.2,772.59,-28.81,-881.35,526.86,-0.44,-0.53,-1.61,-321.2,6469,0,82,44.5881,1.33504,-423.189,14448.5,-16285.5,-22.1675,-38.4829,-34.142,0
32377,772.72,774.02,765.04,776.7,772.12,-21.97,-866.7,540.04,-1.06,-2.12,2.11,-311.74,6476,0,82,43.4903,-0.40154,-420.757,14321.1,-16308.9,111.225,-38.761,-34.0365,0
32413,772.23,773.4,765.03,776.99,771.91,-31.25,-897.95,509.28,-0.37,-1.61,-1.82,-309.47,6484,0,82,41.2737,-1.31026,-413.123,13932.3,-16192.8,170.175,-39.1961,-33.7244,0
32452,770.74,772.96,765.29,777.67,771.66,-7.81,-885.25,523.93,-0.51,-1.83,-4.35,-304.4,6491,0,82,38.4463,-3.3892,-397.902,13492.5,-15880.5,448.754,-39.9106,-33.909,0
32488,769.04,772.7,765.78,779.04,771.64,-26.37,-901.37,528.32,-2.92,4.07,-10.85,-304.42,6499,0,82,36.562,-1.66421,-390.21,11917.1,-15461.2,338.889,-39.6226,-30.5392,0
32524,766.03,772.81,766.66,780.83,771.58,-19.04,-892.09,523.44,-6.73,4.11,-10.74,-299.48,6506,0,82,35.1044,-0.62774,-379.678,9776.71,-14653.6,227.246,-38.5945,-25.7496,0
32560,763.07,772.89,767.57,782.26,771.45,0,-842.77,536.13,-7.81,7.02,-11.76,-288.46,6513,0,82,35.1122,2.55539,-372.948,6600.21,-13639,-289.22,-36.5705,-17.6967,0
32596,761.14,773.46,768.34,784.02,771.74,5.86,-882.32,510.74,-4.83,-0.74,-7.4,-292.84,6520,0,82,36.0884,9.4905,-363.42,2151.23,-11898.3,-1063.58,-32.7395,-5.91787,0
32632,761.51,773.99,768.33,784.24,772.02,8.79,-809.08,558.59,0.45,-3.98,1.98,-302.17,6527,0,82,38.231,15.7472,-355.128,-1420.23,-10246.4,-1706.52,-28.8532,3.99816,0
32670,762.57,774.08,768.16,783.71,772.13,-20.51,-935.06,488.77,-5.4,-1.45,6.56,-302.81,6535,0,82,41.9132,20.5435,-378.379,-2567.12,-10593.9,-2047.67,-27.9973,6.78596,0
32706,762.69,774.03,768.28,783.33,772.08,-26.86,-902.34,515.14,-9.74,3.56,-2.42,-294.13,6542,0,82,42.6076,12.6682,-402.342,-115.207,-12065.7,-1351.65,-29.9885,0.288065,0
32742,762.12,773.7,768.33,782.91,771.77,-2.44,-872.07,492.68,-10.44,5.61,-1.5,-282.25,6549,0,82,41.8443,8.04139,-406.4,1259.92,-12547.8,-743.526,-30.8755,-3.10025,0
32778,761.87,773.28,768.27,782.17,771.4,-13.18,-882.32,528.81,-4.7,0.59,-2.83,-268.57,6557,0,82,41.498,12.3626,-394.857,-68.8265,-11631.5,-899.325,-29.4571,0.175127,0
32814,761.93,772.94,768.24,781.09,771.05,-13.67,-860.84,525.88,-6.89,-0.27,1.79,-250.85,6564,0,82,39.5737,14.1847,-382.372,-914.92,-10925.5,-1046.01,-28.5732,2.39312,0
32850,761.98,772.41,767.88,779.34,770.4,-8.79,-883.3,478.03,-13.34,-3.37,2.68,-230.06,6571,0,82,35.1585,15.9682,-368.573,-1332.83,-10464,-1026.63,-28.3905,3.61598,0
32888,762.57,772.24,767.72,778.3,770.21,-37.11,-907.71,485.35,-11.26,-1.02,2.73,-219.35,6579,0,82,33.5187,9.71369,-360.385,-957.564,-10116.6,-748.8,-28.0717,2.65749,0
32925,763.17,772.12,767.6,776.79,769.92,-8.3,-915.53,493.16,-4.98,1.59,0.98,-201.23,6586,0,82,31.6304,5.97478,-346.393,-194.691,-9780.63,-620.155,-28.2357,0.562007,0
32961,763.37,771.9,767.6,775.51,769.6,-1.95,-908.2,449.71,-0.76,1.08,1.04,-181.32,6593,0,82,31.7149,5.18207,-347.361,494.4,-9822.06,-705.953,-28.276,-1.42302,0
32997,765.35,772.05,767.64,774.7,769.94,-102.05,-888.18,516.11,1.68,-2.17,4.4,-176.38,6600,0,82,29.1425,-2.19245,-339.058,1038.78,-9606.99,-635.425,-28.3338,-3.06221,0
33033,766.29,772.13,767.56,774.11,770.02,-2.93,-935.06,449.71,27.92,-9.61,-3.02,-173.72,6608,0,82,31.2351,1.90745,-349.772,2641.78,-10305.8,-1316.12,-29.4631,-7.54955,0
33069,768.4,772.93,767.56,774.04,770.73,-1.46,-908.2,485.84,11.06,-3.26,2.43,-186.34,6615,0,82,30.9869,-7.63216,-361.173,3896.51,-10907.4,-736.183,-30.1997,-10.7884,0
33108,769.77,773.07,767.38,774.04,771.06,-43.46,-940.43,464.36,9.34,-1.44,-9.14,-196.6,6623,0,82,29.5676,-7.35826,-376.951,5608.35,-12057.6,-1466.07,-31.9857,-14.8755,0
33144,769.55,773.5,767.75,774.58,771.35,-9.28,-861.33,522.46,4.36,0.27,-9.27,-198.05,6630,0,82,35.5294,-6.29549,-410.829,8841.53,-14057,-1848.69,-34.2163,-21.5212,0
33181,769.91,774.5,768.05,775.16,771.9,25.88,-943.36,497.56,30.42,-5.72,-12.49,-208.21,6637,0,82,28.6854,-11.888,-401.863,8204.88,-13904.9,-1934.37,-34.6011,-20.4167,0
33217,770.15,775.21,767.6,775.49,772.11,-17.09,-865.23,542.97,7.09,-6.71,-3.26,-230.91,6644,0,82,31.9364,-5.55594,-419.843,7496.56,-14153.8,-2469.14,-33.7119,-17.8563,0
33253,769.69,776.56,767.38,777.63,772.82,-54.2,-883.79,502.93,9.21,-1.91,-7.28,-277.06,6652,0,82,28.6845,-0.303103,-436.697,8326.85,-15216.3,-3559.83,-34.844,-19.0681,0
33292,770.39,777.48,767.29,780.74,773.97,19.04,-842.77,616.21,27.96,-2.85,-8.57,-334.81,6659,0,82,28.5396,-7.01501,-427.52,8762.28,-15056.2,-3134.34,-35.2175,-20.4958,0
33328,769.53,777.94,767.47,783.44,774.6,-42.48,-896.48,534.67,2.04,-3.63,-5.51,-370.86,6667,0,82,30.062,-2.47188,-441.819,8779.95,-15794.4,-3347.99,-35.7472,-19.8709,0
33365,768.54,778.11,767.85,786.5,775.25,-13.67,-834.47,562.5,10.49,-6.67,-10.31,-404.37,6674,0,82,24.5657,-6.72902,-466.158,10152.8,-17736,-3362.18,-38.047,-21.7798,0
33401,767.27,777.85,768.29,788.99,775.6,3.91,-827.64,586.43,3.28,-2.41,-7.81,-423.84,6681,0,82,26.5627,-7.3595,-467.069,7928.21,-17452.4,-2909.04,-37.3656,-16.975,0
33437,765.07,777.25,768.72,791.6,775.66,56.15,-883.79,580.08,3.71,0.86,-5.44,-438.93,6688,0,82,27.2817,-4.75655,-471.745,5843.99,-17430.5,-2770.01,-36.949,-12.3883,0
33473,762.83,776.52,769.56,794.41,775.83,24.9,-871.09,608.89,-0.18,4.4,-11.09,-445.88,6696,0,82,31.2601,-8.07166,-458.271,1936.32,-16084.2,-2043.75,-35.0972,-4.22422,0
33512,759.74,775.46,770.68,796.33,775.55,100.1,-804.2,580.57,-0.89,1.41,-13.85,-427.27,6703,0,82,28.139,-12.6938,-446.534,-963.263,-15267.3,-1348.7,-34.1907,2.15711,0
33548,757.92,775.06,771.99,799.87,776.21,74.22,-839.84,558.59,11.26,-5.32,-15.65,-437.15,6711,0,82,26.2074,-11.9658,-427.577,-6190.04,-13191.2,-1559.87,-30.8502,14.4797,0
33584,756.64,775.02,773.49,802.22,776.84,-21.97,-873.54,599.61,4.74,-6.31,-22.4,-429.8,6718,0,82,23.2604,-13.7752,-415.897,-9757.02,-11821.3,-1720.56,-28.4237,23.4602,0
33620,755.97,774.21,775.05,802.1,776.83,47.36,-835.45,606.93,0.02,-8.31,-26.19,-380.37,6725,0,82,26.4062,-8.78798,-442.942,-12213.1,-12224.2,-2601.71,-27.5981,27.5713,0
33656,755.39,773.42,776.77,801.31,776.72,82.52,-877.44,543.95,2.1,-14.91,-25.04,-317.42,6732,0,82,29.6086,-1.19064,-459.439,-15381.8,-11766.4,-3822.54,-25.6104,33.4794,0
33692,755.35,773.13,778.78,801.69,777.24,180.18,-820.31,498.54,14.46,-4.63,-30.98,-270.6,6739,0,82,30.77,-0.57944,-466.324,-17942.5,-11171.6,-4136.39,-23.9567,38.4763,0
33731,755.21,773.16,780.67,800.82,777.46,97.17,-806.15,671.39,19.12,-0.61,-25.99,-210.38,6747,0,82,35.2432,8.76636,-483.674,-20878.2,-10851.8,-4873.3,-22.4366,43.165,0
33767,755.02,772.14,781.85,799.36,777.09,189.45,-802.73,600.59,19.08,-13.45,-22.18,-150.53,6754,0,82,42.0058,25.6078,-518.121,-23755.9,-11432.8,-6934.26,-22.0662,45.8495,0
33803,755.08,772.1,782.98,802.1,778.07,263.18,-658.2,510.74,20.15,3.07,-10.94,-162.63,6762,0,82,47.9318,30.4981,-538.062,-26180.1,-11525.8,-8244.95,-21.421,48.6564,0
33839,755.08,772.94,783.91,804.46,779.1,126.95,-714.84,744.14,10.05,10.89,4.48,-181.03,6769,0,82,54.1776,40.328,-543.793,-27792.6,-11478.8,-8838.85,-21.1087,51.1087,0
33876,754.95,772.78,783.76,802.74,778.56,122.07,-801.76,666.02,-5.84,-0.74,6.22,-157.74,6776,0,82,59.5365,47.9325,-586.527,-29557,-12903.4,-10189.2,-21.9997,50.3939,0
33915,754.37,771.59,783.34,797.62,776.73,119.63,-816.89,646.97,-10.57,1.42,5.61,-81.24,6784,0,82,63.8646,39.4896,-616.186,-30296.8,-13665.5,-10178.8,-22.1776,49.1682,0
33951,753.97,769.91,782.18,793.59,774.91,181.64,-734.86,550.78,-8.24,-6.47,9.56,-36.04,6791,0,82,60.9977,34.3825,-593.534,-29633.2,-12644.2,-9083.73,-21.3025,49.927,0
33987,753.78,769.34,780.66,793.21,774.25,156.74,-768.07,513.18,-6.21,7.73,18.74,-63.12,6798,0,82,53.223,32.4084,-546.063,-28580.6,-10689.7,-8280.97,-19.5752,52.3408,0
34023,753.74,769.93,779.05,796.37,774.77,133.3,-759.28,655.27,-6.28,25.91,33.53,-154.25,6806,0,82,44.0033,30.6995,-486.856,-26257.3,-9062.69,-6803.69,-18.6153,53.9317,0
34059,753.71,770.52,777.42,797.94,774.9,35.16,-911.62,598.63,-3.84,15.11,32.74,-222.61,6813,0,82,37.4296,22.985,-457.223,-23719.8,-9174.18,-5991.07,-20.0653,51.8774,0
34095,753.8,771.12,775.47,798.48,774.72,66.89,-845.21,581.54,7.95,14.02,24.46,-284.3,6820,0,82,35.0232,9.03584,-458.055,-20780.7,-10065,-5082.35,-21.9734,45.3672,0
34134,754.65,771.35,773.24,797.22,774.11,5.86,-860.35,753.42,17.01,-4.24,18.59,-326.04,6828,0,82,33.511,3.74157,-449.051,-17679.7,-10669.4,-4113.34,-23.7601,39.3705,0
34170,756.16,771.29,771.75,795.15,773.59,54.2,-758.79,613.77,-1.07,-0.5,14.5,-337.17,6835,0,82,28.3334,4.78333,-439.041,-13908,-11932.2,-3608.95,-27.1784,31.6769,0
34206,758.13,771.26,770.55,792.43,773.09,43.95,-883.79,595.7,-2.76,-2.12,13.85,-333.71,6842,0,82,25.6544,-1.63129,-430.472,-8532.26,-13610.5,-2308.09,-31.6181,19.8193,0
34243,760.84,770.84,769.04,789.23,772.49,44.43,-740.23,641.6,-6.36,-2.77,17.93,-330.26,6850,0,82,25.3615,-4.43829,-428.522,-3686.22,-15050.9,-1541.28,-35.1231,8.60157,0
34279,764.2,770.64,767.61,786.02,772.12,20.51,-829.59,607.42,-11.37,-1.37,21.49,-328.71,6857,0,82,22.7896,-4.20143,-427.015,513.51,-16333.1,-1166.1,-38.2493,-1.2021,0
34315,767.01,770.28,766.3,783.06,771.66,19.53,-856.93,592.77,-16.76,-0.27,18.05,-324.28,6864,0,82,22.0047,-11.6573,-429.747,5718.31,-18200.3,-192.062,-42.3508,-13.305,0
34354,769.87,769.9,765.44,780.95,771.54,-16.6,-833.01,586.91,-21.73,3.22,18.51,-321.45,6872,0,82,21.5428,-19.1229,-431.168,11219.2,-19689.4,856.503,-45.6654,-26.0226,0
34390,772.02,769.7,764.86,779.29,771.47,-13.67,-833.5,606.45,-18.65,5.15,11.98,-317.36,6879,0,82,22.0547,-23.0306,-428.74,15074.4,-20490.3,1410.36,-47.7919,-35.1593,0
34426,773.17,769.67,764.59,777.96,771.35,-38.09,-856.45,562.5,-22,4.39,7.49,-308.29,6886,0,82,24.0599,-24.0928,-426.14,17614.6,-20773.1,2047.03,-48.747,-41.3346,0
34462,773.39,769.61,764.29,776.28,770.89,-11.72,-833.98,564.94,-12.78,2.69,4.01,-291.16,6893,0,82,25.1548,-25.1285,-427.595,19684.4,-21112.9,2022.2,-49.376,-46.0354,0
34498,773.56,769.21,763.98,773.97,770.18,-2.93,-912.11,587.4,-21.73,5.5,6.92,-262.32,6901,0,82,29.2909,-22.845,-413.142,19616.1,-19934.5,1867.32,-48.2506,-47.4804,0
34534,773.75,769.26,763.86,772.94,769.95,-94.73,-901.37,517.58,-20.98,7.29,-4.02,-251.02,6908,0,82,32.3486,-20.452,-396.947,19708.8,-18973.4,1640.08,-47.7987,-49.652,0
34572,771.88,769.46,763.83,772.1,769.32,-50.29,-888.67,548.34,-15.13,4.08,-3.35,-234.88,6915,0,82,36.2589,-22.9076,-378.259,20382,-17924.7,1890.6,-47.3874,-53.8843,0
34608,769.9,769.88,764.01,772.12,768.98,-33.2,-880.86,508.79,-4.98,1.43,-4.25,-227.1,6923,0,82,40.0555,-16.3076,-338.705,16495.6,-14774,1040.94,-43.6182,-48.7009,0
34645,768.67,770.38,764.41,772.47,768.98,-65.43,-896.97,504.88,-18.47,5.35,-5.37,-222.17,6930,0,82,40.701,-11.7261,-309.794,13520.9,-12794.9,613.614,-41.2998,-43.6423,0
34681,765.51,770.27,764.75,772.34,768.22,-38.09,-931.64,466.8,-27.36,9.18,-7.35,-199.95,6937,0,82,43.0829,-7.15941,-309.5,12208,-12131.6,355.504,-39.1972,-39.444,0
34717,763.72,770.37,764.99,772.68,767.94,-11.72,-897.95,521.97,-18.97,6.27,-3.6,-193.77,6944,0,82,45.066,-6.06569,-298.725,9279.33,-10498.7,71.2608,-35.1433,-31.0591,0
34756,762.87,770.14,765.16,772.82,767.75,-4.88,-890.14,503.42,6.31,-0.12,-5.24,-186.69,6952,0,82,45.2532,-0.372367,-267.303,4961.23,-7994.88,-357.646,-29.9094,-18.5603,0
34792,762.92,769.57,765.04,772.86,767.6,-25.39,-924.32,479.98,1.73,-3.84,1.54,-185.91,6959,0,82,44.6429,-1.7967,-269.14,3990.66,-7782.55,-382.531,-28.9165,-14.828,0
34828,764.21,768.99,764.71,772.7,767.65,-4.39,-818.36,550.29,17.41,-7.18,3.11,-191.63,6967,0,82,41.2654,0.607629,-267.726,3826.31,-8062.41,-552.058,-30.1144,-14.2918,0
34864,766.18,768.94,764.42,772.45,768,-28.81,-888.18,516.11,5.61,-5.1,6.59,-201.46,6974,0,82,36.377,2.24003,-273.68,5197.05,-9324.57,-307.943,-34.0694,-18.9867,0
34900,767.45,769.11,764.28,772.43,768.32,-10.25,-855.47,531.25,7.03,-2.89,0.46,-210.49,6981,0,82,31.22,1.30512,-296.857,8650.71,-11654.7,13.6673,-39.259,-29.1382,0
34937,769.01,769.7,764.15,772.37,768.81,-25.88,-871.09,541.02,3.86,0.22,1.42,-222.7,6988,0,82,30.8284,0.247026,-314.246,11333.7,-13199.8,133.433,-42.0046,-36.066,0
34976,770.33,770.52,764,772.17,769.25,-46.88,-875.98,512.21,2.11,-0.89,-0.15,-234.59,6996,0,82,29.6254,-1.7396,-328.435,13603.1,-14492,-154.033,-44.1243,-41.4168,0
35012,772.41,771.29,763.93,771.74,769.84,-32.23,-852.05,544.43,4.85,-1.08,-0.78,-243.44,7003,0,82,33.7999,-2.03613,-341.912,15225.8,-14858.1,-191.575,-43.4558,-44.5309,0
35048,774.57,771.45,763.73,770.83,770.14,-25.88,-878.42,542.97,3.82,-0.69,1.54,-243.8,7011,0,82,37.3057,-2.72181,-360.023,17424.8,-15724.5,-89.6849,-43.6755,-48.3975,0
35084,777.56,771.61,763.41,770.21,770.7,-34.18,-890.62,518.55,3.11,2.82,-0.51,-254.11,7018,0,82,40.4167,-3.42841,-374.143,19537.1,-16473.4,-58.9493,-44.0298,-52.218,0
35120,779.82,772.01,763.46,770.29,771.4,-55.66,-888.18,525.88,-0.59,-1.66,-0.63,-264.98,7025,0,82,41.2264,-5.87716,-380.801,22036.5,-17054.2,354.378,-44.7847,-57.8679,0
35156,779.95,772.12,763.43,770.23,771.43,-25.39,-882.32,541.02,-3,1.74,1.08,-266.21,7032,0,82,41.2942,-8.05034,-395.715,24412.8,-17993.4,574.267,-45.4707,-61.692,0
35196,778.88,772.56,763.66,770.77,771.47,-21.48,-881.84,535.16,-5.73,-1.73,-1.24,-268.4,7040,0,82,39.7283,-9.53088,-403.401,24836.9,-18195.6,245.479,-45.1055,-61.5686,0
35232,777.24,773.19,764.03,772.14,771.65,-64.45,-890.62,492.19,-8.99,0.73,-3.31,-278.58,7047,0,82,40.2186,-10.1245,-398.96,24171.9,-17609.5,384.231,-44.1386,-60.5871,0
35268,775.82,773.77,764.6,773.37,771.89,-17.58,-885.74,525.88,-4.86,2.35,-5.53,-282.27,7055,0,82,43.0165,-7.59577,-388.614,21275.7,-16295.2,334.909,-41.9315,-54.7473,0
35304,775.02,774.19,764.85,774.12,772.04,-19.04,-865.23,551.27,2.26,0.1,-3.15,-287.57,7062,0,82,44.1371,-4.40843,-396.557,18738.3,-15919.7,-26.9473,-40.1449,-47.2531,0
35340,774.55,774.47,765.15,774.79,772.24,-31.74,-877.93,506.35,-2.8,-1.47,-2.22,-290.67,7069,0,82,43.0744,-2.6965,-407.007,17396.5,-16107.4,-695.745,-39.5752,-42.7428,0
35377,773.69,774.63,765.41,775.09,772.2,-15.63,-858.4,545.9,-4.02,0.81,-2.43,-287.1,7076,0,82,43.2791,-0.445514,-415.961,16674.2,-16264.6,-855.525,-39.1016,-40.0862,0
35415,773.03,774.79,765.58,775.39,772.2,-19.04,-871.09,534.18,-4.1,1.14,-0.76,-286.41,7084,0,82,46.0743,1.0169,-419.303,15314.2,-15806,-707.375,-37.696,-36.523,0
35452,772.52,774.86,765.83,776.14,772.34,-35.16,-893.07,508.3,-6.08,0.76,-1.79,-289.89,7091,0,82,46.6413,-0.315783,-416.221,14310,-15251.9,-671.956,-36.6436,-34.3808,0
35488,771.53,774.89,766.13,776.7,772.31,-22.46,-873.54,522.46,-4.99,0.57,-2.76,-287.45,7099,0,82,47.1629,-1.7696,-417.828,13649.5,-15152,-605.1,-36.2639,-32.6679,0
35524,770.87,774.63,766.25,777.02,772.19,-21.97,-877.93,539.55,-1.82,1.31,-2.46,-284.64,7106,0,82,46.7816,-0.716247,-420.174,12375.9,-14925.2,-859.755,-35.5215,-29.4541,0
35560,770.49,774.33,766.48,777.27,772.14,-34.18,-883.79,520.02,0.39,-0.86,-1.1,-279.04,7113,0,82,45.8943,0.551341,-418.958,11122.2,-14670.9,-1000.61,-35.0176,-26.5473,0
35596,769.6,774.07,766.61,777.75,772.01,-24.9,-889.16,528.32,-4.15,0.49,-2.84,-277.9,7120,0,82,45.7057,0.692464,-418.945,10620.7,-14721.9,-892.083,-35.1404,-25.351,0
35635,768.5,773.8,766.8,778.1,771.8,-19.53,-881.35,528.81,-0.89,-1.01,-3.05,-272.31,7128,0,82,45.6378,2.55839,-415.693,9778.25,-14642.9,-881.619,-35.2253,-23.5227,0
35672,767.83,773.56,767,778.43,771.7,-10.25,-867.68,526.37,-0.95,0.76,-2.7,-267.93,7135,0,82,45.4907,4.74121,-407.864,8196.5,-14054.9,-901.83,-34.4598,-20.096,0
35708,767.29,773.3,767.01,778.58,771.54,-22.95,-884.28,531.25,-0.75,-1.66,-2.1,-266.09,7143,0,82,44.4878,5.54319,-402.62,7077.71,-13706.6,-1087.1,-34.0435,-17.5793,0
35744,766.84,773.03,767.11,778.62,771.4,-5.37,-880.86,532.23,1.87,-1.35,-2.04,-260.43,7150,0,82,43.5992,5.72205,-400.719,6349.87,-13591.4,-1096.44,-33.9176,-15.8462,0
35780,766.66,772.79,767,778.6,771.26,-13.18,-877.44,522.95,-0.47,-1.26,-0.63,-260.37,7157,0,82,43.0507,5.85055,-397.252,5864.67,-13415.6,-964.629,-33.7709,-14.763,0
35819,766.49,772.63,767.16,778.75,771.26,-27.34,-886.23,516.6,-0.43,-3.5,-1.37,-256.66,7165,0,82,42.5767,4.95058,-391.638,5492.34,-13183.9,-1025.25,-33.6635,-14.024,0
35855,765.89,772.39,767.05,778.99,771.08,-18.07,-875.98,522.46,-1.05,0.66,-1.82,-259.09,7172,0,82,42.0542,4.65101,-388.466,5504.24,-13206.4,-976.562,-33.9962,-14.1691,0
35891,765.19,772.35,767.1,779.42,771.02,-24.41,-876.46,529.3,-0.44,1.09,-2.88,-261.13,7179,0,82,41.9953,5.76337,-385.189,4921.23,-13006.3,-920.701,-33.7659,-12.7758,0
35927,764.88,772.38,767.2,779.87,771.08,-13.67,-861.33,538.09,1.29,-0.15,-1.11,-264.54,7186,0,82,41.4505,6.72318,-378.691,4184.25,-12601.4,-853.821,-33.2762,-11.0492,0
35963,764.72,772.6,767.22,780.53,771.27,-10.25,-870.61,521.97,1.57,0.44,-2.86,-275.07,7194,0,82,41.013,9.03403,-374.894,3540.75,-12391.4,-970.456,-33.0531,-9.44471,0
35999,764.73,772.89,767.23,780.8,771.41,-6.84,-856.45,537.11,1.14,1.43,-1.08,-281.05,7201,0,82,41.0932,10.3329,-377.241,3513.2,-12504.4,-1032.52,-33.1471,-9.31308,0
36038,765.2,773.41,767.13,780.5,771.56,-12.7,-859.86,521.97,-1.59,0.44,1.28,-284.9,7209,0,82,41.4667,12.9576,-382.198,3390.63,-12581,-1203.73,-32.9174,-8.87131,0
36074,765.66,773.45,766.89,779.68,771.42,-30.27,-879.39,523.44,-1.96,0.34,2.66,-280.73,7216,0,82,43.0904,13.1826,-389.935,3819.07,-12878.6,-1166.23,-33.0276,-9.7936,0
36110,766.05,773.21,766.53,778.33,771.03,-12.7,-857.91,540.04,-2.85,-1.16,1.18,-269.24,7223,0,82,44.8859,12.2804,-396.288,5015.2,-13274,-1127.79,-33.4958,-12.6554,0
36146,766.64,772.72,765.99,776.85,770.55,-9.77,-873.54,536.13,-1.3,1.08,4.88,-258.89,7230,0,82,43.9853,11.6247,-387.902,5918.54,-13087.1,-937.256,-33.7381,-15.2581,0
36182,767.4,772.37,765.47,775.35,770.15,-10.74,-888.67,524.41,-1.28,-4.05,4.36,-249.75,7237,0,82,41.1742,10.5018,-371.744,6842.26,-12822.7,-880.935,-34.4934,-18.4063,0
36219,768.68,771.97,765.1,774.62,770.09,-24.41,-897.95,512.21,4.4,0.43,3.95,-249.2,7245,0,82,38.1986,7.88403,-356.798,8458.12,-12686.5,-523.635,-35.557,-23.7068,0
36257,768.92,771.63,765.04,774.43,770.01,-39.55,-896,530.76,-2.37,0.99,2.29,-246.07,7252,0,82,35.6546,3.52717,-350.066,10355.7,-12986.8,-183.412,-37.0983,-29.5822,0
36294,767.98,771.46,765.22,774.35,769.75,-24.41,-870.61,545.9,-5.22,3.56,-3.77,-235.79,7260,0,82,32.7921,1.02505,-347.743,11689.3,-13382.7,49.116,-38.4844,-33.6148,0
36330,766.87,771.45,765.44,774.31,769.52,-7.81,-879.39,519.53,-7.87,4.29,-2.06,-225.97,7267,0,82,30.7511,0.663951,-335.132,10412.3,-12562.4,29.9348,-37.485,-31.0676,0
36366,766.4,771.8,765.83,775.03,769.77,-44.92,-881.84,490.23,-5,-1.19,-2.48,-227.91,7274,0,82,29.8618,0.292052,-323.69,8405.87,-11520.6,-65.8121,-35.5911,-25.9677,0
36402,765.44,772.13,766.49,776,770.01,-71.78,-947.27,480.96,-12.25,-2.2,-3.61,-225.19,7281,0,82,30.8736,-3.72649,-318.374,6922.27,-10550.2,-1.7878,-33.1379,-21.743,0
36438,764.59,772.34,766.92,776.13,770,12.21,-816.89,532.23,0.53,-1.79,-3.46,-215,7289,0,82,33.8152,-3.57936,-334.235,5831.07,-10419.8,208.006,-31.1755,-17.4466,0
36477,764.8,772.19,767.57,776.99,770.39,-41.99,-1021,427.73,-19.98,-1.88,2.73,-211.04,7296,0,82,34.6031,4.28426,-335.143,2976.25,-9531.11,49.1968,-28.439,-8.88127,0
36513,763.93,772.93,768.76,778.25,770.97,-14.65,-853.52,519.04,-9.31,2.85,-10.9,-202.99,7304,0,82,32.4788,1.60466,-346.929,2976.93,-9940.35,390.384,-28.6527,-8.58036,0
36549,762.19,772.87,769.06,777.34,770.36,30.27,-877.93,471.19,-12.61,1.13,-1.43,-175.82,7311,0,82,34.3082,8.00389,-367.221,1610.96,-10059.8,218.113,-27.3951,-4.39005,0
36586,764.78,772.23,768.26,775.2,770.12,22.46,-820.31,551.76,35.68,-15.7,13.28,-168.05,7318,0,82,34.0019,13.031,-372.674,-2081.83,-9098.81,-331.47,-24.4144,5.58752,0
36622,766.03,772.07,768.42,774.69,770.3,-120.12,-1047.85,386.72,-6.56,1.94,-5.73,-159.29,7325,0,82,34.4933,14.4153,-367.86,-1875.64,-8997.54,-289.808,-24.4592,5.0986,0
36660,766,771.98,768.51,774.17,770.16,20.51,-749.02,583.01,10.77,-3.95,0.6,-148.74,7333,0,82,32.0195,-7.10381,-388.499,5096.37,-11841.9,751.887,-30.4811,-13.118,0
36696,768.2,772.26,767.88,773.72,770.51,-46.39,-997.56,450.68,11.22,5.01,-0.53,-167.58,7340,0,82,30.993,-0.184018,-368.825,1983.99,-10246.6,-281.602,-27.7816,-5.37839,0
36733,769,772.76,768.08,774.53,771.09,-25.88,-869.63,483.89,3.97,-2.52,-9.85,-181.29,7348,0,82,31.8901,-3.02318,-393.047,5024.14,-11975.6,-458.182,-30.4678,-12.7799,0
36769,771.1,773.46,768.11,774.45,771.78,-15.14,-901.86,570.31,11.66,-0.77,-4.49,-192.2,7355,0,82,26.1304,-10.463,-395.368,7592.84,-13138.8,-714.986,-33.2323,-19.2048,0
36805,769.91,773.27,767.89,773.74,771.2,-1.95,-882.81,535.16,12.35,-3.85,-8.85,-181.57,7362,0,82,31.4512,2.01293,-435.653,8998.3,-15040.1,-1955.95,-34.5218,-20.6513,0
36841,771.12,774.45,767.36,774.65,771.89,6.84,-859.37,582.52,26,1.36,-6.37,-221.59,7369,0,82,28.9627,-3.82084,-433.86,8508.36,-14901.2,-2211.55,-34.345,-19.6082,0
36880,771.77,776.52,766.25,776.34,772.72,-24.41,-916.99,527.83,11.21,-2.14,-4.53,-293.05,7377,0,82,22.8304,-4.63682,-412.722,8153.48,-14443,-2833.58,-34.9927,-19.7496,0
36916,771.13,777.33,765.95,779.03,773.36,4.39,-814.94,542.48,27.37,-0.99,-10.4,-344.51,7384,0,82,22.6629,-6.12363,-443.414,12409.4,-16900.8,-3101.02,-38.115,-27.9855,0
36952,771.24,778.04,766.15,781.82,774.31,54.2,-818.85,596.19,17.53,-4.38,-5.81,-386.72,7391,0,82,18.6288,-15.6912,-428.01,12517.5,-16573.2,-2372.88,-38.7215,-29.2454,0
36988,770.92,778.29,766.46,784.36,775.01,30.76,-866.7,572.27,10.52,-1.98,-5.28,-417.09,7399,0,82,13.6622,-11.884,-448.282,13227.1,-18357.8,-2833.97,-40.9514,-29.5065,0
37024,769.56,778.69,766.98,787.34,775.64,37.6,-838.38,611.33,3.89,-2,-9.04,-446.69,7406,0,82,16.5254,-9.79034,-469.502,12967.1,-19448.3,-2539.03,-41.4234,-27.6193,0
37060,768.48,779.83,767.78,790.29,776.59,3.42,-829.59,612.79,-2.45,2.59,-9.91,-475.55,7413,0,82,14.3879,-11.3838,-472.299,10927.4,-19209.3,-2263.72,-40.6719,-23.1364,0
37099,766.56,780.68,768.92,793.52,777.42,20.02,-868.65,572.27,-1.05,3.84,-13.08,-494.9,7421,0,82,13.8437,-11.4592,-483.786,8230.21,-18810.9,-2396.52,-38.8831,-17.0131,0
37136,763.94,781.39,769.96,796.53,777.95,16.6,-854.98,534.18,-6.4,-0.02,-13.44,-510.13,7428,0,82,18.0197,-7.14022,-492.004,4876.53,-17645.5,-2768.38,-35.8644,-9.9113,0
37172,762.68,782.48,771.1,800,779.06,10.74,-850.1,592.77,-10.78,-1.31,-8.25,-537.05,7435,0,82,20.163,0.527741,-495.042,1056.83,-16391.8,-3478.79,-33.1113,-2.13317,0
37208,761.9,783.64,772.24,803.86,780.41,20.02,-879.88,551.76,4.79,5.36,-13.15,-571.96,7443,0,82,17.6325,3.07248,-498.932,-2968.68,-14999.4,-4188.28,-30.0633,5.94901,0
37245,761.13,785,773.44,807.06,781.66,27.34,-843.75,596.68,-2.6,-0.1,-11.04,-597.45,7450,0,82,19.216,6.34973,-523.802,-5335.12,-15009,-4633.83,-28.6543,10.1847,0
37281,760.6,786.17,774.57,810.55,782.97,67.38,-832.52,573.73,6.48,-0.95,-9.4,-628.37,7457,0,82,19.8041,13.3715,-561.244,-6939.63,-15883.8,-5895.06,-28.3021,12.364,0
37320,760.82,787.37,775.24,812.88,784.08,33.2,-818.36,602.05,5.86,-1.08,-3.42,-656.22,7465,0,82,27.885,24.5301,-598.882,-9372.72,-16049.8,-6751.95,-26.7997,15.6499,0
37356,760.39,787.41,775.74,813.29,784.21,66.41,-846.68,583.01,5.89,-0.56,-3.94,-648.91,7472,0,82,29.0536,30.8174,-638.709,-10219.4,-17316.2,-7694.44,-27.1111,16.0003,0
37392,759.58,786.88,775.55,811.82,783.46,78.61,-812.01,597.17,-5.24,-4.71,2.81,-624.78,7479,0,82,30.3897,29.4694,-666.743,-10699.5,-18156.5,-7675.33,-27.2317,16.0473,0
37428,758.98,785.72,774.76,809.71,782.29,113.28,-817.38,582.52,2.24,0.52,8.14,-602.18,7487,0,82,25.8584,33.5193,-652.587,-12329.5,-17156,-7505.65,-26.289,18.8936,0
37464,758.9,784.27,773.65,807.11,780.98,56.64,-848.14,578.12,5.36,-3.27,11.79,-579.67,7494,0,82,22.9807,27.423,-619.495,-12542.9,-15580,-6311.97,-25.1496,20.2475,0
37503,759.38,782.74,772.2,803.47,779.45,59.57,-835.94,578.12,9.73,-0.59,12.96,-551.59,7502,0,82,16.8994,17.2073,-575.189,-10687.2,-14981.8,-4691.47,-26.0472,18.5795,0
37539,760.33,781.83,771.19,800.49,778.46,60.55,-769.53,625,3.69,2.02,11.7,-528.8,7509,0,82,11.8143,9.03721,-538.402,-8059.94,-14847.3,-3450.66,-27.5772,14.9682,0
37575,761.18,780.87,770.25,797.39,777.42,55.18,-881.35,556.64,0.8,0.32,10.31,-501.81,7516,0,82,6.394,1.88557,-508.535,-4869.14,-15180.7,-2594.08,-29.8523,9.57354,0
37611,762.22,780.24,769.74,795.82,777,21.97,-828.12,626.46,-6.15,0.16,12.44,-489.95,7523,0,82,8.48367,-7.65527,-495.086,-1902.21,-15421,-1624.5,-31.1481,3.84116,0
37646,762.27,779.84,769.72,794.83,776.66,2.93,-866.7,583.5,-17.63,5.82,5.49,-472.68,7530,0,82,7.8787,-9.87767,-477.932,614.259,-15597.2,-1108.59,-32.6351,-1.28602,0
37682,761.95,779.68,769.72,793.85,776.3,44.92,-842.29,576.66,-14.73,-0.02,4.02,-455.86,7537,0,82,9.12681,-13.7407,-473.77,2191.69,-15743.8,-602.591,-33.231,-4.62603,0
37721,762.06,779.58,769.5,792.93,776.02,27.34,-865.72,549.32,-10.53,-0.41,6.63,-447.53,7545,0,82,15.4206,-6.54802,-458.157,1203.63,-14280.3,-941.455,-31.1689,-2.6269,0
37757,762.16,779.92,769.38,792.15,775.9,-4.88,-877.44,559.08,-24.71,4.99,6.66,-442.13,7552,0,82,18.8146,-1.47688,-450.413,1150.96,-13620,-1143.52,-30.2389,-2.55537,0
37793,762.47,780.2,769.41,791.66,775.94,-0.49,-874.51,533.2,-13.64,4.05,3.45,-437.35,7560,0,82,20.3855,-1.35362,-448.884,1997.93,-13511.1,-1024.22,-30.0993,-4.45094,0
37829,762.42,779.94,769.42,791.23,775.75,11.23,-845.7,568.85,-9.34,1.14,4.23,-428.57,7567,0,82,23.9316,-1.5161,-449.955,2197.92,-13031.1,-1134.87,-28.9609,-4.88472,0
37865,762.58,779.41,769.45,790.58,775.51,8.3,-884.28,525.88,-9.9,-0.13,5.5,-414.76,7574,0,82,25.9126,2.4074,-449.547,2153.81,-12620.7,-1322.33,-28.0742,-4.79095,0
37901,762.93,779.51,769.13,789.21,775.2,-8.3,-882.32,539.06,-7.9,3.33,3.63,-404.4,7581,0,82,26.629,1.8646,-448.723,2698.28,-12766.8,-1086.07,-28.4514,-6.01324,0
37940,763.57,779.57,768.62,787.13,774.72,12.21,-804.2,561.04,-5.54,3.9,6.56,-389.17,7589,0,82,31.1552,5.27242,-448.679,3372.74,-12827.5,-1431.46,-28.5895,-7.51729,0
37976,765.17,779.86,768.05,784.84,774.48,-41.99,-879.88,539.55,-15.35,0.12,14.55,-377.67,7596,0,82,32.9879,6.25617,-441.9,4023.9,-12533.3,-1281.89,-28.3623,-9.10584,0
38012,765.02,779.58,767.9,783.01,773.88,-52.25,-935.55,450.2,-11.15,1.79,-3.04,-351.62,7603,0,82,35.9615,7.04747,-439.87,6219.15,-13066.3,-1350.96,-29.7047,-14.1382,0
38048,765.81,778.79,767.07,780.22,772.98,21.48,-798.34,580.08,0.74,0.63,7.76,-327.56,7611,0,82,42.7469,-1.6353,-430.795,8385.29,-12983,-450.751,-30.1363,-19.464,0
38084,768.43,778.3,766.31,777.89,772.74,-27.83,-908.2,499.51,2.55,1.92,3.15,-317.25,7618,0,82,45.8502,12.3649,-407.678,7236.61,-11675.3,-1300.82,-28.6388,-17.7512,0
38121,771.58,777.72,765.75,776.02,772.77,-90.82,-942.87,460.94,-0.52,-1.55,1.38,-309.92,7625,0,82,49.3071,7.29033,-401.772,10554.5,-12170.6,-469.869,-30.2921,-26.2688,0
38160,772.01,777.53,765.36,774.43,772.33,-39.55,-865.72,558.11,0.04,1.59,2.91,-296.1,7633,0,82,48.4263,3.6275,-405.734,14973.3,-13553.1,173.913,-33.403,-36.9019,0
38196,771.72,776.99,764.93,772.96,771.65,-42.48,-903.81,489.75,-5,5.63,-0.56,-279.95,7640,0,82,47.6329,0.342883,-387.374,15324.8,-13031.2,370.267,-33.6396,-39.5612,0
38232,772.26,776.47,764.53,771.87,771.28,3.42,-920.9,458.98,-3.54,5.51,-1.21,-271.31,7647,0,82,49.8421,-2.52655,-375.889,15769.4,-12576.7,590.323,-33.4583,-41.9505,0
38268,773.9,775.75,764.25,771.53,771.36,-36.62,-888.18,530.27,5.34,-4.16,2.48,-273.43,7655,0,82,46.1176,-4.99979,-357.203,16318.2,-12317.3,508.588,-34.4827,-45.6836,0
38304,776.74,774.77,763.87,771.2,771.64,-20.02,-871.58,526.37,6.39,-4.77,0.03,-279.82,7662,0,82,41.3008,-6.85538,-351.757,17453,-12767.5,215.918,-36.2959,-49.6158,0
38341,779.63,774.73,763.88,771.06,772.32,-25.39,-867.19,555.66,5.08,-0.66,0.22,-287.16,7669,0,82,38.0553,-2.71893,-366.504,19713.6,-14407.4,327.043,-39.3097,-53.7872,0
38380,781.59,775.32,763.91,771.14,772.99,-34.67,-865.23,546.39,-7.25,1.89,-0.63,-298.96,7677,0,82,34.6283,-0.241164,-386.382,22990.8,-16372.4,615.745,-42.3731,-59.5017,0
38416,782.76,776.91,764.32,771.93,773.98,-52.73,-879.88,523.93,-8.27,6.07,-4.36,-317.29,7684,0,82,34.2177,2.31042,-404.107,24832.4,-17449.4,145.662,-43.1802,-61.4497,0
38452,782.53,778.71,764.73,772.74,774.68,-33.2,-879.88,516.6,-8.73,6.5,-3.4,-332.4,7691,0,82,35.0536,0.771633,-420.525,25620.7,-17784.4,-461.402,-42.2915,-60.9253,0
38488,781.62,779.92,765.2,773.48,775.05,-29.3,-885.74,517.58,-6.14,2.97,-1.86,-338.33,7699,0,82,42.4701,0.694254,-448.228,25620.9,-17665.3,-878.777,-39.4122,-57.1615,0
38524,780.3,780.23,765.52,774.1,775.04,-23.93,-894.04,511.23,-3.02,2.58,-5.52,-337.52,7706,0,82,47.2834,-4.01859,-463.53,24665.8,-17201.8,-761.431,-37.1107,-53.2136,0
38560,778.13,779.92,765.8,774.64,774.62,-18.07,-883.79,521.97,-1.76,-0.4,-3.62,-328.24,7713,0,82,48.8482,-6.48212,-470.316,23119.1,-16656.4,-886.953,-35.4153,-49.1564,0
38599,776.49,779.47,765.97,775.1,774.26,-37.11,-880.86,515.62,-4.44,-1.38,-4.3,-321.75,7721,0,82,46.335,-1.95624,-458.759,19956.1,-15926.4,-1642.28,-34.7162,-43.4988,0
38635,775.22,778.97,766,775.16,773.84,-25.88,-875.98,529.3,-0.16,-0.21,0.82,-313.5,7728,0,82,42.4637,4.92828,-441.497,17247.6,-15327.5,-2194.71,-34.7173,-39.0657,0
38671,775.29,778.65,765.9,775,773.71,-33.2,-885.25,512.21,3.49,-0.36,0.09,-311.43,7735,0,82,43.1756,10.0594,-431.005,15148.9,-14738.8,-2189.41,-34.1966,-35.1476,0
38707,775.88,778.35,765.71,774.41,773.59,-18.07,-875.49,517.09,1.77,-1.14,0.26,-306.79,7742,0,82,44.4087,11.66,-426.413,14602.8,-14564.7,-2091.95,-34.1561,-34.2455,0
38743,776.96,777.93,765.47,773.6,773.49,-20.02,-896.97,503.42,2.37,1.45,4.27,-301.38,7750,0,82,44.264,10.6414,-428.197,15524.8,-15021,-1684.48,-35.0798,-36.2562,0
38782,778.27,777.33,765.01,772.56,773.29,-26.86,-880.86,523.93,2.36,-2.22,1.82,-297.3,7757,0,82,42.0063,5.74572,-424.228,16944.6,-15430,-1575.98,-36.3721,-39.9421,0
38818,780.06,776.55,764.43,771.34,773.09,-28.32,-863.77,531.74,6.84,0.09,2.1,-293.46,7765,0,82,39.8876,1.40922,-424.583,19260.5,-16159.7,-1232.26,-38.0601,-45.3635,0
38855,781.48,775.94,764.14,770.84,773.1,-39.55,-889.16,526.37,3.93,1.63,-1.19,-293.49,7772,0,82,38.8205,-0.442041,-419.476,21155,-16528.1,-937.542,-39.4018,-50.4321,0
38891,782.06,775.52,763.89,770.35,772.95,-37.11,-880.37,523.93,2.16,-1.54,1.75,-291.01,7779,0,82,39.0162,-2.67826,-416.627,23753.2,-17254.7,-424.795,-41.4153,-57.0133,0
38927,782.23,775.05,763.78,769.95,772.75,-25.88,-866.7,543.46,-0.99,0.27,-0.41,-284.79,7786,0,82,37.0264,-2.01044,-410.705,24410.5,-17496.9,-531.028,-42.602,-59.4356,0
38963,782.33,774.71,763.6,769.72,772.59,-33.2,-868.65,524.41,0.21,-0.29,2.45,-283.54,7794,0,82,37.1885,-1.64084,-402,24663.6,-17368.8,-260.944,-43.2062,-61.3523,0
39002,782.37,774.65,763.54,769.67,772.55,-32.23,-889.16,523.93,-0.68,-2.12,1.42,-283.88,7801,0,82,35.968,-2.2365,-392.289,24596.8,-17073.3,-54.1728,-43.5227,-62.7011,0
39038,782.48,774.48,763.51,769.77,772.56,-23.93,-875.49,535.64,1.38,1.5,-0.71,-285.17,7809,0,82,35.2271,-3.23515,-389.115,24695,-17148.4,-31.8182,-44.0703,-63.4646,0
39075,782.82,774.28,763.37,769.67,772.53,-34.67,-879.39,531.74,1.15,-2.21,-3.09,-286.47,7816,0,82,35.3064,-4.11758,-389.445,24583.6,-17224.2,129.102,-44.2278,-63.1248,0
39111,782.9,773.98,763.42,769.86,772.54,-38.57,-884.77,528.81,-0.41,-1.06,-0.24,-286.03,7823,0,82,35.8357,-5.82424,-392.805,24975.1,-17352.5,349.676,-44.1759,-63.5812,0
39148,782.31,773.81,763.5,770.55,772.54,-36.62,-890.62,528.81,1.31,-2.1,-1.85,-290.75,7831,0,82,35.6898,-8.42217,-394.386,25483.5,-17695.9,769.216,-44.8696,-64.6157,0
39184,780.57,774.03,763.8,771.56,772.49,-33.69,-873.05,551.76,-1.07,-1.01,0.1,-293.96,7838,0,82,35.9668,-8.32671,-394.518,24974.4,-17732.2,1014.08,-44.9465,-63.3037,0
39223,778.24,774.4,764.29,773.15,772.52,-27.34,-886.72,526.37,-3.81,-2.33,-5.63,-300.1,7846,0,82,35.6613,-5.96538,-393.833,23169.9,-17663.8,637.099,-44.851,-58.8315,0
39259,776.12,774.74,764.68,774.37,772.48,-25.88,-867.68,524.9,-4.05,-0.55,-2.05,-303.73,7853,0,82,35.6959,-2.1394,-390.671,20344.1,-16926,240.359,-43.3255,-52.0746,0
39295,774.25,775.24,765.12,775.79,772.6,-6.35,-874.51,533.2,-2.46,0.24,-4.98,-311.38,7860,0,82,36.9036,2.58475,-389.141,17270,-16220.7,-46.1277,-41.6833,-44.3799,0
39331,773.07,775.69,765.46,776.59,772.7,-13.67,-875.98,532.71,-1.69,-0.65,-1.21,-314.42,7867,0,82,38.8278,5.2113,-390.73,14981.3,-15531.4,-295.527,-39.75,-38.3426,0
39367,771.96,776.15,765.77,777.19,772.77,-18.55,-882.81,524.9,-4.72,0.47,-2.34,-315.23,7874,0,82,39.9407,6.93526,-395.44,12994.6,-15062.8,-575.036,-38.0914,-32.8615,0
39403,771.24,776.22,765.89,777.51,772.72,-21.97,-871.09,521.97,-3.67,4.91,-0.13,-315.01,7882,0,82,41.3678,6.55879,-399.158,11771,-14760.5,-599.967,-36.9791,-29.49,0
39442,770.4,776.31,766.06,778.08,772.71,-13.18,-876.46,517.58,-3.28,0.7,-0.3,-317.09,7889,0,82,42.2087,4.07903,-398.875,10577.1,-14306.1,-751.366,-35.866,-26.5174,0
39478,769.72,776.21,766.35,779.21,772.87,-41.02,-905.27,496.58,-1.49,-0.49,-2.73,-323.23,7897,0,82,41.5909,1.17376,-398.578,9993.58,-14061.2,-660.036,-35.2785,-25.0731,0
39514,768.34,776.15,766.81,780.62,772.98,-23.93,-900.39,528.32,-0.17,-2.13,-6.53,-327.39,7904,0,82,42.3896,-2.26752,-398.703,9222.64,-13864,-493.435,-34.7728,-23.1316,0
39550,766.39,775.89,767.28,781.87,772.86,-5.86,-880.86,511.23,-0.56,3.77,-4.89,-325.36,7911,0,82,42.4687,-0.852952,-402.679,8166.18,-13862.8,-555.133,-34.4266,-20.2799,0
39586,764.6,775.75,767.79,783.29,772.86,-2.93,-883.3,520.02,-2.3,1.84,-6.26,-326.28,7918,0,82,41.7355,4.15963,-397.119,5552.33,-13171.2,-1037.1,-33.1669,-13.9807,0
39624,762.9,775.45,768.25,784.37,772.74,-5.37,-863.28,523.44,-0.24,0.96,-5.32,-322.47,7926,0,82,41.5698,8.87529,-389.682,2745.39,-12201.5,-1398.3,-31.3115,-7.04468,0
39660,761.88,775.2,768.5,785.04,772.66,-13.67,-893.55,499.51,-2.66,3.12,-1.98,-320.47,7933,0,82,41.8684,13.6933,-386.212,606.836,-11505.6,-1516.66,-29.7909,-1.57096,0
39697,761.06,774.97,768.48,784.69,772.3,0,-854.98,528.32,0.24,2.11,-4.24,-311.3,7940,0,82,41.774,15.4965,-383.393,-991.329,-10977.9,-1680.42,-28.6335,2.58586,0
39733,761.16,774.65,768.24,784.32,772.09,-11.72,-852.54,546.87,4.4,-1.82,0.77,-309.52,7948,0,82,41.8503,17.3363,-378.144,-2303.07,-10491.6,-1957.61,-27.7449,6.09066,0
39769,762.07,774.61,767.76,783.86,772.08,11.72,-868.65,523.93,11.15,-4.63,5.67,-317.63,7955,0,82,41.0234,18.3765,-367.239,-2391.52,-10200,-1833.46,-27.7756,6.51181,0
39805,763.83,775.09,767.39,783.41,772.43,-3.42,-887.21,529.3,6.06,-5.94,8.07,-329.89,7962,0,82,41.5532,18.575,-369.731,-1013.01,-10826.8,-1543.52,-29.2828,2.74015,0
39844,765.82,775.06,766.86,781.92,772.42,-15.14,-857.91,537.11,4.77,-2.53,5.56,-327.82,7970,0,82,40.905,17.4272,-391.269,2746.84,-12873.2,-1264.55,-32.8999,-7.01756,0
39880,767.2,774.75,766.31,780.24,772.13,-16.6,-896,521.97,-0.31,0.19,4.07,-319.27,7977,0,82,42.4354,12.9982,-409.823,5885.35,-14527.2,-818.548,-35.4474,-14.3601,0
39917,767.83,774.23,765.81,778.57,771.61,-31.74,-886.23,521,-0.38,-2.05,5.35,-305.07,7984,0,82,42.1333,9.82909,-412.24,8609.28,-15327.9,-369.171,-37.182,-20.8846,0
39953,768.97,773.71,765.26,776.85,771.2,-24.9,-846.19,555.18,0.6,1.39,7.91,-293.11,7992,0,82,41.018,7.27241,-398.007,10306.9,-15235.4,33.0578,-38.2798,-25.8973,0
39989,770.53,773.01,764.55,774.35,770.61,-14.65,-905.27,543.95,2.98,-1.02,1.49,-273.7,7999,0,82,38.1698,8.63922,-382.571,11279,-15032.3,-11.1664,-39.2929,-29.4826,0
40025,772.61,771.53,763.73,771.51,769.84,-28.32,-850.59,548.34,3.53,1.24,5.54,-247.69,8006,0,82,34.5938,4.79239,-375.397,13379.2,-15342.4,279.766,-40.8699,-35.6413,0
40065,773.63,770.89,763.57,770.41,769.62,-50.78,-911.13,506.35,-11.33,2.95,-1.31,-233.99,8014,0,82,30.5353,0.68915,-352.67,15567,-15244.7,598.31,-43.2288,-44.1461,0
40101,772.64,770.34,763.32,769.8,769.02,0.98,-855.47,544.43,-7.73,1.94,-0.79,-223.14,8021,0,82,27.2832,-6.59882,-338.01,18113.6,-15314.6,912.479,-45.3084,-53.5898,0
40137,772.61,770.71,763.77,770.68,769.44,-62.01,-930.66,500,-11.47,-1.6,-1.27,-227.97,8028,0,82,25.3545,-2.65279,-308.521,15877.7,-13714.8,662.633,-44.4519,-51.4619,0
40173,771.68,771.53,764.5,772.46,770.04,-10.74,-869.63,515.62,-5.33,-0.95,-1.75,-239.33,8036,0,82,24.6032,-5.96677,-301.504,15877,-13310.5,801.356,-44.1488,-52.6613,0
40210,770.89,772.38,765.25,773.36,770.47,-21.48,-875.98,516.6,-16.3,3.92,-5.7,-237.85,8043,0,82,27.0598,-4.54586,-309.693,13466.4,-12708.5,748.488,-41.037,-43.4859,0
40246,770.29,773.26,765.91,774.27,770.93,7.32,-906.74,508.3,-5.43,2.14,-4.23,-240.02,8050,0,82,29.051,-6.31981,-346.16,12898,-13228.1,1006.89,-38.2147,-37.2631,0
40284,770.76,774.18,766.47,774.85,771.56,-32.71,-881.35,503.91,-11.25,7.94,-7.08,-243.59,8058,0,82,31.7651,-4.67575,-352.256,9794.68,-12156.3,663.178,-34.5104,-27.8077,0
40321,770.85,775.01,766.88,774.78,771.88,51.76,-844.73,495.12,38.32,-4.69,-3.57,-239.2,8065,0,82,32.7058,-0.691412,-384.226,10266.7,-13160.1,209.837,-34.251,-26.7209,0
40357,774.25,775.53,766.76,774.03,772.64,-70.8,-916.99,495.12,11.76,-1.54,-4.08,-247.06,8072,0,82,32.0954,1.13648,-388.227,8447.97,-12682.5,-602.873,-32.6675,-21.7596,0
40393,772.53,775.68,766.83,774.16,772.3,-1.46,-822.75,536.13,-13.27,6.41,-8.03,-242.4,8080,0,82,36.5755,6.54365,-446.175,13154.9,-15650.9,-1415.08,-35.077,-29.4804,0
40429,774.76,777.29,767.19,774.34,773.39,-75.68,-936.04,467.77,2.55,0.76,-0.08,-256.76,8087,0,82,32.3172,-1.35312,-423.968,12228.1,-14624.6,-1846.56,-34.4924,-28.8377,0
40467,774.47,776.95,767.24,773.82,773.12,-21.48,-881.35,574.71,-0.6,-3.4,-4.68,-244.1,8094,0,82,35.203,-3.22219,-436.187,12615.2,-14915.1,-2405.94,-34.1929,-28.9153,0
40503,774.31,777.75,767.42,774.9,773.6,-20.51,-921.39,505.37,18.63,0.47,-3.18,-261.37,8102,0,82,38.6345,0.0393526,-460.353,13259.7,-15825,-3178.8,-34.3759,-28.8034,0
40540,773.67,778.94,767.43,775.68,773.93,90.82,-810.06,558.59,38.94,-7.63,-6.85,-279.88,8109,0,82,36.576,-11.0127,-435.075,11425,-14576.6,-2817.1,-33.5035,-26.26,0
40576,773.26,778.98,767.63,776.6,774.12,14.16,-916.02,513.67,14.1,-3.73,-5.65,-287.24,8116,0,82,37.6211,-5.58795,-466.756,12411.1,-15967.5,-3573.12,-34.2092,-26.5891,0
40612,772.41,778.96,767.81,777.61,774.2,29.79,-831.54,524.9,14.66,-3.43,-8.92,-294.79,8123,0,82,33.5607,-6.37953,-468.492,11698.2,-16001.9,-3657.06,-34.1563,-24.9699,0
