currTime,s1,s2,s3,s4,s,AccX,AccY,AccZ,GyroX,GyroY,GyroZ
0.00,14.81,14.61,14.69,15.09,14.80,-40.04,-809.57,624.51,-0.41,-0.33,-0.04
31.00,14.81,14.61,14.69,15.09,14.80,-45.90,-826.17,618.65,-0.66,1.84,-0.34
62.00,14.81,14.61,14.69,15.10,14.80,-48.34,-820.80,606.45,-1.24,2.81,-0.69
93.00,14.82,14.61,14.69,15.11,14.81,-44.43,-796.87,614.75,0.56,-0.14,0.90
123.00,14.82,14.61,14.69,15.11,14.81,-40.53,-808.11,618.65,2.12,-1.69,1.16
154.00,14.82,14.61,14.69,15.12,14.81,-49.80,-816.89,617.19,0.27,-1.76,1.41
185.00,14.82,14.61,14.69,15.12,14.81,-39.06,-831.54,618.65,0.79,-1.53,-1.85
215.00,14.82,14.61,14.69,15.13,14.81,-41.50,-814.94,629.88,2.01,-0.58,-1.92
246.00,14.82,14.61,14.69,15.13,14.81,-37.11,-807.62,623.05,0.51,-2.06,0.47
277.00,14.82,14.61,14.69,15.12,14.81,-58.59,-821.29,622.07,-1.97,-0.41,2.33
308.00,14.82,14.61,14.69,15.11,14.81,-41.99,-811.52,625.00,-1.62,-0.74,-0.82
339.00,14.82,14.61,14.69,15.12,14.81,-37.11,-820.31,629.88,-2.80,-1.57,-0.11
370.00,14.82,14.61,14.69,15.12,14.81,-36.13,-811.52,613.28,-0.07,-0.34,-0.08
401.00,14.82,14.61,14.69,15.12,14.81,-51.76,-818.36,634.28,1.93,-3.26,1.05
432.00,14.82,14.61,14.69,15.12,14.81,-25.88,-822.75,629.88,0.86,-1.52,-2.47
463.00,14.83,14.61,14.69,15.12,14.81,-31.25,-821.29,623.54,3.46,0.60,-2.77
494.00,14.83,14.61,14.69,15.12,14.81,-38.57,-787.11,629.88,1.43,-2.12,-0.82
525.00,14.82,14.61,14.69,15.12,14.81,-44.92,-798.83,647.46,-2.53,0.64,0.18
555.00,14.82,14.61,14.69,15.13,14.81,-40.53,-822.75,613.77,-1.48,1.15,-1.11
586.00,14.82,14.61,14.69,15.13,14.81,-46.88,-824.22,630.86,1.66,-0.25,0.02
617.00,14.82,14.61,14.69,15.14,14.81,-41.99,-809.57,635.74,-1.58,-0.15,-2.03
648.00,14.82,14.61,14.69,15.15,14.82,-35.16,-807.62,628.42,-0.85,-1.41,-0.93
679.00,14.82,14.61,14.69,15.16,14.82,-45.41,-811.52,616.21,1.44,-0.56,0.44
710.00,14.81,14.61,14.69,15.16,14.82,-42.97,-810.55,625.49,0.06,1.53,-1.02
741.00,14.82,14.61,14.69,15.16,14.82,-35.64,-805.18,622.07,0.59,-0.40,-0.66
772.00,14.82,14.61,14.69,15.17,14.82,-55.66,-811.04,619.63,-0.99,3.76,-1.78
803.00,14.82,14.61,14.69,15.17,14.82,-40.53,-818.36,627.93,0.27,-0.50,-0.85
834.00,14.82,14.61,14.69,15.17,14.82,-46.39,-811.52,624.02,-0.53,-1.36,2.86
865.00,14.83,14.61,14.69,15.17,14.82,-49.80,-802.25,630.37,-1.26,-2.71,2.24
896.00,14.83,14.61,14.69,15.17,14.82,-41.99,-815.92,628.42,-0.21,-2.75,0.79
927.00,14.83,14.61,14.69,15.17,14.83,-46.39,-802.73,627.44,-0.43,-2.44,-1.61
958.00,14.83,14.61,14.69,15.16,14.82,-45.90,-815.43,619.63,-4.05,0.75,-0.79
988.00,14.83,14.61,14.69,15.16,14.82,-34.67,-812.01,624.51,-0.12,-0.05,-0.30
1019.00,14.83,14.61,14.69,15.15,14.82,-52.25,-820.80,624.02,1.01,0.27,0.05
1050.00,14.84,14.61,14.69,15.15,14.82,-38.57,-809.08,621.58,-1.61,2.94,0.60
1081.00,14.84,14.61,14.69,15.15,14.82,-41.50,-818.85,633.79,-0.56,1.40,-1.72
1112.00,14.84,14.61,14.69,15.14,14.82,-38.57,-820.31,623.05,-2.72,0.04,-1.51
1143.00,14.84,14.61,14.69,15.13,14.82,-44.92,-815.92,623.54,-1.61,1.37,-2.01
1174.00,14.85,14.62,14.69,15.12,14.82,-41.50,-823.73,613.28,0.29,-0.78,-1.21
1205.00,14.85,14.61,14.69,15.10,14.82,-30.27,-814.94,614.75,-1.15,-0.61,-0.68
1236.00,14.85,14.62,14.70,15.09,14.81,-41.50,-812.99,624.51,-3.19,1.60,1.35
1267.00,14.86,14.62,14.69,15.08,14.81,-37.11,-824.22,606.45,-2.24,2.42,-2.73
1298.00,14.86,14.62,14.70,15.08,14.81,-42.48,-815.92,624.02,-0.93,3.06,-1.82
1329.00,14.86,14.62,14.70,15.08,14.81,-55.66,-825.68,623.05,-0.54,4.59,-1.53
1360.00,14.86,14.62,14.70,15.08,14.81,-41.50,-820.31,608.40,-0.82,0.21,2.13
1391.00,14.87,14.62,14.70,15.09,14.82,-41.50,-811.52,628.42,-2.18,1.26,0.00
1421.00,14.87,14.62,14.70,15.10,14.82,-54.69,-817.87,616.21,-2.92,0.45,1.76
1451.00,14.87,14.62,14.70,15.11,14.82,-52.73,-826.66,613.77,-0.59,2.83,0.47
1482.00,14.87,14.62,14.70,15.11,14.83,-36.62,-817.87,612.30,-0.23,-0.09,1.34
1512.00,14.87,14.62,14.70,15.12,14.83,-54.69,-830.57,611.33,-1.45,2.21,-1.59
1542.00,14.87,14.62,14.70,15.12,14.83,-50.29,-815.92,603.52,1.87,0.56,-0.53
1573.00,14.87,14.62,14.70,15.12,14.83,-42.97,-822.75,618.65,0.77,0.11,-1.42
1603.00,14.87,14.62,14.70,15.13,14.83,-51.76,-815.43,613.77,-0.71,3.01,-1.61
1634.00,14.87,14.62,14.70,15.13,14.83,-54.69,-828.12,621.58,-3.37,-0.85,-0.85
1665.00,14.87,14.62,14.70,15.14,14.83,-43.95,-825.20,594.73,0.57,0.93,-0.47
1695.00,14.88,14.62,14.70,15.14,14.83,-48.83,-827.15,610.84,-1.17,1.04,-0.46
1726.00,14.88,14.62,14.70,15.13,14.83,-46.39,-812.99,618.16,-1.40,0.13,-0.73
1757.00,14.87,14.62,14.70,15.13,14.83,-45.41,-810.55,607.42,-0.26,0.96,-0.49
1787.00,14.87,14.62,14.70,15.13,14.83,-37.11,-811.52,618.65,-0.18,2.41,1.13
1818.00,14.87,14.62,14.70,15.13,14.83,-41.99,-815.43,613.28,-0.13,-1.41,-0.31
1849.00,14.87,14.62,14.70,15.13,14.83,-39.06,-821.78,622.56,-0.63,0.08,2.45
1880.00,14.87,14.62,14.70,15.14,14.83,-44.43,-825.68,619.63,1.27,0.79,-2.69
1911.00,14.87,14.62,14.70,15.13,14.83,-39.06,-819.82,622.56,-1.51,1.07,-0.93
1942.00,14.87,14.62,14.70,15.14,14.83,-39.06,-829.59,619.63,-0.27,1.64,2.10
1973.00,14.86,14.62,14.70,15.15,14.83,-41.99,-819.82,615.72,2.00,-0.94,-0.24
2004.00,14.86,14.62,14.70,15.17,14.84,-54.69,-825.20,622.07,2.61,1.85,-1.26
2034.00,14.86,14.62,14.70,15.17,14.84,-50.29,-833.98,632.81,-1.05,0.40,-1.08
2065.00,14.86,14.62,14.70,15.17,14.84,-53.22,-823.24,619.63,-2.37,-0.43,-1.24
2096.00,14.86,14.62,14.70,15.17,14.84,-39.55,-829.59,604.98,-0.77,0.53,1.00
2127.00,14.85,14.62,14.70,15.16,14.83,-49.32,-834.47,606.93,2.04,0.61,3.22
2158.00,14.86,14.62,14.70,15.16,14.83,-40.04,-814.94,607.42,1.91,0.09,-2.60
2189.00,14.86,14.62,14.70,15.16,14.83,-49.32,-822.75,621.09,0.25,1.20,-0.24
2220.00,14.86,14.62,14.70,15.16,14.83,-56.15,-822.75,613.77,0.24,-0.24,-1.19
2251.00,14.86,14.62,14.70,15.15,14.83,-57.62,-821.29,606.45,-0.53,-1.30,-0.94
2282.00,14.85,14.62,14.70,15.13,14.82,-45.41,-828.12,615.23,-2.00,-3.27,-0.40
2313.00,14.85,14.62,14.70,15.11,14.82,-43.95,-824.22,614.75,-2.15,0.03,-3.38
2344.00,14.85,14.62,14.70,15.10,14.82,-44.92,-822.75,619.14,-1.37,-1.42,-0.53
2375.00,14.85,14.62,14.70,15.09,14.81,-41.50,-809.57,610.84,-1.31,-2.40,-1.34
2406.00,14.85,14.62,14.70,15.08,14.81,-48.34,-815.43,602.05,-0.12,-3.23,-2.17
2437.00,14.85,14.62,14.70,15.08,14.81,-49.80,-828.12,604.98,2.20,-0.96,-0.31
2468.00,14.85,14.62,14.70,15.07,14.81,-69.34,-814.45,613.77,0.95,-0.24,0.45
2498.00,14.85,14.62,14.70,15.08,14.81,-49.80,-817.38,617.19,0.82,-0.69,2.38
2529.00,14.85,14.62,14.70,15.08,14.81,-37.11,-822.27,625.00,1.18,0.79,-2.25
2560.00,14.84,14.62,14.70,15.07,14.81,-56.15,-837.89,601.56,-2.53,2.06,1.95
2591.00,14.84,14.62,14.70,15.07,14.81,-40.04,-822.27,609.86,-0.40,1.55,-4.16
2622.00,14.84,14.62,14.70,15.06,14.80,-51.76,-822.27,626.46,0.32,-0.63,-1.94
2653.00,14.84,14.62,14.70,15.06,14.80,-29.30,-821.29,617.19,0.18,2.31,-0.24
2684.00,14.84,14.61,14.70,15.06,14.80,-41.50,-827.64,620.61,1.92,1.82,-3.00
2715.00,14.85,14.62,14.69,15.05,14.80,-37.11,-818.85,615.72,2.08,-1.61,-2.31
2746.00,14.84,14.62,14.70,15.05,14.80,-34.67,-823.24,610.84,-0.89,-1.48,0.66
2777.00,14.84,14.62,14.69,15.05,14.80,-61.04,-831.54,616.70,0.85,1.54,0.21
2808.00,14.84,14.62,14.69,15.05,14.80,-43.46,-813.48,605.47,1.18,1.02,-1.60
2839.00,14.84,14.61,14.69,15.06,14.80,-37.11,-828.12,616.70,-1.47,-2.03,1.47
2870.00,14.84,14.61,14.69,15.07,14.80,-50.78,-818.36,621.09,0.52,2.92,-1.15
2901.00,14.84,14.62,14.70,15.07,14.81,-39.06,-819.82,616.70,1.10,2.48,-1.04
2932.00,14.84,14.62,14.69,15.08,14.81,-41.50,-811.52,612.79,-1.00,0.71,0.66
2962.00,14.84,14.62,14.70,15.08,14.81,-40.53,-818.36,613.28,1.05,1.76,-0.63
2993.00,14.84,14.62,14.69,15.09,14.81,-47.36,-818.85,616.21,1.40,-1.57,-0.38
3024.00,14.84,14.61,14.69,15.09,14.81,-38.57,-810.55,621.09,-0.38,-1.00,1.24
3055.00,14.84,14.61,14.69,15.09,14.81,-49.80,-824.22,615.23,2.19,1.60,-0.23
3085.00,14.84,14.61,14.69,15.10,14.81,-49.80,-815.43,621.09,-0.57,1.63,-1.56
3115.00,14.84,14.62,14.70,15.10,14.81,-49.80,-822.75,617.19,-1.68,0.44,-1.88
3146.00,14.84,14.61,14.70,15.10,14.81,-49.32,-829.59,605.47,-1.95,2.30,-0.30
3176.00,14.84,14.62,14.70,15.11,14.81,-39.06,-819.34,620.12,0.05,1.33,-1.76
3207.00,14.84,14.61,14.69,15.11,14.81,-48.83,-810.06,621.09,-1.13,-1.39,-1.80
3237.00,14.83,14.61,14.70,15.11,14.81,-36.62,-816.41,615.72,-3.11,-0.92,-1.50
3268.00,14.83,14.61,14.70,15.11,14.81,-35.16,-815.43,611.33,1.15,0.41,-1.48
3299.00,14.83,14.62,14.70,15.11,14.81,-46.88,-827.15,621.09,0.61,0.07,-4.47
3329.00,14.83,14.61,14.69,15.11,14.81,-35.16,-821.29,614.26,-1.22,1.11,-0.35
3360.00,14.84,14.61,14.70,15.11,14.81,-39.06,-825.20,615.23,0.51,1.11,0.46
3390.00,14.84,14.62,14.70,15.11,14.81,-46.39,-818.36,610.84,-1.36,-0.73,-0.79
3421.00,14.85,14.62,14.70,15.10,14.82,-46.39,-810.55,613.77,0.03,-0.39,0.94
3452.00,14.85,14.61,14.70,15.09,14.81,-39.06,-804.20,617.19,-0.89,-2.47,-0.03
3483.00,14.85,14.61,14.70,15.08,14.81,-43.95,-823.24,624.51,-2.26,0.04,-0.54
3514.00,14.84,14.62,14.70,15.07,14.81,-29.30,-834.47,613.77,-2.18,0.83,-2.45
3545.00,14.85,14.62,14.70,15.07,14.81,-42.97,-819.82,618.16,1.03,-0.92,-0.69
3575.00,14.84,14.62,14.69,15.08,14.81,-44.43,-815.43,617.19,-0.01,-1.21,1.73
3606.00,14.84,14.62,14.70,15.08,14.81,-44.92,-812.99,619.63,0.05,1.20,0.77
3637.00,14.84,14.61,14.70,15.08,14.81,-42.97,-815.92,612.30,0.31,-2.88,0.18
3668.00,14.84,14.61,14.69,15.09,14.81,-45.41,-831.05,604.98,0.12,-0.44,-2.05
3699.00,14.84,14.61,14.70,15.12,14.82,-51.76,-816.89,618.65,0.79,1.74,-1.40
3730.00,14.84,14.61,14.70,15.15,14.82,-33.20,-814.94,620.61,0.69,-0.45,-0.86
3761.00,14.83,14.61,14.70,15.16,14.83,-33.69,-822.75,629.39,-1.06,1.53,-0.23
3794.00,14.82,14.61,14.70,15.17,14.82,-48.83,-817.87,621.58,-0.53,-0.84,-2.40
3825.00,14.82,14.61,14.70,15.16,14.82,-39.55,-811.04,630.37,0.50,-2.43,-1.73
3856.00,14.82,14.61,14.70,15.16,14.82,-41.99,-816.89,619.63,-0.49,-1.76,1.31
3887.00,14.82,14.61,14.70,15.15,14.82,-47.85,-826.66,610.35,-1.05,-0.56,-1.31
3918.00,14.82,14.61,14.70,15.14,14.82,-48.34,-815.43,621.09,0.19,-1.50,-0.47
3949.00,14.82,14.61,14.70,15.14,14.82,-40.04,-818.85,603.03,-1.63,0.52,0.49
3980.00,14.82,14.61,14.70,15.13,14.82,-43.46,-807.13,611.82,-0.99,-0.13,-1.71
4011.00,14.82,14.61,14.70,15.13,14.81,-41.02,-829.10,620.61,-1.15,2.87,0.03
4042.00,14.82,14.61,14.69,15.12,14.81,-38.57,-821.29,613.77,-2.31,-0.76,-1.93
4073.00,14.82,14.61,14.70,15.10,14.81,-53.22,-836.91,612.30,-0.60,0.29,-2.68
4104.00,14.82,14.61,14.69,15.08,14.80,-49.80,-829.10,610.35,0.88,-1.90,-0.84
4134.00,14.82,14.61,14.69,15.07,14.80,-40.04,-816.89,617.19,2.56,0.23,0.90
4165.00,14.83,14.61,14.69,15.06,14.80,-43.46,-817.87,613.77,-0.20,0.43,-0.62
4196.00,14.83,14.61,14.69,15.05,14.80,-61.52,-811.52,614.26,-1.15,-1.52,-0.53
4227.00,14.83,14.61,14.69,15.05,14.80,-40.53,-798.83,614.26,-0.83,0.01,0.50
4258.00,14.83,14.61,14.69,15.05,14.80,-42.97,-817.38,604.98,-0.06,-1.24,-0.36
4289.00,14.83,14.61,14.69,15.05,14.80,-32.23,-830.08,623.54,-0.93,-1.12,-0.45
4320.00,14.83,14.61,14.69,15.05,14.80,-35.16,-811.04,614.75,0.60,1.34,-0.83
4351.00,14.83,14.61,14.69,15.05,14.80,-42.48,-811.52,608.89,-3.09,-0.39,0.12
4382.00,14.83,14.61,14.69,15.05,14.80,-49.80,-816.89,615.72,-0.93,-0.99,-0.86
4413.00,14.83,14.61,14.70,15.05,14.80,-35.64,-819.82,620.61,-1.61,-0.35,-2.11
4444.00,14.83,14.61,14.69,15.04,14.79,-30.76,-813.96,617.68,0.05,-1.98,-1.60
4475.00,14.83,14.61,14.69,15.04,14.79,-45.90,-819.82,615.23,-0.80,0.22,-1.60
4506.00,14.83,14.61,14.69,15.04,14.79,-42.97,-821.29,617.19,-1.92,-2.79,-0.66
4537.00,14.83,14.61,14.69,15.04,14.79,-35.64,-827.64,623.54,-0.95,-2.41,-0.26
4568.00,14.83,14.61,14.69,15.04,14.79,-39.55,-812.50,611.82,0.14,-0.67,-0.25
4599.00,14.83,14.61,14.69,15.04,14.79,-42.48,-818.36,612.79,-0.57,1.73,-3.37
4630.00,14.83,14.61,14.69,15.04,14.79,-43.95,-819.34,624.02,0.05,-0.54,-1.28
4660.00,14.83,14.61,14.69,15.04,14.79,-44.92,-829.10,618.65,0.81,-0.38,0.47
4691.00,14.83,14.61,14.69,15.04,14.79,-47.85,-814.94,616.70,-1.65,-3.63,-1.48
4721.00,14.83,14.61,14.69,15.04,14.79,-33.69,-819.34,620.12,-0.02,1.39,-2.59
4752.00,14.83,14.61,14.69,15.03,14.79,-36.62,-817.38,627.93,-0.41,2.02,-0.96
4782.00,14.83,14.61,14.69,15.03,14.79,-38.09,-812.99,620.12,-1.19,1.15,0.03
4812.00,14.83,14.61,14.69,15.02,14.79,-35.64,-825.20,614.75,-0.49,1.47,-3.02
4843.00,14.83,14.61,14.69,15.02,14.79,-41.02,-826.17,612.30,0.22,0.27,-0.42
4874.00,14.83,14.61,14.69,15.02,14.79,-47.36,-814.45,611.82,-2.51,-1.27,-0.17
4904.00,14.83,14.61,14.69,15.02,14.79,-41.02,-821.29,618.16,-0.73,-0.20,-1.16
4935.00,14.84,14.61,14.69,15.01,14.79,-35.16,-818.85,612.79,-1.63,0.56,-1.44
4966.00,14.84,14.61,14.69,15.01,14.79,-41.99,-817.87,602.05,-0.31,0.78,-0.23
4996.00,14.84,14.61,14.69,15.01,14.79,-36.13,-818.36,618.65,-1.01,2.13,0.55
5027.00,14.84,14.61,14.69,15.01,14.79,-48.83,-820.31,619.14,-1.98,1.42,-1.86
5058.00,14.84,14.61,14.69,15.01,14.79,-30.27,-818.36,612.30,0.94,-0.36,-1.98
5088.00,14.84,14.61,14.69,15.01,14.79,-48.83,-820.31,616.21,-1.74,-0.68,1.31
5119.00,14.84,14.61,14.69,15.01,14.79,-49.80,-816.41,620.12,-0.40,0.71,-1.69
5150.00,14.83,14.61,14.69,15.02,14.79,-43.95,-807.13,611.82,0.79,1.18,0.69
5181.00,14.83,14.61,14.69,15.02,14.79,-41.99,-813.96,614.75,-0.81,-0.09,1.25
5212.00,14.83,14.61,14.69,15.03,14.79,-37.60,-817.87,608.89,0.33,2.17,1.06
5243.00,14.83,14.61,14.69,15.05,14.80,-41.02,-812.50,623.54,2.50,1.30,0.61
5274.00,14.83,14.61,14.69,15.06,14.80,-39.06,-813.48,624.02,0.17,-0.79,-1.11
5305.00,14.82,14.61,14.69,15.07,14.80,-33.20,-817.87,624.02,0.31,0.95,-2.02
5336.00,14.82,14.61,14.69,15.07,14.80,-53.22,-826.17,614.26,-2.94,-0.16,-1.27
5367.00,14.81,14.61,14.69,15.06,14.80,-39.55,-816.41,617.68,-0.87,-2.18,-0.80
5398.00,14.81,14.61,14.69,15.07,14.80,-42.97,-824.71,611.82,-1.63,-1.84,-2.14
5429.00,14.81,14.61,14.69,15.07,14.80,-41.02,-815.92,611.33,1.91,1.44,-0.96
5460.00,14.82,14.61,14.69,15.07,14.80,-42.97,-815.92,625.00,1.01,-0.66,0.12
5490.00,14.82,14.61,14.69,15.08,14.80,-28.32,-815.92,623.54,2.46,0.55,-0.36
5521.00,14.82,14.61,14.69,15.09,14.80,-39.06,-815.43,626.95,3.15,1.11,-1.53
5552.00,14.81,14.61,14.69,15.10,14.80,-46.39,-811.04,620.12,-0.51,1.26,1.63
5583.00,14.82,14.61,14.69,15.09,14.80,-48.83,-822.27,619.14,-0.50,0.00,0.10
5614.00,14.81,14.61,14.69,15.08,14.80,-31.74,-817.38,625.98,-2.57,-1.01,-0.98
5645.00,14.81,14.61,14.69,15.07,14.79,-36.62,-812.01,621.58,-1.29,0.24,-2.66
5676.00,14.81,14.61,14.69,15.06,14.79,-42.97,-820.80,608.40,-2.96,2.34,-1.21
5707.00,14.82,14.61,14.69,15.05,14.79,-48.34,-834.47,609.86,-0.20,0.33,0.50
5738.00,14.82,14.61,14.69,15.05,14.79,-50.78,-816.41,620.61,0.32,0.66,0.24
5769.00,14.82,14.61,14.69,15.06,14.80,-41.99,-818.36,614.75,1.04,1.85,-3.07
5800.00,14.83,14.61,14.69,15.05,14.80,-41.02,-808.11,600.59,-0.93,-0.57,-1.86
5831.00,14.83,14.61,14.69,15.05,14.80,-46.39,-825.68,635.74,0.18,0.46,-2.25
5862.00,14.83,14.61,14.69,15.04,14.80,-45.41,-819.34,606.45,-0.93,-2.40,-1.69
5893.00,14.83,14.61,14.69,15.04,14.79,-41.50,-806.64,620.12,-0.89,-3.11,-0.89
5924.00,14.83,14.61,14.69,15.03,14.79,-41.99,-822.27,618.16,0.06,-0.21,-0.36
5955.00,14.83,14.61,14.69,15.04,14.79,-38.09,-817.87,620.12,0.92,-1.44,-0.18
5986.00,14.83,14.61,14.69,15.04,14.80,-42.97,-822.27,616.21,0.34,-0.63,-1.14
6017.00,14.83,14.61,14.69,15.05,14.80,-37.11,-814.45,619.14,0.70,-3.44,-0.53
6048.00,14.83,14.61,14.69,15.05,14.80,-32.71,-835.45,625.00,2.36,0.13,-1.96
6079.00,14.83,14.61,14.69,15.05,14.80,-32.23,-801.76,620.12,-1.35,1.23,-1.21
6110.00,14.83,14.61,14.69,15.06,14.80,-42.97,-813.48,617.68,-1.27,2.02,-2.82
6141.00,14.82,14.61,14.69,15.07,14.80,-37.60,-808.59,626.95,-0.56,0.13,-0.52
6172.00,14.82,14.61,14.69,15.08,14.80,-38.57,-809.57,622.07,-1.50,1.92,3.89
6203.00,14.82,14.61,14.69,15.10,14.80,-42.97,-821.29,633.79,1.15,0.23,-2.35
6234.00,14.82,14.61,14.69,15.10,14.80,-50.78,-812.99,623.05,0.51,2.07,0.15
6265.00,14.81,14.61,14.69,15.10,14.80,-60.06,-818.36,621.58,-1.11,-0.12,1.01
6295.00,14.81,14.61,14.69,15.10,14.80,-35.64,-819.82,615.72,-1.29,0.00,0.37
6326.00,14.81,14.61,14.69,15.10,14.80,-52.73,-822.27,621.09,0.77,1.34,0.50
6356.00,14.81,14.61,14.69,15.10,14.80,-43.95,-820.80,614.75,0.36,0.65,1.98
6387.00,14.81,14.61,14.69,15.10,14.80,-41.50,-830.08,632.81,-1.28,1.03,1.11
6417.00,14.81,14.61,14.69,15.10,14.80,-47.36,-819.82,616.70,-1.21,0.05,-2.17
6447.00,14.81,14.61,14.69,15.10,14.80,-42.48,-811.04,614.26,-1.42,1.34,-0.02
6478.00,14.81,14.61,14.69,15.10,14.81,-38.09,-819.34,625.00,-0.48,0.84,1.34
6509.00,14.81,14.61,14.69,15.11,14.81,-49.32,-814.45,605.96,0.63,0.39,-1.44
6540.00,14.81,14.61,14.69,15.11,14.81,-59.57,-826.17,618.16,1.39,0.47,-0.66
6570.00,14.81,14.61,14.69,15.11,14.81,-54.20,-823.73,608.40,-1.01,-0.04,0.40
6601.00,14.81,14.61,14.69,15.11,14.81,-53.71,-819.34,607.91,0.80,-1.11,0.27
6632.00,14.81,14.61,14.69,15.11,14.81,-36.13,-819.82,616.70,-0.73,0.63,-0.93
6662.00,14.81,14.61,14.69,15.12,14.81,-44.92,-812.01,617.68,-1.05,-0.63,0.84
6693.00,14.82,14.61,14.69,15.12,14.81,-52.25,-825.20,621.58,-0.07,0.26,-1.23
6724.00,14.82,14.61,14.69,15.12,14.81,-46.88,-822.27,606.45,-0.50,-1.85,-1.99
6755.00,14.82,14.61,14.69,15.13,14.81,-41.02,-810.55,630.86,-0.43,1.01,-1.77
6786.00,14.82,14.61,14.70,15.13,14.81,-52.73,-826.66,620.12,-1.88,1.65,0.79
6817.00,14.82,14.61,14.70,15.13,14.81,-45.90,-823.73,609.37,0.15,-0.30,0.28
6848.00,14.82,14.61,14.69,15.13,14.81,-36.62,-818.85,606.93,2.11,-2.64,0.92
6879.00,14.82,14.61,14.69,15.13,14.81,-37.60,-797.36,640.62,-0.10,2.73,-2.99
6910.00,14.82,14.61,14.69,15.13,14.81,-41.99,-821.29,619.63,-1.61,0.66,-1.76
6941.00,14.82,14.61,14.69,15.13,14.81,-37.11,-817.87,623.54,-0.49,-0.43,-0.57
6972.00,14.82,14.61,14.69,15.13,14.81,-39.55,-807.13,625.49,1.02,0.22,-0.63
7003.00,14.82,14.61,14.69,15.13,14.81,-33.20,-807.62,623.54,-1.08,-2.61,-1.71
7034.00,14.82,14.61,14.70,15.12,14.81,-52.25,-822.27,622.56,-1.11,0.21,-1.35
7065.00,14.82,14.61,14.69,15.12,14.81,-25.88,-812.01,630.86,1.29,0.01,-1.11
7096.00,14.82,14.61,14.69,15.13,14.81,-37.60,-819.82,612.30,-0.70,-0.75,-0.26
7127.00,14.82,14.61,14.69,15.13,14.81,-47.85,-816.41,622.07,0.11,1.27,-1.31
7158.00,14.82,14.61,14.69,15.13,14.81,-62.50,-815.92,617.19,-0.27,0.37,-1.98
7189.00,14.82,14.61,14.70,15.13,14.81,-49.80,-817.38,621.58,-0.08,-0.65,0.58
7219.00,14.82,14.61,14.69,15.13,14.81,-46.88,-827.15,615.23,-2.18,-0.60,-0.38
7250.00,14.82,14.61,14.69,15.13,14.81,-48.83,-817.87,621.09,-0.41,-0.24,-0.61
7282.00,14.82,14.61,14.69,15.13,14.81,-47.85,-819.34,627.44,-0.52,0.56,-0.86
7313.00,14.82,14.61,14.69,15.13,14.81,-43.46,-816.89,621.58,0.73,0.34,0.96
7343.00,14.82,14.61,14.70,15.13,14.81,-49.80,-824.71,622.56,-1.72,0.63,0.64
7374.00,14.82,14.61,14.69,15.13,14.81,-59.57,-825.68,624.51,1.26,2.71,-1.10
7405.00,14.82,14.61,14.70,15.12,14.81,-55.66,-808.59,610.35,0.83,0.12,-1.24
7436.00,14.82,14.61,14.70,15.12,14.81,-47.85,-820.31,628.42,-0.42,-1.04,1.87
7467.00,14.82,14.61,14.69,15.12,14.81,-41.02,-818.85,616.70,1.24,-0.99,-1.29
7498.00,14.82,14.61,14.69,15.12,14.81,-44.43,-812.01,620.61,-0.09,-1.04,-0.73
7529.00,14.81,14.61,14.69,15.12,14.81,-52.25,-812.99,622.07,-0.51,-1.39,1.85
7560.00,14.81,14.61,14.69,15.12,14.81,-46.88,-816.89,623.05,-1.80,-0.53,-3.71
7591.00,14.81,14.61,14.69,15.12,14.81,-36.62,-819.34,622.07,1.05,1.80,-0.98
7622.00,14.81,14.61,14.69,15.12,14.81,-37.60,-811.04,628.91,0.25,-2.64,-1.03
7655.00,14.81,14.61,14.69,15.12,14.81,-47.36,-821.78,621.58,0.02,1.45,-0.21
7686.00,14.81,14.61,14.70,15.12,14.81,-44.43,-824.22,619.14,-0.52,0.16,-2.86
7717.00,14.81,14.61,14.69,15.13,14.81,-45.41,-824.22,613.28,-1.37,-0.31,-1.31
7748.00,14.81,14.61,14.69,15.13,14.81,-43.46,-819.34,622.56,-0.31,-0.04,-2.66
7779.00,14.81,14.61,14.69,15.13,14.81,-53.22,-823.73,621.09,-2.08,-0.73,1.11
7810.00,14.81,14.61,14.69,15.13,14.81,-41.02,-815.43,631.35,0.50,-1.95,-0.05
7841.00,14.81,14.61,14.69,15.13,14.81,-56.15,-819.34,619.63,0.92,-1.49,1.85
7872.00,14.81,14.61,14.69,15.12,14.81,-48.83,-813.96,618.16,0.73,-0.21,-0.74
7903.00,14.81,14.61,14.69,15.12,14.81,-42.97,-814.45,610.35,-1.65,-0.04,0.06
7933.00,14.81,14.61,14.69,15.11,14.81,-33.69,-825.68,625.49,0.55,1.04,-0.27
7964.00,14.81,14.61,14.69,15.11,14.81,-40.53,-812.01,611.33,-1.21,0.10,-1.06
7994.00,14.81,14.61,14.70,15.11,14.81,-40.04,-813.48,632.32,-0.41,2.32,2.22
8025.00,14.81,14.61,14.69,15.11,14.81,-36.62,-820.80,618.16,-0.16,1.01,0.34
8055.00,14.81,14.61,14.69,15.11,14.81,-42.97,-819.82,628.91,-0.12,-0.89,-2.10
8085.00,14.81,14.61,14.70,15.12,14.81,-49.32,-810.06,622.56,-0.94,1.79,1.33
8116.00,14.81,14.61,14.69,15.12,14.81,-55.18,-815.92,610.84,0.31,-2.09,-1.99
8147.00,14.81,14.61,14.69,15.12,14.81,-46.39,-812.50,617.68,0.58,1.82,-1.02
8178.00,14.80,14.61,14.69,15.13,14.81,-41.50,-805.66,621.58,0.92,-0.98,-0.08
8208.00,14.80,14.61,14.69,15.13,14.81,-46.39,-815.92,613.77,-0.31,-0.72,-0.95
8239.00,14.80,14.61,14.69,15.13,14.81,-49.80,-816.41,616.70,-4.77,2.31,0.70
8270.00,14.80,14.61,14.69,15.13,14.81,-38.09,-832.52,627.44,-0.41,2.08,-1.27
8300.00,14.80,14.61,14.69,15.14,14.81,-45.41,-808.59,602.05,-0.89,1.11,0.23
8331.00,14.81,14.61,14.70,15.16,14.82,-41.99,-822.75,622.56,1.68,0.02,-2.55
8362.00,14.81,14.61,14.69,15.18,14.82,-35.64,-828.61,611.33,0.46,1.00,-0.21
8393.00,14.81,14.61,14.69,15.20,14.83,-40.04,-814.45,621.09,-0.10,2.73,-0.78
8424.00,14.81,14.61,14.70,15.21,14.83,-45.90,-811.04,618.65,-0.24,1.23,-0.02
8455.00,14.81,14.61,14.70,15.23,14.84,-37.60,-833.98,611.82,0.58,0.60,0.86
8486.00,14.81,14.61,14.70,15.24,14.84,-26.86,-804.69,616.21,0.79,0.69,-0.34
8517.00,14.81,14.61,14.70,15.24,14.84,-50.29,-811.52,615.23,-0.62,0.31,-3.18
8548.00,14.81,14.61,14.70,15.23,14.84,-45.90,-829.10,629.39,-0.28,1.24,1.05
8579.00,14.82,14.61,14.70,15.22,14.84,-40.04,-807.62,622.56,-1.01,1.84,-2.05
8610.00,14.82,14.61,14.70,15.21,14.84,-56.15,-812.99,615.72,-2.45,1.11,0.45
8641.00,14.83,14.61,14.70,15.21,14.83,-42.97,-811.52,621.09,-1.66,2.56,-4.72
8672.00,14.83,14.61,14.70,15.20,14.83,-47.36,-813.96,622.07,-0.11,0.77,-1.34
8703.00,14.83,14.61,14.70,15.20,14.83,-61.52,-816.41,628.42,0.76,-0.36,-0.89
8734.00,14.83,14.61,14.70,15.19,14.83,-43.95,-821.78,619.14,2.08,-0.56,-1.06
8765.00,14.83,14.61,14.70,15.19,14.83,-53.71,-816.89,611.33,0.31,-1.06,-0.89
8796.00,14.83,14.61,14.70,15.19,14.83,-48.34,-811.52,620.61,1.44,-3.45,-0.13
8827.00,14.83,14.61,14.70,15.18,14.83,-50.78,-812.99,615.72,0.31,-0.15,0.62
8858.00,14.83,14.61,14.70,15.18,14.83,-39.06,-813.48,626.46,-1.16,1.36,-1.48
8889.00,14.83,14.61,14.70,15.18,14.83,-52.25,-820.31,619.63,0.50,0.69,0.16
8920.00,14.83,14.61,14.70,15.17,14.83,-32.71,-815.92,615.23,-0.15,0.57,1.13
8951.00,14.83,14.61,14.70,15.17,14.83,-44.92,-821.78,621.58,-0.30,-1.13,-0.23
8982.00,14.83,14.61,14.70,15.16,14.82,-44.43,-829.10,614.75,-1.63,0.27,-0.37
9013.00,14.82,14.61,14.70,15.16,14.82,-46.88,-819.34,604.49,-0.95,1.37,0.57
9044.00,14.82,14.61,14.70,15.16,14.82,-51.76,-827.64,611.33,-1.68,-0.62,-3.09
9075.00,14.82,14.61,14.69,15.15,14.82,-37.60,-812.01,612.30,0.38,0.17,1.71
9106.00,14.82,14.61,14.70,15.15,14.82,-35.64,-816.41,614.75,-0.67,0.32,-0.56
9137.00,14.82,14.61,14.70,15.14,14.82,-50.29,-820.31,607.42,-1.60,-0.50,-2.23
9168.00,14.82,14.61,14.69,15.14,14.81,-50.78,-820.31,621.58,-0.92,0.18,-0.82
9199.00,14.82,14.61,14.69,15.13,14.81,-41.02,-820.31,632.32,3.10,-1.56,0.44
9229.00,14.82,14.61,14.69,15.12,14.81,-39.06,-822.75,614.75,0.71,0.37,0.60
9261.00,14.82,14.61,14.70,15.11,14.81,-56.15,-805.66,634.77,0.63,-0.77,-3.24
9292.00,14.82,14.61,14.69,15.11,14.81,-42.97,-811.04,605.47,0.00,0.02,1.47
9322.00,14.82,14.61,14.70,15.11,14.81,-51.27,-816.89,616.70,-1.37,1.76,-0.05
9353.00,14.82,14.61,14.70,15.11,14.81,-44.92,-815.92,618.16,-2.18,0.22,-1.91
9385.00,14.82,14.61,14.70,15.10,14.81,-41.99,-815.43,614.75,-1.59,-2.60,0.00
9415.00,14.82,14.61,14.70,15.10,14.81,-41.99,-817.87,622.56,1.37,-1.51,0.82
9446.00,14.82,14.61,14.70,15.10,14.81,-48.34,-824.22,616.70,-0.41,1.06,-1.90
9477.00,14.82,14.61,14.69,15.10,14.81,-41.50,-818.85,616.70,-0.60,-1.80,-1.79
9508.00,14.82,14.61,14.69,15.09,14.80,-51.27,-809.08,621.09,-0.79,3.27,2.25
9539.00,14.82,14.61,14.69,15.09,14.80,-45.90,-820.80,624.02,1.48,1.38,-0.07
9570.00,14.82,14.61,14.69,15.09,14.80,-41.50,-818.36,636.72,1.56,1.32,0.02
9600.00,14.82,14.61,14.70,15.09,14.80,-41.02,-813.48,613.77,0.15,0.34,-1.63
9631.00,14.82,14.61,14.70,15.09,14.80,-33.69,-821.78,621.09,-1.00,-0.49,-2.98
9661.00,14.82,14.61,14.69,15.09,14.80,-46.88,-818.36,633.30,0.18,-0.28,-0.75
9691.00,14.82,14.61,14.69,15.09,14.80,-54.20,-815.92,617.19,-0.59,1.01,-3.12
9722.00,14.82,14.61,14.69,15.09,14.80,-53.71,-826.17,620.12,-1.22,0.76,-0.05
9753.00,14.82,14.61,14.69,15.09,14.80,-57.13,-804.69,608.89,-1.92,-0.90,-1.37
9784.00,14.82,14.61,14.70,15.09,14.80,-47.85,-813.48,605.47,-3.05,3.24,-0.14
9814.00,14.82,14.61,14.70,15.09,14.80,-38.57,-828.61,615.23,0.70,1.11,-2.47
9845.00,14.82,14.61,14.69,15.09,14.80,-41.02,-802.25,615.23,0.32,2.77,-1.45
9876.00,14.83,14.61,14.69,15.09,14.80,-37.11,-822.27,621.58,-1.21,-1.68,-0.02
9906.00,14.83,14.61,14.70,15.09,14.80,-49.32,-816.41,627.93,0.27,1.49,-0.92
9937.00,14.83,14.61,14.69,15.08,14.80,-46.88,-815.43,623.05,0.40,-0.25,-2.35
9968.00,14.83,14.61,14.70,15.08,14.80,-52.73,-825.20,625.49,-0.34,0.58,1.05
9999.00,14.83,14.61,14.70,15.08,14.80,-45.90,-816.41,608.40,-1.40,0.85,-2.71
10030.00,14.83,14.61,14.70,15.08,14.80,-48.83,-812.50,624.51,-0.01,-1.56,-0.57
10061.00,14.83,14.61,14.70,15.08,14.80,-38.09,-813.96,604.49,-0.48,-0.97,-1.40
10092.00,14.83,14.61,14.69,15.08,14.80,-30.76,-826.66,621.09,-2.49,0.96,-0.61
10123.00,14.83,14.61,14.70,15.07,14.80,-39.55,-812.01,616.70,-0.30,-0.29,-1.99
10154.00,14.83,14.61,14.69,15.07,14.80,-42.97,-807.13,623.54,1.66,-0.70,-1.31
10185.00,14.83,14.61,14.70,15.08,14.80,-50.29,-828.12,626.46,0.82,-1.08,0.53
10216.00,14.83,14.61,14.70,15.08,14.80,-59.08,-811.52,621.09,0.58,2.38,-1.53
10247.00,14.83,14.61,14.69,15.08,14.80,-37.11,-829.10,618.65,-0.30,-1.10,-1.47
10278.00,14.83,14.61,14.70,15.08,14.80,-45.41,-823.24,615.23,0.47,-0.24,-0.99
10308.00,14.83,14.61,14.70,15.08,14.81,-43.46,-812.01,612.79,0.38,-1.17,-2.62
10340.00,14.83,14.61,14.70,15.08,14.81,-54.20,-820.80,621.58,-0.08,-0.05,-0.36
10370.00,14.83,14.61,14.70,15.08,14.81,-32.71,-816.89,620.61,-0.59,1.15,-3.36
10401.00,14.84,14.61,14.69,15.08,14.81,-46.39,-817.87,610.84,0.00,-1.23,0.19
10432.00,14.84,14.61,14.70,15.08,14.81,-45.90,-828.61,610.84,-0.58,1.34,-0.56
10463.00,14.84,14.61,14.70,15.08,14.81,-50.29,-814.94,625.98,2.98,0.08,-0.79
10494.00,14.84,14.61,14.70,15.08,14.81,-56.64,-822.75,610.35,-0.52,3.96,-0.75
10525.00,14.84,14.61,14.70,15.07,14.80,-43.46,-818.36,622.56,-0.26,0.44,0.03
10556.00,14.84,14.61,14.70,15.07,14.80,-41.99,-810.55,609.37,0.10,3.34,-2.05
10587.00,14.84,14.61,14.70,15.07,14.80,-40.53,-818.36,623.54,-0.03,-0.21,-1.24
10618.00,14.84,14.61,14.70,15.06,14.80,-31.25,-809.08,626.46,-1.29,0.77,0.42
10649.00,14.84,14.61,14.70,15.06,14.80,-45.90,-823.24,622.56,0.85,1.11,1.36
10680.00,14.83,14.61,14.70,15.06,14.80,-45.90,-825.20,632.81,-0.50,0.70,-0.61
10711.00,14.83,14.61,14.70,15.06,14.80,-47.36,-800.29,616.70,0.39,-1.89,-0.11
10742.00,14.82,14.61,14.69,15.06,14.80,-35.64,-817.87,621.09,-0.03,-1.28,-1.69
10773.00,14.82,14.61,14.69,15.07,14.80,-35.64,-807.62,627.44,-1.02,1.81,0.82
10804.00,14.80,14.61,14.69,15.10,14.80,-34.67,-816.89,643.55,-3.72,1.47,2.66
10835.00,14.77,14.60,14.69,15.11,14.79,-72.75,-827.64,593.75,-0.13,-0.15,-1.19
10866.00,14.76,14.60,14.69,15.12,14.79,-57.13,-823.24,619.14,-1.60,-2.43,1.44
10897.00,14.75,14.60,14.69,15.12,14.79,-48.83,-835.45,615.72,-2.77,-1.62,1.66
10928.00,14.75,14.60,14.69,15.11,14.79,-100.59,-859.37,580.08,-0.13,-2.65,-1.35
10959.00,14.77,14.60,14.69,15.10,14.79,-40.04,-805.66,643.07,6.57,-4.17,3.19
10990.00,14.78,14.60,14.69,15.13,14.80,-40.53,-798.34,634.28,0.66,0.47,-0.37
11021.00,14.77,14.60,14.69,15.18,14.81,-35.16,-811.52,631.35,1.34,2.12,0.27
11052.00,14.77,14.60,14.69,15.22,14.82,-44.92,-821.29,612.79,-1.85,4.02,1.48
11083.00,14.77,14.60,14.69,15.26,14.83,-47.85,-821.29,594.24,0.82,1.38,-1.33
11114.00,14.78,14.60,14.69,15.31,14.85,-50.78,-809.08,622.56,3.06,-0.05,-0.34
11145.00,14.79,14.60,14.69,15.38,14.87,-36.62,-803.71,620.12,0.75,-0.12,-2.25
11175.00,14.80,14.61,14.70,15.48,14.89,-32.23,-762.70,638.18,-0.08,-0.44,-0.91
11206.00,14.81,14.61,14.70,15.60,14.93,-34.67,-796.39,641.60,-3.27,-1.85,-0.12
11236.00,14.82,14.61,14.70,15.68,14.95,-51.27,-825.68,606.45,-1.66,-0.24,0.92
11267.00,14.83,14.61,14.70,15.71,14.96,-49.80,-817.87,600.59,-0.82,3.46,0.05
11297.00,14.84,14.61,14.70,15.75,14.97,-40.04,-829.59,620.12,2.24,-1.50,-2.97
11328.00,14.85,14.61,14.70,15.78,14.98,-39.06,-823.24,612.30,2.39,-1.02,-0.40
11359.00,14.86,14.61,14.70,15.80,14.99,-53.71,-804.69,631.35,-0.44,2.60,0.83
11389.00,14.87,14.61,14.71,15.78,14.99,-54.20,-831.05,621.09,-1.23,1.18,-0.07
11420.00,14.88,14.61,14.71,15.77,14.99,-52.25,-803.71,641.60,0.05,0.87,-2.15
11451.00,14.89,14.61,14.71,15.75,14.99,-48.83,-821.29,619.14,-4.60,2.15,-0.73
11481.00,14.90,14.61,14.71,15.72,14.99,-45.41,-829.59,612.30,-0.50,2.67,-3.97
11514.00,14.91,14.62,14.71,15.69,14.98,-52.73,-818.36,619.14,0.63,0.53,-1.49
11544.00,14.93,14.62,14.71,15.64,14.98,-51.27,-823.24,631.84,-1.11,1.17,1.57
11575.00,14.95,14.62,14.71,15.57,14.96,-64.94,-834.47,611.82,-0.05,-0.62,0.64
11606.00,15.00,14.63,14.71,15.47,14.95,-26.86,-834.47,615.23,3.56,-4.43,-1.26
11637.00,15.05,14.63,14.71,15.36,14.94,-53.22,-792.48,649.90,1.02,-2.89,-0.60
11668.00,15.11,14.64,14.71,15.22,14.92,-44.43,-821.29,614.26,-1.39,-2.67,-2.93
11699.00,15.19,14.66,14.72,15.07,14.91,-51.27,-841.31,621.09,2.59,-6.72,-0.79
11730.00,15.28,14.68,14.72,14.89,14.89,-55.18,-839.84,646.48,-3.60,-6.15,-8.38
11761.00,15.37,14.71,14.71,14.74,14.88,-68.85,-834.47,655.27,-2.45,-9.98,-11.43
11792.00,15.45,14.74,14.71,14.64,14.88,-28.81,-808.11,601.07,-8.16,-7.05,-15.29
11823.00,15.49,14.77,14.70,14.58,14.89,20.02,-811.52,659.67,-19.17,-13.40,-12.06
11854.00,15.48,14.80,14.69,14.57,14.88,-92.29,-850.10,780.76,-49.66,-23.06,-11.71
11885.00,15.40,14.82,14.69,14.56,14.87,-112.79,-942.38,629.39,-62.06,-35.60,-33.28
11916.00,15.28,14.83,14.68,14.56,14.84,-34.18,-1052.73,657.23,-87.42,-49.96,-55.15
11947.00,15.12,14.82,14.68,14.55,14.79,-104.49,-1272.46,576.17,-63.13,-49.05,-102.32
11978.00,14.96,14.79,14.68,14.56,14.75,23.93,-1303.22,619.63,-25.16,-48.70,-149.13
12009.00,14.87,14.76,14.68,14.56,14.72,82.03,-1143.55,555.66,-13.44,-50.66,-175.42
12039.00,14.83,14.73,14.68,14.55,14.70,183.59,-1046.88,578.12,-29.79,-50.85,-193.26
12071.00,14.79,14.70,14.67,14.56,14.68,229.00,-1111.33,595.70,-16.95,-61.34,-212.91
12101.00,14.74,14.66,14.67,14.55,14.66,316.41,-1160.16,573.24,-55.63,-68.32,-235.77
12132.00,14.68,14.61,14.66,14.55,14.63,258.79,-1225.59,579.10,-32.07,-67.32,-241.79
12163.00,14.63,14.58,14.65,14.55,14.60,29.79,-1093.75,466.31,-2.45,-52.25,-250.14
12194.00,14.61,14.58,14.64,14.56,14.60,-484.86,-1095.70,466.31,-81.94,6.33,-120.53
12225.00,14.61,14.58,14.64,14.55,14.59,11.72,-178.22,258.79,39.62,50.20,94.22
12256.00,14.61,14.58,14.64,14.55,14.59,-280.76,-708.50,150.88,-18.77,102.08,159.51
12287.00,14.61,14.57,14.64,14.55,14.59,-263.18,-762.70,254.88,14.22,85.28,166.93
12318.00,14.61,14.58,14.64,14.55,14.59,-25.39,-748.54,178.22,21.66,81.66,195.44
12349.00,14.60,14.58,14.64,14.55,14.59,24.41,-731.45,332.03,-22.79,108.51,221.15
12380.00,14.60,14.58,14.64,14.55,14.59,64.45,-1006.35,431.64,-49.71,131.51,213.60
12411.00,14.60,14.58,14.64,14.54,14.59,41.50,-1077.64,591.31,-35.85,136.65,192.88
12442.00,14.60,14.58,14.64,14.55,14.59,172.85,-1204.59,774.41,-43.11,131.79,195.93
12473.00,14.60,14.58,14.65,14.54,14.59,417.97,-1189.94,905.76,-54.85,101.68,202.76
12504.00,14.60,14.58,14.65,14.54,14.59,440.43,-1472.17,1149.90,-54.05,89.67,177.33
12535.00,14.60,14.58,14.64,14.54,14.59,583.50,-1397.46,1038.09,37.23,57.97,151.50
12566.00,14.60,14.58,14.64,14.54,14.59,799.32,-1308.59,633.79,34.34,41.30,123.51
12597.00,14.60,14.58,14.64,14.54,14.59,1002.44,-853.03,353.03,-8.23,35.58,114.33
12628.00,14.60,14.58,14.64,14.56,14.60,1927.73,-1944.34,1185.55,-46.57,-66.33,32.43
12659.00,14.60,14.58,14.64,14.63,14.61,1495.12,-623.54,705.08,59.51,-83.82,-55.75
12690.00,14.60,14.58,14.64,14.81,14.66,-389.16,-822.27,861.33,8.39,-108.94,-58.24
12720.00,14.60,14.58,14.64,15.02,14.71,-333.01,-948.73,399.90,229.16,-45.55,-131.97
12751.00,14.60,14.58,14.66,15.33,14.79,124.02,-1653.81,353.03,30.94,-76.13,-121.34
12781.00,14.60,14.58,14.68,15.65,14.88,159.18,-1159.67,391.11,27.98,-24.66,-60.31
12812.00,14.61,14.58,14.69,15.91,14.95,-156.74,-945.31,405.76,44.78,5.31,-2.40
12842.00,14.62,14.58,14.70,16.06,14.99,-28.32,-889.16,593.75,15.49,0.14,-2.16
12872.00,14.63,14.59,14.70,16.21,15.03,-67.87,-834.47,590.33,4.49,2.45,-3.63
12903.00,14.65,14.59,14.71,16.33,15.07,-35.64,-821.29,629.88,8.34,0.59,-1.74
12937.00,14.67,14.59,14.72,16.36,15.09,-50.78,-863.28,569.34,-9.40,7.38,0.69
12969.00,14.67,14.60,14.72,16.31,15.08,-86.91,-914.55,497.07,-13.10,2.60,-1.91
13000.00,14.69,14.60,14.73,16.21,15.06,-64.94,-870.12,557.13,-6.94,0.85,-0.56
13031.00,14.71,14.60,14.72,16.09,15.03,-59.57,-841.31,563.48,11.32,-2.42,-3.97
13061.00,14.76,14.61,14.72,15.99,15.02,-50.29,-830.57,591.31,12.31,-4.20,0.50
13092.00,14.81,14.62,14.73,15.89,15.01,-33.69,-849.61,568.36,6.58,-0.77,-0.25
13123.00,14.88,14.63,14.72,15.78,15.01,-54.20,-875.98,551.76,12.45,-5.39,0.52
13154.00,14.99,14.65,14.72,15.67,15.01,-36.13,-826.17,592.77,25.98,-12.91,0.05
13184.00,15.08,14.66,14.72,15.52,14.99,-38.57,-823.24,615.23,13.27,-6.20,0.21
13215.00,15.15,14.67,14.72,15.37,14.98,-37.11,-853.03,583.98,9.24,-9.44,-1.22
13246.00,15.22,14.69,14.72,15.21,14.96,-36.62,-823.24,618.65,1.98,-2.53,-2.08
13277.00,15.27,14.70,14.72,15.06,14.94,-19.04,-831.05,622.07,-1.85,-1.02,-3.90
13308.00,15.31,14.72,14.72,14.91,14.92,-42.48,-845.21,604.49,-5.74,-0.74,-7.50
13339.00,15.33,14.75,14.73,14.77,14.90,-2.93,-795.41,633.30,-14.95,3.93,-10.12
13370.00,15.34,14.78,14.73,14.65,14.87,-35.16,-850.10,590.33,-21.44,2.25,-10.05
13401.00,15.33,14.81,14.73,14.59,14.86,-21.00,-836.91,592.29,-23.66,-4.88,-10.03
13432.00,15.32,14.83,14.72,14.56,14.86,-29.79,-869.14,549.80,-36.65,-12.88,-13.82
13463.00,15.28,14.86,14.71,14.56,14.85,-18.07,-997.07,588.87,-38.67,-39.31,-20.37
13494.00,15.22,14.88,14.71,14.55,14.84,-103.52,-989.26,538.57,-52.23,-27.10,-29.08
13525.00,15.16,14.89,14.70,14.55,14.82,-67.38,-1010.74,562.50,-84.62,-25.37,-44.08
13556.00,15.10,14.90,14.69,14.55,14.81,-61.04,-1084.47,546.39,-85.21,-35.57,-77.07
13587.00,15.05,14.89,14.69,14.55,14.80,-22.46,-1236.82,495.61,-97.82,-41.07,-121.95
13618.00,15.02,14.86,14.70,14.55,14.78,-59.57,-1393.07,490.23,-86.47,-45.41,-183.66
13648.00,14.96,14.81,14.70,14.56,14.76,-100.10,-1504.39,377.44,-59.12,-43.64,-247.13
13679.00,14.90,14.73,14.69,14.56,14.72,251.46,-1965.33,593.26,-41.19,-54.73,-250.14
13710.00,14.77,14.66,14.68,14.55,14.67,188.48,-2000.00,644.04,-19.45,-69.39,-250.14
13741.00,14.67,14.60,14.66,14.54,14.62,-317.38,-1500.49,425.29,74.28,-66.43,-250.14
13772.00,14.62,14.58,14.65,14.57,14.60,-1145.51,-735.84,236.33,91.50,-32.08,-250.14
13803.00,14.61,14.57,14.65,14.55,14.60,-22.46,-1130.86,-266.60,83.73,-21.63,-21.69
13834.00,14.61,14.57,14.64,14.54,14.59,-316.41,-521.97,238.77,39.75,96.88,201.43
13865.00,14.60,14.57,14.64,14.54,14.59,-519.04,-870.61,1013.18,72.22,84.98,218.21
13896.00,14.60,14.57,14.64,14.54,14.59,-180.66,-897.46,370.12,61.89,66.15,178.83
13927.00,14.60,14.57,14.64,14.54,14.59,80.57,-793.95,256.84,47.09,85.29,199.14
13958.00,14.60,14.58,14.65,14.54,14.59,75.20,-879.39,341.80,-9.96,115.76,222.79
13989.00,14.60,14.58,14.65,14.54,14.59,134.77,-1169.43,452.15,-14.44,116.46,224.65
14020.00,14.60,14.58,14.65,14.54,14.59,369.14,-1311.04,538.57,2.92,84.63,232.38
14051.00,14.60,14.58,14.65,14.54,14.59,799.32,-1242.68,660.16,-3.63,55.90,223.82
14082.00,14.60,14.58,14.65,14.54,14.59,803.71,-1248.05,763.18,-50.37,76.64,213.98
14113.00,14.60,14.58,14.65,14.54,14.59,569.82,-1395.51,649.41,-40.82,101.47,200.69
14144.00,14.60,14.58,14.65,14.54,14.59,530.76,-1326.66,492.19,-48.05,117.14,152.58
14174.00,14.60,14.58,14.65,14.54,14.59,514.65,-1478.03,530.27,-70.21,116.59,107.76
14205.00,14.60,14.58,14.65,14.54,14.59,717.29,-1065.43,591.31,-69.66,128.85,117.38
14236.00,14.60,14.58,14.66,14.54,14.59,891.60,-868.16,631.35,-95.17,137.04,83.15
14267.00,14.60,14.58,14.66,14.54,14.59,1041.02,-878.42,727.05,-60.94,81.37,-22.43
14297.00,14.60,14.58,14.66,14.64,14.62,652.34,-2000.00,1999.94,-192.50,-14.21,-150.77
14327.00,14.60,14.58,14.66,14.89,14.68,-660.64,-1761.23,323.73,-250.14,3.69,-78.87
14358.00,14.61,14.58,14.66,15.52,14.84,338.87,-1568.85,1795.41,124.95,-157.63,-149.94
14388.00,14.61,14.58,14.68,16.06,14.98,-58.59,-1459.47,1276.37,15.58,28.79,-181.34
14419.00,14.61,14.58,14.70,16.29,15.05,69.82,-1114.26,134.77,111.82,-93.54,-95.18
14450.00,14.61,14.58,14.71,16.38,15.07,675.29,-1878.91,435.55,49.13,-48.56,-41.25
14480.00,14.61,14.58,14.72,16.43,15.08,-151.86,-917.97,473.63,47.22,-22.76,-2.88
14511.00,14.62,14.58,14.71,16.44,15.09,-83.50,-826.66,554.20,33.56,-2.80,-1.47
14542.00,14.63,14.59,14.71,16.39,15.08,-40.04,-869.63,484.86,8.66,2.53,1.47
14572.00,14.64,14.59,14.72,16.30,15.06,-75.20,-898.44,466.31,10.76,-1.83,-0.47
14603.00,14.67,14.59,14.72,16.21,15.05,-51.76,-885.25,516.60,16.88,-3.41,-3.86
14633.00,14.70,14.60,14.72,16.08,15.02,-61.52,-865.72,537.60,13.89,-1.85,-3.22
14664.00,14.73,14.61,14.73,15.95,15.01,-51.76,-855.47,542.48,8.43,-3.11,-1.85
14695.00,14.77,14.62,14.74,15.86,14.99,-31.74,-892.58,555.66,5.59,-1.42,-1.42
14726.00,14.79,14.63,14.74,15.78,14.99,-43.95,-869.63,521.48,13.38,1.77,-2.20
14757.00,14.83,14.63,14.75,15.67,14.97,-53.71,-825.20,595.70,11.05,-2.69,-1.56
14788.00,14.88,14.65,14.75,15.55,14.96,-37.11,-875.98,545.90,8.13,-0.85,-2.25
14819.00,14.92,14.66,14.76,15.40,14.93,-51.27,-835.94,568.85,7.73,-3.40,-0.53
14850.00,14.97,14.67,14.76,15.24,14.91,-56.64,-833.01,577.64,9.87,-7.28,-1.20
14881.00,15.03,14.69,14.76,15.09,14.89,-33.69,-873.05,554.69,3.24,-6.33,-2.90
14911.00,15.09,14.71,14.76,14.94,14.87,-47.36,-878.91,546.87,3.38,-2.03,-4.73
14942.00,15.16,14.73,14.76,14.77,14.86,-45.90,-908.20,536.13,0.93,-7.41,-3.92
14973.00,15.22,14.76,14.75,14.64,14.84,-41.99,-886.23,579.10,-2.19,-9.94,-10.15
15004.00,15.26,14.80,14.74,14.58,14.84,-33.69,-850.10,535.16,-11.39,-9.78,-10.42
15035.00,15.26,14.83,14.72,14.56,14.84,31.25,-809.57,608.40,-26.90,-37.79,-12.16
15066.00,15.23,14.85,14.71,14.56,14.84,-47.36,-915.53,535.64,-42.10,-24.34,-29.05
15097.00,15.17,14.87,14.71,14.55,14.83,-129.39,-1054.69,615.23,-92.03,-27.37,-55.50
15128.00,15.10,14.87,14.70,14.55,14.81,-210.45,-1243.16,725.10,-131.65,-38.44,-111.05
15159.00,15.03,14.83,14.71,14.56,14.78,-271.48,-1418.95,491.21,-116.30,-62.83,-204.27
15190.00,14.92,14.76,14.70,14.56,14.73,-122.07,-1530.27,376.46,-59.65,-69.39,-250.14
15221.00,14.83,14.68,14.69,14.55,14.69,326.17,-1442.38,430.66,-39.76,-64.62,-250.14
15252.00,14.72,14.62,14.67,14.55,14.64,307.62,-1723.14,482.42,-5.13,-53.47,-250.14
15283.00,14.63,14.58,14.66,14.54,14.60,-418.95,-1203.61,269.04,114.39,-50.32,-250.14
15314.00,14.61,14.57,14.65,14.57,14.60,-179.69,-261.72,338.38,16.43,-31.17,-250.14
15347.00,14.60,14.57,14.65,14.55,14.59,-96.68,-558.59,250.49,106.92,2.21,-32.12
15377.00,14.60,14.57,14.65,14.55,14.59,-185.06,-623.54,84.47,-23.24,96.18,163.09
15408.00,14.60,14.57,14.65,14.54,14.59,-463.38,-1293.46,907.71,6.24,43.24,217.37
15439.00,14.60,14.57,14.65,14.54,14.59,-130.37,-870.61,321.78,40.07,24.02,207.08
15470.00,14.60,14.57,14.65,14.54,14.59,124.02,-833.98,207.52,30.08,46.69,243.84
15501.00,14.60,14.58,14.65,14.54,14.59,92.29,-849.12,255.37,-25.13,81.79,250.13
15532.00,14.60,14.58,14.65,14.54,14.59,138.18,-1315.43,352.54,-32.18,115.79,229.95
15563.00,14.60,14.57,14.65,14.54,14.59,225.59,-1337.89,403.32,10.08,129.50,212.40
15594.00,14.60,14.58,14.65,14.54,14.59,327.15,-1341.80,479.00,-14.48,127.73,209.31
15625.00,14.60,14.58,14.65,14.54,14.59,397.46,-1404.79,578.61,-38.61,95.08,196.49
15656.00,14.60,14.58,14.65,14.54,14.59,476.07,-1477.54,715.33,-54.43,62.95,192.15
15687.00,14.60,14.58,14.65,14.53,14.59,681.64,-1404.79,759.77,-61.20,50.99,182.72
15718.00,14.59,14.58,14.65,14.53,14.59,946.78,-1351.07,779.79,-68.82,62.25,164.55
15749.00,14.59,14.58,14.65,14.53,14.59,1145.51,-1121.09,702.15,-24.08,57.85,121.08
15780.00,14.59,14.58,14.65,14.54,14.59,1201.17,-740.72,788.57,-20.63,24.16,42.56
15810.00,14.59,14.58,14.65,14.61,14.61,1999.94,-2000.00,1404.79,-44.61,-154.34,-90.13
15840.00,14.59,14.58,14.65,14.90,14.68,-1000.49,-1291.02,738.77,-95.13,-37.34,-108.27
15871.00,14.60,14.57,14.65,15.42,14.81,707.52,-2000.00,960.45,250.13,-118.59,-238.50
15901.00,14.60,14.58,14.67,15.82,14.92,140.14,-1512.70,598.63,-94.24,-116.12,-183.23
15931.00,14.61,14.58,14.70,15.99,14.97,-25.88,-810.06,899.90,3.56,-27.99,-86.84
15962.00,14.61,14.58,14.70,16.08,14.99,172.36,-1053.22,48.34,57.69,-36.02,-2.02
15993.00,14.62,14.59,14.70,16.18,15.02,-32.23,-857.91,571.29,62.26,-16.46,-4.73
16024.00,14.66,14.60,14.70,16.22,15.04,-7.81,-887.21,466.31,29.83,-11.69,-1.08
16054.00,14.69,14.60,14.69,16.20,15.05,-41.02,-810.55,594.24,11.85,-7.26,-0.02
16085.00,14.72,14.60,14.69,16.17,15.05,-57.13,-861.33,575.20,10.32,-2.29,0.95
16115.00,14.74,14.61,14.69,16.12,15.04,-25.88,-852.54,609.37,20.62,-5.20,-0.73
16146.00,14.76,14.61,14.69,16.07,15.03,-29.79,-796.39,610.35,5.02,-3.08,-2.26
16177.00,14.78,14.61,14.69,15.99,15.02,-36.62,-825.68,593.75,-2.26,2.68,-1.39
16207.00,14.80,14.61,14.69,15.92,15.01,-37.60,-820.80,588.38,1.59,-0.94,-1.27
16238.00,14.83,14.62,14.69,15.85,15.00,-40.04,-837.89,604.00,2.98,0.63,-1.39
16269.00,14.88,14.63,14.70,15.77,14.99,-77.15,-847.17,670.90,-25.40,10.15,-2.14
16300.00,14.92,14.65,14.71,15.63,14.98,-23.44,-812.50,628.42,-0.36,-0.08,-4.93
16331.00,14.97,14.67,14.73,15.45,14.95,-27.83,-830.57,635.25,-11.55,3.91,-4.31
16362.00,15.02,14.69,14.74,15.23,14.92,-44.92,-839.36,554.20,-15.89,2.69,-4.07
16393.00,15.07,14.71,14.74,15.04,14.89,-41.50,-870.61,593.26,-10.95,-1.13,-6.37
16424.00,15.13,14.73,14.74,14.88,14.87,-24.41,-844.24,598.14,-5.79,-1.89,-5.27
16455.00,15.18,14.76,14.74,14.74,14.85,-50.78,-869.63,594.73,-7.94,0.31,-6.75
16486.00,15.23,14.78,14.74,14.63,14.84,-13.18,-879.39,541.50,-4.23,-7.66,-9.28
16517.00,15.26,14.81,14.73,14.58,14.84,-23.93,-843.75,594.24,-8.14,-16.11,-12.67
16548.00,15.27,14.84,14.72,14.56,14.85,-91.31,-683.11,574.22,-12.78,-16.37,-14.45
16579.00,15.24,14.86,14.71,14.55,14.84,-99.12,-863.28,616.70,-46.05,-43.77,-30.13
16609.00,15.19,14.88,14.70,14.55,14.83,-23.44,-1033.20,672.36,-74.15,-23.10,-45.40
16640.00,15.12,14.89,14.70,14.55,14.82,-133.30,-1077.64,803.71,-139.76,-26.61,-86.72
16671.00,15.05,14.87,14.70,14.55,14.79,-287.11,-1373.54,614.26,-154.99,-61.09,-170.34
16702.00,14.96,14.81,14.70,14.55,14.75,-208.01,-1303.22,457.52,-116.02,-75.15,-250.14
16733.00,14.87,14.72,14.69,14.55,14.71,464.84,-1784.18,703.12,-92.15,-66.98,-250.14
16764.00,14.76,14.65,14.68,14.55,14.66,153.81,-2000.00,728.03,-26.02,-72.50,-250.14
16795.00,14.66,14.59,14.67,14.54,14.61,-186.52,-1248.05,250.49,42.34,-92.05,-250.14
16826.00,14.61,14.57,14.65,14.55,14.60,-744.14,-854.98,7.81,69.14,-59.40,-250.14
16857.00,14.60,14.57,14.65,14.56,14.60,112.79,-1126.95,-508.30,72.78,-81.20,-125.63
16888.00,14.60,14.57,14.65,14.55,14.59,-113.28,5.37,12.21,38.77,87.10,142.10
16919.00,14.60,14.57,14.65,14.54,14.59,-330.08,-641.60,-350.10,-63.38,94.62,218.60
16950.00,14.60,14.57,14.65,14.54,14.59,-13.18,-684.57,250.98,1.76,51.71,250.13
16981.00,14.60,14.57,14.65,14.54,14.59,246.58,-745.61,83.01,43.94,43.98,250.13
17012.00,14.60,14.57,14.65,14.54,14.59,183.11,-791.02,224.61,20.09,78.82,250.13
17043.00,14.60,14.57,14.65,14.54,14.59,150.88,-1183.11,231.93,8.31,106.98,237.23
17073.00,14.60,14.58,14.65,14.54,14.59,143.07,-1248.05,338.87,-1.11,98.33,201.79
17104.00,14.60,14.58,14.66,14.54,14.59,388.67,-1325.68,426.76,-5.19,66.99,188.02
17135.00,14.60,14.58,14.66,14.54,14.59,486.33,-1280.27,554.20,-58.39,78.18,192.94
17166.00,14.60,14.58,14.66,14.54,14.59,508.79,-1482.42,750.49,-64.31,101.58,185.50
17197.00,14.60,14.58,14.66,14.54,14.59,623.54,-1444.34,797.36,-24.20,123.37,167.67
17228.00,14.60,14.58,14.66,14.54,14.59,694.82,-1263.18,703.61,-6.27,140.73,138.29
17259.00,14.60,14.58,14.66,14.54,14.59,751.95,-1124.02,358.89,21.50,115.27,92.81
17290.00,14.60,14.58,14.66,14.53,14.59,938.48,-736.82,522.46,-63.27,114.24,46.06
17321.00,14.59,14.58,14.66,14.55,14.60,993.65,-976.56,646.97,-31.02,55.82,23.44
17351.00,14.60,14.57,14.66,14.72,14.64,582.03,336.91,865.23,250.13,-137.41,-213.86
17382.00,14.60,14.57,14.66,15.04,14.72,-1060.55,-937.50,-1128.42,122.05,-93.31,-122.53
17412.00,14.60,14.58,14.67,15.49,14.83,220.70,-341.80,499.02,24.41,-169.82,-188.18
17442.00,14.60,14.57,14.69,15.72,14.90,-565.92,-790.04,-429.69,250.13,-95.69,-117.47
17473.00,14.60,14.58,14.69,15.90,14.94,-122.56,-673.34,528.81,111.16,-57.28,-6.36
17503.00,14.64,14.59,14.69,16.02,14.99,-24.90,-976.56,723.63,61.46,-24.70,-0.24
17534.00,14.68,14.60,14.69,16.12,15.02,-10.25,-827.15,652.83,29.08,-1.78,1.27
17565.00,14.70,14.61,14.69,16.16,15.04,-53.71,-791.50,581.05,3.57,6.54,-0.18
17595.00,14.71,14.61,14.70,16.16,15.04,-40.53,-855.96,571.78,-5.31,1.45,1.50
17626.00,14.71,14.61,14.70,16.14,15.04,-33.69,-861.33,565.43,4.04,-0.76,-1.26
17657.00,14.72,14.61,14.70,16.09,15.03,-31.74,-841.31,596.68,-3.66,3.28,-2.89
17687.00,14.73,14.61,14.70,16.01,15.01,-47.85,-843.26,554.20,-5.61,4.55,-1.00
17718.00,14.75,14.61,14.70,15.94,15.00,-57.13,-855.47,549.80,-0.56,0.01,-0.64
17748.00,14.78,14.62,14.71,15.88,15.00,-73.73,-895.51,573.24,0.00,0.70,2.20
17780.00,14.82,14.63,14.72,15.79,14.99,-49.32,-834.96,578.12,2.18,-0.36,-1.50
17810.00,14.87,14.64,14.72,15.69,14.98,-30.27,-836.91,589.36,5.98,0.05,-1.08
17841.00,14.92,14.65,14.73,15.55,14.96,-47.85,-855.96,583.98,4.08,-1.61,-2.89
17872.00,14.97,14.67,14.73,15.36,14.93,-41.50,-910.64,540.53,0.07,-5.32,-0.46
17903.00,15.03,14.69,14.74,15.18,14.91,-32.23,-850.59,597.66,3.68,-5.24,-5.30
17934.00,15.08,14.71,14.74,15.01,14.88,-48.83,-854.00,568.36,-3.48,-2.69,-4.61
17965.00,15.15,14.73,14.73,14.85,14.87,-34.18,-879.39,540.04,-0.55,-2.29,-5.40
17996.00,15.22,14.76,14.73,14.72,14.86,-9.28,-861.82,591.80,0.37,-7.89,-8.55
18027.00,15.27,14.79,14.73,14.62,14.85,25.39,-809.08,597.66,-2.69,-3.50,-12.43
18058.00,15.30,14.81,14.72,14.57,14.85,-26.37,-823.24,622.07,-13.83,-13.74,-10.51
18089.00,15.31,14.83,14.71,14.55,14.85,-100.59,-814.45,649.90,-24.15,-31.43,-8.91
18120.00,15.28,14.85,14.71,14.55,14.85,-18.55,-758.79,615.72,-31.36,-17.72,-20.03
18151.00,15.21,14.88,14.70,14.55,14.83,-43.95,-917.97,622.56,-79.84,-21.02,-28.19
18182.00,15.13,14.89,14.70,14.55,14.82,-100.10,-1054.69,621.58,-107.44,-25.18,-60.28
18213.00,15.05,14.88,14.70,14.55,14.80,-174.32,-1289.06,585.45,-131.44,-41.53,-118.15
18243.00,14.98,14.85,14.71,14.55,14.77,-160.16,-1431.15,522.46,-111.83,-49.79,-210.18
18274.00,14.90,14.77,14.71,14.55,14.73,-184.57,-1620.61,508.79,-65.91,-55.61,-250.14
18305.00,14.82,14.69,14.70,14.55,14.69,114.75,-1854.00,435.06,-32.31,-62.01,-250.14
18336.00,14.71,14.63,14.68,14.54,14.64,196.29,-1898.93,548.34,50.56,-72.86,-250.14
18367.00,14.63,14.58,14.66,14.53,14.60,-641.11,-1099.12,198.24,122.53,-86.44,-250.14
18398.00,14.60,14.58,14.65,14.57,14.60,-335.45,-287.11,452.15,-12.56,-15.54,-242.02
18429.00,14.60,14.57,14.65,14.55,14.59,296.87,-669.92,-35.16,221.12,33.15,22.21
18460.00,14.60,14.57,14.65,14.54,14.59,-313.48,-533.20,-17.58,15.91,122.85,204.31
18491.00,14.60,14.58,14.65,14.54,14.59,-316.89,-1093.75,285.64,71.05,34.62,241.62
18522.00,14.59,14.57,14.65,14.54,14.59,6.35,-719.24,376.95,38.31,45.48,215.39
18553.00,14.60,14.58,14.65,14.54,14.59,83.98,-734.86,349.12,-4.99,82.63,244.79
18584.00,14.60,14.58,14.65,14.54,14.59,216.80,-929.69,326.17,-31.53,105.79,245.40
18615.00,14.60,14.58,14.65,14.54,14.59,238.28,-1348.63,439.94,-20.69,122.47,227.63
18646.00,14.60,14.58,14.65,14.54,14.59,414.55,-1244.63,465.82,11.92,102.05,221.97
18676.00,14.60,14.58,14.65,14.53,14.59,644.04,-1179.20,540.53,-48.24,108.30,211.00
18707.00,14.60,14.58,14.65,14.53,14.59,596.19,-1545.41,694.34,-65.79,105.85,195.10
18738.00,14.60,14.58,14.65,14.53,14.59,691.89,-1460.94,741.70,-29.83,83.99,172.41
18769.00,14.60,14.58,14.65,14.53,14.59,933.11,-1156.74,615.23,-71.02,91.10,146.27
18800.00,14.59,14.58,14.65,14.53,14.59,780.76,-1254.39,725.10,-67.26,77.00,95.40
18831.00,14.59,14.58,14.65,14.54,14.59,767.58,-1030.27,580.08,8.31,10.38,57.62
18862.00,14.59,14.58,14.65,14.57,14.60,885.25,-839.36,189.94,177.29,-71.70,-18.92
18893.00,14.60,14.58,14.65,14.74,14.64,1320.31,-329.59,449.22,63.89,-96.72,15.08
18923.00,14.60,14.57,14.66,14.98,14.70,-867.68,-624.02,638.67,-39.58,-186.44,-66.82
18953.00,14.60,14.58,14.66,15.19,14.76,-2.44,-737.79,1305.66,-23.98,-97.43,-135.04
18984.00,14.60,14.58,14.68,15.36,14.80,151.86,-872.07,562.01,166.47,-111.21,-92.31
19014.00,14.61,14.58,14.69,15.68,14.89,87.40,-585.94,690.92,55.63,-16.21,-4.62
19044.00,14.66,14.60,14.69,15.84,14.95,-24.41,-817.87,697.75,57.76,-29.52,-4.08
19075.00,14.69,14.60,14.70,15.95,14.99,-71.78,-887.70,506.84,15.89,-4.04,-4.60
19106.00,14.73,14.61,14.70,16.01,15.01,-31.25,-844.24,574.22,20.14,-4.15,-2.53
19137.00,14.76,14.62,14.70,16.00,15.02,-25.39,-854.98,592.77,11.34,-5.69,-0.21
19167.00,14.79,14.63,14.70,15.94,15.01,-35.16,-824.22,592.29,8.68,-4.27,-0.31
19200.00,14.82,14.63,14.70,15.84,15.00,80.08,-636.72,802.25,-24.88,9.79,1.81
19230.00,14.85,14.63,14.71,15.73,14.98,-40.53,-864.75,624.51,-1.63,-0.74,-2.81
19261.00,14.87,14.64,14.71,15.63,14.96,-6.84,-838.87,596.68,-2.89,0.21,-1.28
19291.00,14.91,14.65,14.71,15.53,14.95,-45.41,-844.73,562.01,2.44,-3.27,-2.10
19322.00,14.95,14.66,14.72,15.45,14.94,-38.09,-809.57,583.50,5.11,-5.49,0.67
19353.00,15.00,14.68,14.72,15.37,14.94,-24.41,-859.37,600.10,5.34,-1.78,-0.63
19384.00,15.05,14.69,14.72,15.27,14.93,-14.65,-845.70,602.54,4.92,-2.23,-1.78
19415.00,15.09,14.70,14.72,15.17,14.92,-27.34,-848.63,606.93,0.69,-4.11,-0.89
19446.00,15.13,14.72,14.72,15.07,14.91,-21.00,-847.66,582.52,-2.65,-5.80,-4.11
19477.00,15.18,14.73,14.72,14.97,14.90,-26.37,-841.31,623.05,0.94,-1.76,-4.69
19508.00,15.23,14.74,14.72,14.87,14.89,-25.39,-847.66,590.82,-3.10,-2.38,-4.86
19539.00,15.29,14.76,14.72,14.77,14.88,-18.55,-831.05,604.49,-1.03,-4.00,-4.94
19570.00,15.34,14.78,14.71,14.68,14.88,-3.42,-838.38,625.00,-4.54,-3.79,-8.34
19601.00,15.38,14.80,14.71,14.60,14.87,-14.65,-814.45,618.16,-3.75,-2.34,-9.86
19632.00,15.40,14.82,14.71,14.56,14.87,18.07,-820.31,604.98,-8.56,-10.22,-4.94
19663.00,15.41,14.83,14.70,14.55,14.87,-56.64,-824.71,628.91,-20.18,-13.32,-8.66
19694.00,15.39,14.85,14.70,14.55,14.87,-20.51,-956.54,735.35,-29.12,-22.45,-18.95
19725.00,15.36,14.87,14.69,14.54,14.86,-49.32,-875.00,631.84,-38.09,-18.25,-28.44
19756.00,15.30,14.88,14.69,14.54,14.85,-33.69,-1017.09,613.28,-74.96,-30.98,-48.92
19786.00,15.21,14.88,14.69,14.54,14.83,-45.90,-1130.86,632.81,-108.79,-40.85,-79.24
19817.00,15.11,14.87,14.69,14.54,14.80,-180.66,-1263.18,578.61,-101.76,-51.74,-133.67
19848.00,15.02,14.83,14.70,14.55,14.77,-42.97,-1336.91,498.54,-75.72,-61.40,-208.11
19879.00,14.94,14.76,14.69,14.55,14.73,204.59,-1335.94,540.53,-87.24,-42.12,-250.14
19910.00,14.85,14.68,14.68,14.54,14.69,265.14,-1345.70,421.39,-66.90,-52.26,-250.14
19941.00,14.74,14.63,14.67,14.54,14.65,465.33,-1373.05,479.98,-14.56,-66.11,-250.14
19972.00,14.65,14.59,14.66,14.53,14.61,-80.57,-1130.86,290.53,59.95,-58.64,-250.14
20003.00,14.61,14.58,14.65,14.55,14.60,-1116.70,-649.41,166.02,86.60,26.63,-250.14
20034.00,14.60,14.57,14.64,14.54,14.59,87.89,-831.54,-408.20,153.52,-4.68,-19.38
20065.00,14.60,14.57,14.64,14.53,14.59,-267.09,-474.12,175.29,64.02,87.01,193.56
20096.00,14.60,14.57,14.64,14.53,14.59,-50.29,-542.48,47.36,89.43,75.68,249.37
20127.00,14.60,14.57,14.64,14.53,14.59,233.89,-708.01,10.74,117.50,47.73,226.54
20158.00,14.60,14.57,14.64,14.53,14.59,268.55,-572.75,146.97,58.79,60.24,234.79
20189.00,14.60,14.58,14.64,14.53,14.59,172.85,-961.91,253.91,39.91,54.50,229.98
20220.00,14.60,14.58,14.64,14.53,14.59,191.41,-1165.04,330.08,44.98,32.94,218.60
20251.00,14.60,14.58,14.64,14.53,14.59,262.70,-1214.36,300.78,44.16,1.67,250.13
20281.00,14.60,14.58,14.64,14.53,14.59,400.88,-1198.24,215.33,-0.34,-40.50,250.13
20312.00,14.60,14.58,14.65,14.53,14.59,475.10,-1292.48,242.68,-37.25,-110.02,250.13
20343.00,14.60,14.58,14.65,14.53,14.59,729.00,-1506.35,219.24,-75.95,-172.98,250.13
20374.00,14.60,14.58,14.65,14.53,14.59,1034.67,-1817.87,-2.44,-12.12,-202.58,250.13
20405.00,14.60,14.58,14.65,14.53,14.59,888.18,-1326.66,-291.99,-26.18,-223.87,214.57
20436.00,14.60,14.58,14.65,14.53,14.59,826.17,-1254.88,-371.09,-71.30,-225.23,110.22
20466.00,14.60,14.58,14.66,14.53,14.59,706.05,-1390.14,-142.58,-86.70,-177.20,81.76
20496.00,14.60,14.58,14.66,14.55,14.60,400.39,-1007.32,-26.86,-53.38,-118.48,73.59
20527.00,14.60,14.58,14.66,14.87,14.68,894.04,53.22,-887.21,35.35,-87.85,-169.23
20557.00,14.60,14.58,14.70,15.39,14.82,381.84,142.09,1777.34,122.07,-70.70,-103.14
20588.00,14.61,14.58,14.73,15.64,14.89,68.36,-687.01,587.40,83.46,-4.47,-3.34
20619.00,14.61,14.59,14.74,15.79,14.93,-48.34,-986.82,433.11,-8.77,-0.84,-1.63
20649.00,14.62,14.59,14.75,15.86,14.96,-41.50,-931.15,470.70,22.33,-7.21,-4.11
20680.00,14.63,14.59,14.74,15.90,14.97,-43.46,-853.52,531.74,18.17,-2.67,-1.02
20710.00,14.64,14.60,14.74,15.94,14.98,-53.71,-837.89,560.06,-2.99,-1.93,-1.28
20741.00,14.65,14.60,14.74,15.95,14.99,-66.41,-892.09,513.18,2.24,1.24,-4.18
20772.00,14.66,14.62,14.73,16.03,15.01,-83.98,-925.29,460.45,48.77,-12.34,-0.12
20802.00,14.68,14.63,14.72,16.06,15.02,-56.64,-848.63,561.04,16.11,-2.59,3.47
20833.00,14.69,14.63,14.72,16.07,15.03,-51.76,-857.42,558.11,10.31,-5.92,-0.77
20864.00,14.69,14.64,14.72,16.07,15.03,-52.25,-865.72,542.97,11.73,-6.92,0.69
20895.00,14.70,14.65,14.71,16.11,15.04,-38.09,-806.64,604.98,28.42,-11.63,2.15
20926.00,14.72,14.66,14.71,16.07,15.04,-50.29,-830.57,579.10,13.31,-6.97,-1.44
20957.00,14.74,14.67,14.71,15.99,15.03,-67.38,-856.93,555.66,7.54,-7.56,2.52
20988.00,14.76,14.68,14.70,15.92,15.01,-51.76,-814.45,623.54,17.83,-13.82,2.58
21018.00,14.78,14.68,14.70,15.88,15.01,-25.39,-799.80,636.72,12.98,-11.92,0.99
21049.00,14.80,14.68,14.70,15.85,15.01,-64.94,-820.31,603.03,8.95,-10.67,1.36
21080.00,14.81,14.69,14.70,15.81,15.00,-52.73,-824.22,592.29,1.60,-2.66,0.16
21111.00,14.82,14.69,14.70,15.79,15.00,-38.09,-803.71,613.28,2.83,-5.40,-0.37
21142.00,14.84,14.69,14.70,15.78,15.00,-34.67,-815.92,631.84,8.44,-5.65,2.76
21173.00,14.86,14.69,14.70,15.76,15.00,-54.69,-826.17,609.37,5.12,-5.10,2.91
21204.00,14.87,14.70,14.70,15.73,15.00,-57.13,-828.61,626.95,3.35,-1.47,2.57
21235.00,14.88,14.70,14.69,15.69,14.99,110.35,-919.43,580.57,4.65,-60.96,4.34
21266.00,14.90,14.71,14.69,15.66,14.99,61.52,-833.01,710.45,19.42,-25.95,4.56
21297.00,14.91,14.71,14.69,15.63,14.99,-65.92,-813.96,691.89,4.95,-20.85,2.96
21328.00,14.92,14.71,14.69,15.63,14.99,-87.40,-756.35,656.74,-2.83,1.76,1.07
21359.00,14.92,14.70,14.69,15.62,14.98,-66.41,-752.93,605.47,6.09,-2.50,2.05
21390.00,14.92,14.70,14.69,15.60,14.98,-20.51,-830.57,696.78,3.65,1.35,0.85
21421.00,14.91,14.70,14.69,15.60,14.97,-5.37,-781.25,632.81,2.05,2.27,-0.73
21452.00,14.89,14.69,14.69,15.57,14.96,-38.57,-785.16,654.79,-1.51,2.73,0.61
21483.00,14.87,14.68,14.69,15.49,14.93,-35.16,-822.27,651.86,-5.35,-7.59,0.79
21513.00,14.83,14.66,14.68,15.40,14.89,-13.67,-799.80,641.60,-5.81,-0.41,2.24
21544.00,14.79,14.65,14.68,15.30,14.86,-24.41,-787.11,651.86,-13.68,2.28,-0.50
21575.00,14.75,14.64,14.68,15.17,14.81,-3.91,-806.15,637.70,-13.64,0.87,-1.09
21606.00,14.71,14.62,14.67,14.99,14.75,-67.87,-890.14,550.78,-21.04,-1.19,5.52
21637.00,14.66,14.61,14.67,14.82,14.69,-11.72,-835.45,592.29,-15.92,-4.02,5.69
21668.00,14.62,14.59,14.67,14.70,14.65,-602.05,-987.30,417.48,-56.75,-15.53,42.23
21699.00,14.60,14.58,14.66,14.63,14.62,-690.92,-1320.80,2.44,-19.12,-148.57,115.17
21730.00,14.60,14.58,14.66,14.58,14.61,-464.84,-1266.60,271.00,-3.14,-250.14,200.61
21761.00,14.60,14.58,14.66,14.57,14.60,-158.69,-715.82,247.56,20.33,-250.14,250.13
21792.00,14.60,14.58,14.66,14.56,14.60,-147.95,-857.42,261.23,-101.63,-250.14,204.92
21823.00,14.60,14.58,14.66,14.56,14.60,-161.13,-1159.18,345.21,-55.21,-250.14,170.43
21854.00,14.60,14.58,14.66,14.55,14.60,58.11,-1119.63,314.45,-21.89,-250.14,137.57
21885.00,14.59,14.58,14.66,14.55,14.60,134.28,-930.66,364.26,-6.71,-227.49,133.26
21916.00,14.60,14.58,14.66,14.55,14.60,120.12,-821.78,400.88,-28.11,-170.96,119.04
21947.00,14.60,14.58,14.66,14.55,14.60,108.40,-898.93,444.82,-14.93,-134.44,78.65
21977.00,14.60,14.58,14.66,14.55,14.59,155.27,-944.34,445.80,-3.79,-100.58,56.53
22008.00,14.60,14.58,14.66,14.55,14.59,199.22,-844.24,438.48,-17.10,-60.75,54.91
22038.00,14.59,14.58,14.66,14.54,14.59,120.61,-807.13,465.33,-32.56,-32.51,49.71
22069.00,14.59,14.58,14.66,14.54,14.59,56.64,-910.16,527.34,-22.05,-33.29,36.27
22099.00,14.60,14.58,14.66,14.54,14.59,60.06,-854.98,523.44,-3.59,-36.18,40.95
22129.00,14.60,14.58,14.66,14.54,14.59,136.23,-839.36,446.78,-11.57,-33.97,44.99
22160.00,14.59,14.58,14.66,14.55,14.59,164.55,-854.49,434.08,-16.99,-41.39,27.08
22191.00,14.60,14.58,14.66,14.58,14.60,558.59,-1256.84,898.44,47.56,-101.23,-34.42
22221.00,14.60,14.58,14.66,14.64,14.62,45.41,-680.66,583.01,111.15,-11.50,-9.11
22252.00,14.60,14.58,14.67,14.71,14.64,-182.62,-875.49,394.53,7.93,10.43,2.86
22283.00,14.60,14.58,14.67,14.76,14.65,-122.07,-855.96,551.76,13.02,-10.70,-2.13
22313.00,14.61,14.58,14.67,14.82,14.67,-68.36,-840.33,604.98,16.32,-6.59,0.50
22344.00,14.63,14.58,14.67,14.91,14.70,-42.97,-822.75,623.05,14.01,-4.98,1.23
22375.00,14.64,14.59,14.67,14.99,14.72,-71.78,-814.45,607.91,7.73,-4.02,0.31
22406.00,14.66,14.59,14.67,15.11,14.76,-61.52,-827.64,604.49,1.21,-1.37,-0.47
22436.00,14.67,14.59,14.68,15.23,14.79,-62.50,-825.68,592.29,-5.30,5.55,0.08
22467.00,14.69,14.59,14.69,15.38,14.84,-66.41,-843.75,588.38,-0.12,-1.00,-1.67
22498.00,14.71,14.59,14.69,15.54,14.88,-54.20,-836.43,578.12,-0.35,3.46,-2.10
22529.00,14.73,14.60,14.70,15.68,14.93,-71.29,-835.94,597.66,-0.66,3.99,-3.13
22560.00,14.74,14.60,14.70,15.78,14.96,-69.82,-849.12,569.34,-8.37,3.76,-2.14
22591.00,14.77,14.60,14.71,15.86,14.99,-54.69,-825.20,602.54,4.06,-5.15,1.11
22622.00,14.80,14.61,14.71,15.94,15.01,-61.52,-808.59,587.89,-3.47,-1.85,-1.56
22653.00,14.82,14.61,14.72,15.97,15.03,-65.43,-833.98,593.26,-1.96,2.07,-3.45
22684.00,14.85,14.61,14.72,15.94,15.03,-71.29,-857.91,607.42,-0.98,-0.76,-4.33
22715.00,14.88,14.62,14.73,15.90,15.03,-54.20,-840.82,601.07,-8.45,4.24,-4.80
22746.00,14.89,14.62,14.74,15.82,15.02,-61.52,-828.61,613.77,-9.37,3.70,-0.68
22777.00,14.91,14.63,14.75,15.71,15.00,-62.99,-851.07,578.61,-11.71,7.13,-3.76
22808.00,14.92,14.63,14.75,15.63,14.99,-45.41,-867.19,587.89,-10.96,3.27,-3.73
22839.00,14.94,14.64,14.76,15.57,14.98,-73.24,-862.30,554.69,-2.24,-0.07,-1.77
22870.00,14.97,14.64,14.76,15.54,14.98,-52.25,-849.12,570.80,1.17,2.44,-2.27
22901.00,14.99,14.65,14.77,15.51,14.98,-53.71,-826.17,590.82,-0.82,3.56,-0.21
22931.00,15.00,14.65,14.77,15.45,14.97,-68.36,-847.66,544.92,-1.84,3.18,-2.10
22962.00,15.02,14.65,14.77,15.39,14.96,-57.62,-856.93,560.55,2.51,0.02,0.63
22993.00,15.04,14.66,14.77,15.33,14.95,-47.36,-845.21,577.64,4.60,-0.37,-1.17
23024.00,15.06,14.66,14.77,15.30,14.95,-52.25,-847.17,575.68,3.43,-1.60,-0.52
23057.00,15.07,14.67,14.77,15.25,14.94,-63.96,-851.07,565.92,0.24,-3.47,-1.64
23088.00,15.09,14.68,14.77,15.17,14.93,-67.38,-846.19,571.29,-0.13,1.48,-1.35
23119.00,15.12,14.69,14.77,15.06,14.91,-68.36,-864.75,572.27,0.73,-0.07,-1.21
23150.00,15.15,14.70,14.77,14.96,14.89,-78.12,-868.16,557.62,-3.92,-0.79,-1.04
23181.00,15.19,14.71,14.77,14.85,14.88,-44.43,-847.66,576.66,-0.85,-1.94,-4.64
23212.00,15.22,14.73,14.77,14.74,14.87,-54.20,-855.96,567.87,-8.66,2.69,-5.92
23242.00,15.24,14.75,14.76,14.64,14.85,-67.87,-873.54,550.78,-11.76,1.97,-5.51
23273.00,15.25,14.76,14.75,14.57,14.83,-114.26,-906.74,552.25,-14.70,-12.00,-6.95
23304.00,15.23,14.78,14.73,14.56,14.82,-100.10,-865.72,639.65,-27.55,-36.21,-13.25
23335.00,15.16,14.79,14.71,14.55,14.80,-104.98,-840.82,771.48,-37.94,-39.69,-26.68
23366.00,15.06,14.79,14.70,14.55,14.78,-155.27,-1170.41,933.11,-133.38,-42.06,-56.54
23397.00,14.95,14.78,14.69,14.54,14.74,-307.62,-1432.62,583.98,-132.25,-59.07,-136.55
23428.00,14.86,14.73,14.69,14.54,14.71,-128.42,-1551.27,486.82,-70.21,-58.80,-208.05
23459.00,14.80,14.68,14.68,14.54,14.68,152.83,-1765.14,541.02,-28.76,-54.56,-233.77
23490.00,14.73,14.64,14.68,14.54,14.65,71.78,-1475.10,252.93,-31.15,-68.30,-249.79
23521.00,14.67,14.61,14.67,14.54,14.62,238.28,-1381.35,237.79,63.93,-74.18,-250.14
23552.00,14.62,14.58,14.66,14.54,14.60,-108.89,-932.62,271.97,51.44,-76.27,-250.14
23582.00,14.61,14.58,14.65,14.55,14.60,-915.53,-596.19,221.68,66.64,-61.64,-250.14
23613.00,14.60,14.57,14.65,14.55,14.59,-168.46,-935.06,-48.83,98.68,-9.14,-56.34
23643.00,14.60,14.57,14.65,14.54,14.59,-293.95,-702.64,155.27,26.66,49.03,134.08
23673.00,14.60,14.58,14.65,14.54,14.59,-296.39,-953.61,373.54,30.73,50.92,175.95
23704.00,14.60,14.57,14.65,14.54,14.59,-77.15,-737.30,232.91,59.02,56.68,190.88
23734.00,14.60,14.58,14.65,14.54,14.59,-21.48,-800.78,235.35,13.73,96.40,218.31
23765.00,14.60,14.58,14.65,14.54,14.59,-55.66,-896.00,278.32,5.74,110.34,208.84
23796.00,14.60,14.58,14.66,14.54,14.59,-9.28,-1095.21,342.29,-7.50,111.07,197.22
23826.00,14.60,14.58,14.66,14.54,14.60,69.34,-1196.29,491.21,-27.70,86.40,211.48
23857.00,14.60,14.58,14.66,14.54,14.59,307.13,-1276.86,613.28,-60.08,48.85,225.75
23888.00,14.60,14.58,14.66,14.54,14.60,453.12,-1253.91,794.92,-71.21,27.90,204.29
23918.00,14.60,14.58,14.66,14.54,14.60,555.66,-1567.38,888.18,-18.10,36.66,173.90
23949.00,14.60,14.58,14.66,14.54,14.59,665.53,-1273.93,750.00,10.76,68.20,154.13
23980.00,14.60,14.58,14.66,14.54,14.60,625.00,-1245.12,532.71,-1.86,85.11,123.98
24011.00,14.60,14.58,14.66,14.55,14.60,1652.83,-2000.00,1193.85,-17.95,-7.07,45.83
24042.00,14.60,14.58,14.66,14.59,14.61,1378.91,-496.58,713.38,55.04,-13.17,-17.90
24072.00,14.60,14.58,14.66,14.75,14.65,1730.96,-497.07,725.10,11.56,-78.03,-105.86
24103.00,14.60,14.58,14.66,14.98,14.70,-463.38,-1557.13,862.79,-78.09,-95.40,-146.45
24134.00,14.60,14.58,14.68,15.27,14.78,304.69,-1602.54,612.79,51.98,-135.28,-131.26
24165.00,14.60,14.58,14.69,15.58,14.86,105.96,-991.21,785.64,114.56,-53.36,-73.84
24196.00,14.63,14.59,14.70,15.72,14.91,-76.66,-764.16,509.77,42.90,-12.58,0.01
24227.00,14.67,14.60,14.69,15.79,14.94,-43.46,-857.42,648.93,15.56,-8.88,2.76
24258.00,14.69,14.61,14.70,15.90,14.98,-34.18,-809.08,632.81,8.53,2.24,-1.84
24289.00,14.72,14.62,14.71,15.99,15.01,1.46,-809.57,639.65,-7.06,7.00,-2.15
24320.00,14.74,14.62,14.71,15.99,15.02,-63.96,-913.57,506.84,-12.59,6.23,-3.98
24351.00,14.77,14.62,14.72,15.93,15.01,-42.48,-869.14,501.95,3.66,0.53,-1.53
24382.00,14.81,14.63,14.72,15.84,15.00,-34.18,-822.75,624.02,1.86,-1.03,0.46
24413.00,14.83,14.63,14.73,15.71,14.98,-12.21,-829.59,624.02,-11.63,-0.97,-1.49
24444.00,14.86,14.64,14.74,15.60,14.96,-28.81,-893.55,572.75,-3.73,-0.78,-4.47
24475.00,14.90,14.65,14.75,15.52,14.95,-57.62,-887.21,539.06,0.47,0.82,-3.24
24506.00,14.93,14.66,14.75,15.43,14.94,-65.92,-855.96,577.15,0.32,-0.60,-0.32
24536.00,14.96,14.67,14.76,15.31,14.93,-44.92,-867.19,552.25,-3.18,1.88,-1.56
24567.00,15.01,14.68,14.76,15.19,14.91,-38.09,-851.07,593.26,2.02,-1.16,-2.78
24598.00,15.06,14.69,14.76,15.05,14.89,-21.00,-854.49,556.15,-8.69,1.72,1.50
24629.00,15.10,14.71,14.76,14.91,14.87,-37.11,-863.77,565.43,-6.27,-0.07,-3.32
24660.00,15.16,14.73,14.76,14.79,14.86,-33.69,-863.28,558.11,-7.30,0.74,-5.40
24691.00,15.20,14.75,14.76,14.69,14.85,-23.44,-848.14,569.82,-10.37,-2.55,-8.45
24722.00,15.25,14.77,14.76,14.61,14.85,-57.13,-870.12,563.96,-10.27,-0.58,-6.26
24753.00,15.28,14.80,14.75,14.57,14.85,-50.29,-869.63,577.15,-12.47,-19.84,-6.47
24784.00,15.28,14.82,14.73,14.55,14.85,-85.94,-958.50,586.91,-31.18,-27.37,-14.98
24815.00,15.27,14.84,14.72,14.54,14.84,-39.06,-797.36,602.05,-46.10,-25.08,-18.79
24846.00,15.23,14.85,14.72,14.54,14.83,-55.18,-957.52,630.86,-85.48,-26.76,-30.28
24877.00,15.17,14.86,14.71,14.54,14.82,-104.98,-1074.22,606.93,-97.20,-26.66,-58.36
24908.00,15.11,14.86,14.71,14.54,14.80,-132.81,-1115.72,527.83,-108.27,-39.18,-109.27
24939.00,15.05,14.84,14.71,14.55,14.79,-161.13,-1301.27,603.52,-142.94,-49.23,-173.60
24969.00,14.97,14.79,14.71,14.55,14.75,-159.18,-1521.48,534.18,-156.65,-55.74,-250.14
25001.00,14.89,14.69,14.69,14.55,14.71,319.34,-1957.52,667.48,-116.50,-62.40,-250.14
25031.00,14.76,14.63,14.68,14.54,14.65,586.43,-2000.00,388.18,-83.11,-75.07,-250.14
25062.00,14.64,14.58,14.67,14.53,14.61,-280.76,-1580.57,231.45,2.18,-46.22,-250.14
25093.00,14.61,14.57,14.66,14.54,14.60,-278.32,-536.62,221.68,-9.44,-8.63,-250.14
25124.00,14.60,14.57,14.66,14.55,14.60,-287.60,189.94,-403.81,250.13,-9.85,-74.69
25154.00,14.60,14.57,14.65,14.54,14.59,45.90,337.89,141.60,162.18,106.83,156.50
25184.00,14.60,14.58,14.65,14.53,14.59,-396.97,-437.50,277.34,-28.11,154.53,201.99
25215.00,14.60,14.57,14.65,14.53,14.59,-132.81,-533.20,342.77,43.73,65.31,210.34
25245.00,14.59,14.57,14.65,14.53,14.59,14.16,-561.04,-72.75,86.70,79.85,230.60
25276.00,14.59,14.58,14.65,14.53,14.59,109.37,-799.32,112.30,28.82,111.41,250.13
25310.00,14.59,14.58,14.66,14.53,14.59,82.52,-1104.98,239.75,6.76,112.95,238.07
25340.00,14.60,14.58,14.66,14.53,14.59,142.58,-1372.56,331.05,12.78,106.93,234.38
25371.00,14.60,14.58,14.66,14.53,14.59,361.82,-1306.64,343.26,-4.41,77.98,227.57
25401.00,14.60,14.58,14.66,14.53,14.59,436.04,-1474.61,512.70,-71.80,74.13,195.39
25432.00,14.60,14.58,14.66,14.53,14.59,583.98,-1756.84,693.85,-71.94,76.61,185.58
25463.00,14.60,14.58,14.66,14.53,14.59,637.70,-1458.01,614.26,-19.34,99.04,195.64
25493.00,14.60,14.58,14.66,14.53,14.59,625.49,-1300.78,590.33,-20.63,109.95,154.11
25524.00,14.60,14.58,14.66,14.53,14.59,881.35,-1185.06,478.52,7.83,76.90,103.42
25555.00,14.60,14.58,14.66,14.53,14.59,1081.54,-758.79,524.41,-32.68,47.38,55.46
25586.00,14.59,14.58,14.66,14.55,14.60,1072.75,-886.72,665.53,-44.32,11.18,3.53
25617.00,14.60,14.58,14.66,14.72,14.64,-65.43,-448.73,1343.26,-22.06,-134.53,-153.72
25648.00,14.60,14.58,14.66,15.02,14.71,-1605.47,32.23,1089.84,-96.74,-166.25,-162.77
25679.00,14.60,14.58,14.67,15.43,14.82,575.68,-1205.08,1572.75,25.48,-77.34,-166.42
25710.00,14.60,14.58,14.70,15.70,14.89,-351.07,-729.49,180.18,224.75,-110.23,-111.31
25741.00,14.60,14.59,14.71,15.92,14.95,334.96,-989.26,494.63,76.40,-45.93,-11.69
25771.00,14.63,14.60,14.71,16.05,15.00,0.98,-1026.86,839.84,49.64,-23.87,-0.82
25803.00,14.66,14.61,14.71,16.16,15.03,-81.54,-871.09,650.88,30.63,-15.37,-0.67
25833.00,14.69,14.61,14.71,16.18,15.05,-85.94,-847.66,593.26,-0.11,6.73,-0.19
25864.00,14.71,14.61,14.72,16.14,15.04,-94.73,-862.79,552.25,-13.82,2.98,1.02
25895.00,14.73,14.61,14.72,16.07,15.03,-34.18,-852.54,578.12,-10.24,6.82,-1.11
25926.00,14.74,14.62,14.73,15.95,15.01,-62.01,-841.80,581.05,-16.24,6.77,-1.53
25957.00,14.75,14.62,14.75,15.83,14.98,-46.39,-856.93,561.04,-22.73,7.08,-2.95
25988.00,14.76,14.62,14.76,15.71,14.96,-56.15,-880.37,534.67,-19.03,5.81,-1.38
26019.00,14.78,14.63,14.77,15.61,14.95,-40.53,-878.91,532.71,-3.35,1.24,-2.90
26050.00,14.81,14.64,14.78,15.48,14.93,-70.31,-874.51,531.25,-1.53,0.43,-1.96
26081.00,14.85,14.65,14.79,15.37,14.92,-34.67,-857.91,564.94,0.52,-5.18,-4.82
26112.00,14.88,14.66,14.80,15.24,14.89,-54.20,-875.98,533.69,-4.08,1.40,-1.02
26143.00,14.92,14.67,14.80,15.10,14.87,-55.18,-889.16,507.81,3.84,-6.85,-2.93
26174.00,14.96,14.68,14.81,14.98,14.86,-33.69,-873.05,554.69,9.30,-5.50,-1.99
26205.00,15.01,14.70,14.80,14.86,14.84,-41.99,-892.09,541.50,1.25,-2.44,-4.57
26236.00,15.07,14.72,14.80,14.74,14.83,-64.45,-865.23,560.55,-2.24,-4.53,-5.31
26266.00,15.12,14.74,14.80,14.64,14.82,-41.50,-856.45,550.78,-5.81,-1.04,-6.21
26297.00,15.15,14.76,14.79,14.58,14.82,-56.64,-855.47,557.62,-8.25,-3.88,-8.38
26328.00,15.16,14.78,14.77,14.56,14.82,-77.15,-860.35,584.96,-20.59,-18.01,-7.99
26359.00,15.16,14.80,14.76,14.55,14.82,-122.56,-965.82,529.79,-32.21,-44.59,-19.32
26390.00,15.13,14.82,14.74,14.54,14.81,-63.96,-987.30,466.31,-55.21,-28.89,-26.79
26421.00,15.08,14.83,14.73,14.54,14.80,-105.96,-1078.13,555.66,-95.82,-13.35,-38.36
26452.00,15.03,14.84,14.72,14.54,14.78,-176.27,-1099.12,682.13,-112.26,-24.72,-82.10
26483.00,14.99,14.83,14.72,14.55,14.77,-211.43,-1253.42,501.46,-130.99,-53.79,-158.05
26514.00,14.93,14.81,14.71,14.55,14.75,-91.80,-1340.33,550.29,-144.47,-53.77,-243.36
26545.00,14.86,14.72,14.70,14.55,14.71,-133.79,-2000.00,645.02,-81.34,-61.79,-250.14
26576.00,14.76,14.65,14.69,14.54,14.66,156.25,-1917.97,501.95,-54.29,-84.20,-250.14
26607.00,14.66,14.60,14.68,14.53,14.62,-120.61,-1723.63,338.87,60.18,-83.33,-250.14
26638.00,14.60,14.58,14.67,14.55,14.60,-984.86,-699.22,16.60,81.58,-79.57,-250.14
26668.00,14.60,14.58,14.67,14.55,14.60,113.77,-955.57,-400.88,26.31,-92.80,-122.06
26699.00,14.60,14.57,14.66,14.54,14.59,238.28,-178.22,178.71,58.55,83.36,152.21
26729.00,14.59,14.58,14.66,14.53,14.59,-494.63,-702.15,354.49,24.57,121.62,223.99
26759.00,14.59,14.58,14.66,14.53,14.59,-65.92,-726.56,403.32,47.33,73.03,195.81
26790.00,14.59,14.58,14.66,14.53,14.59,164.55,-761.72,152.34,61.93,75.79,201.29
26820.00,14.59,14.58,14.66,14.53,14.59,29.79,-840.82,194.34,35.29,97.68,227.01
26851.00,14.59,14.58,14.66,14.53,14.59,159.67,-1134.28,282.71,15.29,118.34,231.34
26884.00,14.60,14.58,14.66,14.53,14.59,160.64,-1228.52,371.58,37.88,113.31,215.89
26914.00,14.59,14.58,14.66,14.53,14.59,317.87,-1271.48,482.91,33.47,104.54,191.03
26945.00,14.60,14.58,14.66,14.53,14.59,437.99,-1279.30,625.49,15.93,101.42,177.15
26975.00,14.60,14.58,14.66,14.53,14.59,552.73,-1299.32,729.49,-53.20,117.50,189.63
27006.00,14.59,14.58,14.66,14.53,14.59,565.92,-1500.49,700.68,-67.98,119.14,194.83
27037.00,14.60,14.58,14.67,14.53,14.59,572.27,-1466.31,602.05,-40.44,93.06,149.90
27068.00,14.60,14.58,14.67,14.53,14.59,901.37,-1074.22,523.93,-46.04,88.27,93.90
27099.00,14.60,14.58,14.67,14.53,14.59,1055.18,-850.59,617.68,-94.86,98.56,58.11
27129.00,14.60,14.58,14.67,14.53,14.59,990.23,-871.09,702.64,-65.36,55.20,4.03
27161.00,14.60,14.58,14.67,14.59,14.61,1020.02,-1877.93,70.80,250.13,-153.03,-104.76
27191.00,14.60,14.58,14.66,14.80,14.66,-1048.83,-755.86,366.21,175.44,-82.29,-74.60
27222.00,14.60,14.58,14.67,15.20,14.76,169.43,-1781.74,1069.82,164.86,-198.98,-174.77
27253.00,14.60,14.58,14.69,15.47,14.84,581.54,-2000.00,186.04,14.08,12.74,-189.95
27284.00,14.60,14.59,14.70,15.64,14.88,851.56,-1240.23,1066.41,127.34,-91.36,-79.02
27315.00,14.61,14.62,14.69,15.77,14.92,-127.44,-661.13,394.53,30.97,4.22,5.37
27346.00,14.63,14.65,14.68,15.90,14.96,-74.22,-840.33,538.57,60.06,-26.36,6.11
27377.00,14.66,14.67,14.67,15.96,14.99,-15.63,-708.01,748.05,24.68,-5.20,2.13
27408.00,14.69,14.68,14.67,15.97,15.00,-13.67,-797.85,625.49,6.61,1.15,1.39
27439.00,14.71,14.68,14.67,15.93,15.00,-30.27,-851.56,552.25,4.31,0.40,-2.71
27470.00,14.74,14.68,14.68,15.85,14.99,-20.51,-813.96,614.75,1.68,6.75,-1.64
27501.00,14.78,14.67,14.69,15.75,14.97,-32.71,-792.48,636.72,0.00,4.78,-3.31
27532.00,14.83,14.66,14.70,15.67,14.96,-29.79,-836.91,609.37,-3.05,-0.19,-4.91
27563.00,14.87,14.66,14.70,15.59,14.96,-39.55,-857.42,577.15,-0.64,0.35,-2.18
27593.00,14.93,14.67,14.71,15.51,14.95,-172.36,-1188.48,560.55,-27.93,5.75,-1.46
27624.00,14.98,14.68,14.71,15.41,14.95,-47.36,-822.27,575.68,-2.00,0.03,-2.09
27655.00,15.03,14.69,14.72,15.28,14.93,-36.62,-832.03,591.80,-3.63,-2.32,-0.26
27686.00,15.08,14.70,14.72,15.15,14.91,-34.18,-851.56,605.96,-2.89,-4.27,-2.71
27717.00,15.13,14.72,14.72,15.01,14.90,-32.71,-843.75,589.36,-8.02,-0.57,-5.83
27748.00,15.17,14.74,14.72,14.89,14.88,-54.20,-854.49,597.66,-9.53,2.79,-6.02
27779.00,15.22,14.76,14.72,14.79,14.87,-5.86,-839.84,595.70,-8.61,-1.40,-6.09
27810.00,15.27,14.78,14.72,14.69,14.86,-30.76,-849.12,603.52,-6.99,-1.34,-5.08
27841.00,15.31,14.80,14.72,14.60,14.86,-42.48,-866.21,592.29,-0.98,-5.94,-9.75
27872.00,15.33,14.82,14.71,14.56,14.86,2.93,-858.89,604.49,-12.32,-14.86,-9.97
27903.00,15.33,14.84,14.70,14.55,14.86,-37.60,-826.66,679.20,-27.88,-23.89,-12.27
27934.00,15.30,14.86,14.70,14.54,14.85,-22.95,-802.73,572.75,-24.35,-24.66,-21.89
27965.00,15.23,14.88,14.69,14.54,14.84,-76.66,-946.78,713.38,-75.34,-33.11,-47.71
27996.00,15.13,14.89,14.70,14.54,14.81,-125.98,-1070.80,792.48,-120.11,-33.03,-85.53
28027.00,15.01,14.85,14.70,14.54,14.77,-274.90,-1421.39,651.37,-132.13,-47.24,-169.51
28058.00,14.89,14.77,14.70,14.55,14.73,-243.16,-1415.53,520.02,-94.91,-64.85,-250.14
28089.00,14.82,14.69,14.69,14.54,14.69,137.70,-1827.15,600.10,-73.86,-51.79,-250.14
28119.00,14.72,14.64,14.68,14.54,14.64,192.38,-1849.61,402.83,-53.02,-55.62,-250.14
28151.00,14.64,14.59,14.66,14.53,14.61,-280.27,-1284.18,208.50,40.74,-42.55,-250.14
28181.00,14.61,14.58,14.65,14.57,14.60,-579.59,124.02,-133.30,134.40,-60.47,-250.14
28212.00,14.60,14.58,14.65,14.55,14.59,255.86,-777.34,-246.09,170.33,28.52,-10.01
28242.00,14.60,14.58,14.65,14.53,14.59,-224.61,-526.37,75.20,-6.73,104.85,181.39
28273.00,14.60,14.58,14.65,14.53,14.59,-356.45,-455.57,181.64,-14.42,79.50,197.31
28303.00,14.60,14.58,14.65,14.53,14.59,-18.07,-501.46,-26.37,60.30,60.63,196.02
28333.00,14.60,14.58,14.65,14.53,14.59,312.50,-760.74,291.99,46.87,77.33,213.88
28364.00,14.59,14.58,14.65,14.53,14.59,123.54,-958.01,326.66,24.81,104.45,205.92
28395.00,14.59,14.58,14.65,14.53,14.59,124.02,-1085.45,381.84,26.96,102.03,183.02
28426.00,14.59,14.58,14.65,14.53,14.59,210.45,-1193.36,487.79,9.43,93.90,182.23
28457.00,14.59,14.58,14.65,14.53,14.59,351.07,-1202.15,483.89,-21.18,69.53,201.92
28487.00,14.59,14.58,14.65,14.53,14.59,338.87,-1200.20,546.87,-61.70,57.18,192.60
28518.00,14.59,14.58,14.65,14.53,14.59,505.37,-1464.84,638.67,-68.16,45.18,173.06
28549.00,14.59,14.58,14.65,14.53,14.59,604.00,-1329.59,710.45,-54.40,68.92,147.89
28579.00,14.59,14.58,14.65,14.53,14.59,585.45,-1366.70,580.57,-28.25,87.64,136.93
28610.00,14.59,14.58,14.65,14.53,14.59,637.70,-1010.74,447.75,-41.26,92.70,100.99
28641.00,14.59,14.58,14.66,14.53,14.59,367.19,-1321.78,653.32,-131.35,111.76,32.82
28672.00,14.59,14.58,14.66,14.56,14.60,1219.24,-1496.58,929.20,-104.90,-7.71,-30.15
28703.00,14.60,14.57,14.66,14.70,14.63,1088.38,-670.41,440.43,37.82,-142.41,-140.53
28734.00,14.60,14.58,14.66,15.12,14.74,-1093.75,-1197.75,409.67,-38.38,-97.73,-127.72
28765.00,14.60,14.58,14.68,15.46,14.83,514.16,-1423.83,1393.55,86.45,-68.77,-177.66
28796.00,14.60,14.58,14.69,15.63,14.87,-2.93,-924.32,910.64,250.13,-113.66,-83.66
28827.00,14.61,14.60,14.69,15.75,14.91,-51.76,-1025.39,481.45,61.68,-23.19,-10.73
28858.00,14.66,14.61,14.68,15.85,14.95,-51.76,-899.41,546.39,13.05,3.10,-1.27
28889.00,14.70,14.61,14.69,15.96,14.99,21.97,-833.01,614.26,15.75,-0.01,-2.18
28920.00,14.73,14.61,14.69,16.02,15.01,-17.58,-826.17,613.77,8.13,-1.31,-0.14
28950.00,14.75,14.62,14.69,16.01,15.02,-38.57,-812.50,616.70,-2.37,-2.05,1.82
28981.00,14.78,14.62,14.69,15.99,15.02,-32.23,-824.22,621.09,3.53,2.26,-0.07
29012.00,14.80,14.62,14.69,15.90,15.00,-25.39,-805.66,631.84,-4.15,2.18,0.26
29043.00,14.82,14.63,14.69,15.77,14.98,-22.95,-820.31,610.84,-7.25,-1.90,-3.20
29074.00,14.86,14.64,14.70,15.67,14.97,-22.95,-838.87,599.12,-0.24,-0.72,-3.34
29105.00,14.90,14.65,14.70,15.58,14.96,-53.71,-866.21,638.18,-9.25,2.37,0.56
29136.00,14.95,14.66,14.70,15.48,14.95,-9.28,-793.95,654.79,3.34,-5.82,-2.57
29167.00,15.00,14.67,14.71,15.37,14.94,-5.86,-847.66,620.12,6.05,-1.82,0.33
29198.00,15.07,14.69,14.71,15.25,14.93,8.30,-842.29,610.84,-1.30,-3.61,0.80
29229.00,15.13,14.70,14.71,15.11,14.91,-36.13,-833.50,608.40,-2.31,-2.22,-0.38
29260.00,15.18,14.72,14.71,14.96,14.90,-46.39,-845.21,619.14,-6.60,-2.07,-3.91
29291.00,15.24,14.74,14.71,14.83,14.88,-18.55,-820.80,602.05,-7.69,-5.02,-7.34
29322.00,15.30,14.76,14.71,14.70,14.87,0.49,-833.50,591.80,-6.93,-1.99,-10.76
29353.00,15.36,14.79,14.71,14.61,14.87,-3.42,-851.56,562.01,-7.84,-3.37,-11.92
29384.00,15.40,14.81,14.70,14.56,14.87,-31.74,-841.80,558.59,-9.08,-12.79,-7.69
29414.00,15.42,14.83,14.70,14.55,14.88,-20.02,-882.81,675.78,-23.48,-15.17,-12.30
29445.00,15.42,14.85,14.69,14.54,14.88,17.58,-876.46,751.46,-26.87,-23.56,-23.22
29476.00,15.37,14.87,14.69,14.54,14.87,-69.34,-894.04,637.21,-58.82,-29.98,-36.50
29507.00,15.29,14.88,14.69,14.54,14.85,-150.39,-1116.21,668.46,-94.13,-38.16,-76.92
29538.00,15.18,14.87,14.70,14.54,14.82,-133.79,-1276.86,656.74,-113.54,-51.82,-137.88
29569.00,15.06,14.82,14.70,14.54,14.78,-175.29,-1459.96,595.21,-77.80,-66.23,-223.11
29600.00,14.96,14.74,14.69,14.54,14.73,-63.96,-1567.38,539.55,-95.60,-49.00,-250.14
29631.00,14.85,14.66,14.68,14.54,14.68,324.22,-1329.59,387.21,-105.44,-53.01,-250.14
29662.00,14.71,14.61,14.66,14.53,14.63,405.27,-1718.75,377.44,-86.08,-28.82,-250.14
29693.00,14.62,14.58,14.65,14.53,14.60,-605.96,-1005.86,402.83,29.13,-0.56,-250.14
29723.00,14.61,14.58,14.65,14.56,14.60,-771.48,-2000.00,437.01,-55.08,-18.90,-244.31
29754.00,14.60,14.57,14.65,14.54,14.59,-24.41,-645.51,185.55,116.63,-28.67,-103.94
29784.00,14.60,14.57,14.65,14.53,14.59,-363.28,-202.64,-18.07,-92.69,137.51,212.08
29814.00,14.60,14.57,14.64,14.53,14.59,-702.15,-997.07,185.06,-28.07,84.11,241.66
29845.00,14.60,14.57,14.65,14.53,14.59,64.94,-790.53,109.86,76.67,28.09,227.91
29875.00,14.60,14.57,14.64,14.53,14.59,172.85,-671.87,308.11,38.03,42.54,228.16
29906.00,14.60,14.58,14.65,14.53,14.59,165.04,-960.45,390.14,-11.66,80.08,229.65
29937.00,14.60,14.58,14.65,14.53,14.59,176.27,-1261.72,416.99,2.24,94.16,234.98
29967.00,14.60,14.58,14.65,14.53,14.59,330.57,-1406.74,410.64,-2.47,72.95,249.03
29998.00,14.60,14.58,14.65,14.53,14.59,511.23,-1378.42,383.79,-24.20,40.79,250.13
0.00,14.60,14.58,14.65,14.53,14.59,575.20,-1289.06,461.43,-72.45,17.67,211.42
31.00,14.60,14.58,14.65,14.52,14.59,576.66,-1535.64,778.81,-69.24,25.39,166.95
62.00,14.60,14.58,14.65,14.53,14.59,567.87,-1365.72,655.76,1.53,63.50,138.35
92.00,14.60,14.58,14.65,14.52,14.59,541.99,-1206.05,459.47,25.55,91.04,103.04
123.00,14.59,14.58,14.65,14.52,14.59,666.99,-944.82,306.64,-1.74,91.49,67.76
154.00,14.59,14.58,14.65,14.53,14.59,824.71,-900.88,535.16,-63.19,86.08,31.23
185.00,14.59,14.57,14.65,14.57,14.60,435.55,-1064.45,553.71,60.14,-100.98,-198.69
216.00,14.60,14.57,14.65,14.80,14.66,794.43,-937.50,994.63,84.21,-197.37,-154.26
247.00,14.59,14.58,14.65,15.12,14.74,121.09,-1985.35,1483.89,-151.48,-250.14,-108.68
278.00,14.60,14.58,14.67,15.41,14.82,127.93,-1463.87,629.88,226.10,-97.56,-138.94
309.00,14.60,14.60,14.68,15.54,14.86,178.22,-1605.96,495.61,-25.54,44.07,-22.04
340.00,14.66,14.61,14.68,15.65,14.90,67.38,-667.48,848.14,49.16,-31.37,1.58
371.00,14.74,14.63,14.68,15.72,14.94,55.66,-738.77,808.11,18.02,-32.05,6.34
402.00,14.81,14.64,14.68,15.72,14.96,-41.99,-818.36,680.66,13.80,-2.38,0.15
433.00,14.86,14.65,14.68,15.70,14.97,-32.71,-793.95,649.90,1.19,0.15,-2.04
463.00,14.88,14.66,14.68,15.65,14.97,-31.25,-820.31,610.35,1.72,-1.85,-0.01
494.00,14.91,14.67,14.68,15.57,14.96,-14.65,-809.57,656.25,-1.21,-1.53,-0.53
525.00,14.93,14.67,14.68,15.49,14.94,-21.97,-802.73,634.28,-8.11,5.50,-1.71
556.00,14.93,14.68,14.68,15.43,14.93,-32.23,-819.34,608.89,-2.36,0.11,-1.38
587.00,14.96,14.69,14.68,15.38,14.93,-29.30,-801.76,640.14,-0.58,-1.11,2.69
618.00,14.99,14.70,14.68,15.33,14.92,-15.14,-810.06,621.09,-3.72,1.40,-2.20
649.00,15.02,14.71,14.68,15.27,14.92,-27.34,-822.75,628.91,0.52,-2.95,-2.14
680.00,15.06,14.73,14.68,15.20,14.92,-5.86,-805.66,618.65,0.84,-3.87,-3.63
713.00,15.11,14.74,14.68,15.11,14.91,-23.44,-812.50,602.54,-0.05,-1.59,-7.05
744.00,15.15,14.76,14.68,15.00,14.90,-17.58,-829.10,625.00,-4.13,-5.64,-4.08
774.00,15.20,14.77,14.68,14.91,14.89,-11.23,-837.89,651.86,0.45,0.76,-9.46
805.00,15.25,14.79,14.68,14.83,14.89,-17.09,-832.52,622.07,-0.40,2.43,-9.18
836.00,15.30,14.80,14.69,14.75,14.88,-1.95,-818.36,623.05,2.68,0.43,-12.76
867.00,15.34,14.81,14.69,14.67,14.88,-17.58,-815.92,626.95,4.18,-4.05,-12.26
898.00,15.39,14.82,14.69,14.60,14.88,14.65,-793.46,618.16,6.26,-5.10,-11.11
929.00,15.45,14.83,14.69,14.56,14.88,6.35,-809.57,654.30,0.59,-15.37,-9.88
960.00,15.47,14.84,14.69,14.54,14.89,17.09,-784.67,579.10,-29.13,-24.81,-7.63
991.00,15.42,14.85,14.69,14.54,14.87,-74.22,-1212.89,798.83,-42.88,-23.89,-24.90
1022.00,15.33,14.84,14.70,14.54,14.85,-97.17,-1118.16,825.68,-46.51,-31.67,-59.66
1053.00,15.19,14.82,14.70,14.54,14.81,-100.10,-1190.43,714.84,-38.54,-56.22,-98.08
1084.00,15.01,14.79,14.69,14.54,14.76,-56.15,-1234.38,665.53,-51.10,-61.08,-146.94
1115.00,14.87,14.75,14.69,14.53,14.71,95.70,-1170.41,450.68,-15.56,-51.02,-198.03
1146.00,14.79,14.69,14.68,14.54,14.67,301.76,-1302.73,630.37,-20.04,-38.08,-218.79
1177.00,14.73,14.64,14.66,14.53,14.64,310.55,-935.55,454.59,-69.70,-14.54,-245.44
1208.00,14.67,14.61,14.65,14.53,14.62,257.81,-1073.73,611.33,-61.73,13.26,-245.46
1239.00,14.62,14.58,14.65,14.54,14.60,72.75,-1090.82,525.88,1.80,12.93,-240.74
1269.00,14.61,14.58,14.64,14.55,14.59,-208.98,-473.14,420.90,-54.01,67.15,-102.23
1300.00,14.60,14.58,14.64,14.54,14.59,-365.72,-226.07,569.34,-19.63,104.54,-27.16
1330.00,14.60,14.58,14.64,14.53,14.59,-484.37,-525.88,224.61,-62.80,123.98,146.47
1361.00,14.60,14.58,14.64,14.53,14.59,-57.13,-269.53,368.16,-14.06,94.24,172.66
1391.00,14.60,14.58,14.64,14.53,14.59,220.70,-564.45,338.87,-5.73,79.60,193.80
1421.00,14.60,14.58,14.64,14.53,14.59,367.19,-646.48,558.59,-34.95,55.92,233.47
1452.00,14.60,14.58,14.64,14.53,14.59,524.90,-871.09,744.14,-50.64,5.86,242.77
1483.00,14.60,14.58,14.65,14.53,14.59,824.71,-915.04,811.52,-38.41,-20.32,212.64
1514.00,14.60,14.58,14.65,14.53,14.59,760.25,-1250.98,1016.11,7.72,-17.28,147.87
1544.00,14.60,14.58,14.65,14.53,14.59,1055.66,-1124.02,652.83,50.96,-21.31,121.77
1575.00,14.60,14.58,14.65,14.53,14.59,875.98,-1083.50,568.85,16.24,-13.02,54.63
1605.00,14.60,14.58,14.65,14.53,14.59,537.11,-745.12,461.91,16.18,-8.04,33.63
1636.00,14.60,14.58,14.65,14.53,14.59,212.40,-777.83,502.44,-12.28,25.11,22.74
1667.00,14.60,14.58,14.65,14.53,14.59,228.52,-802.25,625.98,-20.63,30.29,3.46
1698.00,14.60,14.58,14.66,14.54,14.59,159.67,-831.05,614.75,-24.57,10.78,-1.09
1728.00,14.59,14.59,14.65,14.55,14.60,508.79,-396.48,795.41,35.05,17.20,-19.62
1759.00,14.60,14.59,14.65,14.57,14.60,-78.61,-573.24,627.44,-63.93,-1.37,8.36
1790.00,14.62,14.59,14.66,14.63,14.62,-166.50,-1773.93,279.79,60.48,-30.10,3.42
1821.00,14.63,14.59,14.66,14.70,14.65,-195.31,-952.64,159.18,45.89,-1.18,0.30
1852.00,14.65,14.59,14.67,14.77,14.67,-63.48,-859.37,550.78,24.72,-14.98,5.44
1883.00,14.67,14.60,14.66,14.80,14.68,-72.27,-844.24,570.80,9.21,-7.77,2.35
1914.00,14.69,14.60,14.67,14.85,14.70,1.95,-821.29,604.98,13.66,-5.07,2.64
1945.00,14.71,14.60,14.67,14.88,14.71,-60.06,-831.54,597.17,8.56,-3.25,-0.31
1976.00,14.72,14.60,14.67,14.90,14.72,-25.39,-827.15,599.61,0.19,-2.30,0.30
2007.00,14.73,14.60,14.67,14.94,14.74,-41.99,-853.03,573.24,5.81,-5.19,-1.49
2038.00,14.75,14.60,14.67,14.99,14.75,-32.23,-827.64,593.26,9.23,-3.29,2.21
2069.00,14.77,14.61,14.67,15.00,14.76,-50.29,-822.27,613.28,11.74,-4.85,0.64
2100.00,14.79,14.61,14.67,15.04,14.78,-12.70,-813.48,629.88,4.89,-2.98,1.73
2131.00,14.81,14.61,14.67,15.08,14.79,-62.50,-845.21,586.91,7.14,-5.16,-1.02
2162.00,14.82,14.61,14.67,15.08,14.80,-19.04,-773.93,663.09,4.68,-4.17,-3.88
2193.00,14.83,14.62,14.67,15.11,14.81,-44.92,-816.41,612.79,-1.99,3.88,0.76
2223.00,14.82,14.62,14.67,15.11,14.81,-47.85,-812.01,605.47,-8.27,6.83,-2.47
2255.00,14.82,14.62,14.68,15.12,14.81,-39.06,-829.10,600.10,-7.20,2.90,-2.92
2285.00,14.82,14.62,14.68,15.12,14.81,-56.15,-840.82,585.94,0.86,-0.11,-1.40
2316.00,14.84,14.62,14.68,15.10,14.81,-42.48,-828.12,613.28,2.76,-3.04,-1.34
2347.00,14.84,14.62,14.68,15.09,14.81,-18.55,-814.45,633.79,-2.10,-2.15,1.61
2378.00,14.84,14.62,14.67,15.08,14.81,-36.13,-825.68,604.98,5.42,-4.94,0.85
2409.00,14.86,14.62,14.68,15.08,14.81,-34.67,-799.80,610.84,9.54,-6.63,2.51
2440.00,14.86,14.62,14.67,15.06,14.80,-34.18,-801.76,655.76,-4.66,-0.85,2.03
2471.00,14.86,14.62,14.67,15.07,14.81,-23.93,-813.96,614.75,-1.65,-0.81,-0.56
2502.00,14.86,14.62,14.67,15.12,14.82,-30.76,-826.17,612.79,1.33,0.64,-0.37
2533.00,14.86,14.62,14.67,15.15,14.82,-26.37,-819.82,618.16,-1.51,1.24,-1.84
2564.00,14.85,14.62,14.68,15.17,14.83,-38.57,-797.36,641.60,-7.33,7.46,-2.45
2594.00,14.85,14.62,14.68,15.18,14.83,-29.30,-843.75,602.05,-7.66,5.27,-1.08
2626.00,14.85,14.62,14.68,15.17,14.83,-33.69,-829.10,596.19,-2.95,6.37,-0.66
2656.00,14.84,14.62,14.68,15.19,14.83,-44.43,-835.45,601.07,0.25,1.02,-0.07
2687.00,14.84,14.62,14.68,15.21,14.83,-41.50,-813.48,608.89,-1.08,-0.36,-1.09
2718.00,14.83,14.61,14.68,15.23,14.84,-39.55,-814.94,642.58,-2.50,0.14,0.37
2749.00,14.81,14.61,14.68,15.25,14.84,-41.99,-820.31,614.75,-3.83,5.69,-2.61
2780.00,14.80,14.61,14.68,15.27,14.84,-36.13,-814.45,619.63,-4.60,5.96,-1.07
2811.00,14.79,14.61,14.68,15.28,14.84,-39.06,-807.62,617.68,-4.11,3.51,-0.97
2842.00,14.79,14.61,14.68,15.29,14.84,-37.60,-816.89,595.70,-3.26,-0.77,-2.11
2873.00,14.79,14.61,14.68,15.30,14.84,-56.64,-822.75,613.77,0.64,3.13,-3.32
2903.00,14.78,14.61,14.68,15.28,14.84,-29.79,-816.41,664.06,0.18,4.79,-2.62
2934.00,14.77,14.61,14.69,15.27,14.84,-41.02,-845.21,587.40,-5.12,4.27,-3.25
2964.00,14.77,14.61,14.69,15.27,14.83,-45.41,-823.24,609.37,-2.02,2.75,-2.64
2995.00,14.76,14.61,14.69,15.25,14.83,-43.46,-831.54,587.89,-2.23,3.33,-2.78
3025.00,14.76,14.61,14.69,15.24,14.83,-52.73,-833.98,576.17,-0.53,0.34,0.38
3055.00,14.76,14.61,14.69,15.23,14.82,-50.78,-812.99,606.45,5.97,-0.85,0.37
3086.00,14.77,14.61,14.69,15.23,14.82,-41.02,-834.96,595.70,3.82,-0.76,0.21
3117.00,14.77,14.61,14.69,15.22,14.82,-37.11,-830.57,612.79,3.46,0.21,0.32
3148.00,14.77,14.61,14.69,15.21,14.82,-39.55,-833.98,610.84,1.49,-1.59,2.16
3178.00,14.77,14.61,14.69,15.21,14.82,-38.09,-831.05,603.52,-1.04,-3.21,1.11
3209.00,14.77,14.61,14.69,15.21,14.82,-33.69,-828.12,597.66,-0.23,-2.19,-2.16
3240.00,14.78,14.61,14.69,15.19,14.82,-46.88,-824.71,612.30,0.10,-0.80,1.47
3270.00,14.78,14.61,14.69,15.18,14.82,-38.09,-839.84,609.37,-1.11,-1.40,-1.33
3301.00,14.79,14.61,14.69,15.19,14.82,-46.88,-833.98,601.56,2.85,0.24,0.18
3332.00,14.79,14.61,14.69,15.20,14.82,-35.16,-833.01,595.21,2.53,-0.40,0.65
3363.00,14.80,14.61,14.69,15.21,14.83,-47.36,-835.45,598.63,1.16,0.80,-1.89
3394.00,14.80,14.61,14.69,15.23,14.83,-40.53,-826.17,620.12,3.18,-0.36,0.66
3425.00,14.80,14.61,14.69,15.24,14.84,-37.60,-822.75,611.82,1.48,1.90,0.23
3455.00,14.80,14.61,14.69,15.26,14.84,-36.62,-807.13,612.30,2.31,-0.82,-1.51
3487.00,14.80,14.61,14.69,15.26,14.84,-39.55,-824.71,616.70,-2.57,0.42,1.64
3517.00,14.80,14.62,14.69,15.25,14.84,-41.50,-822.75,610.84,0.82,1.56,-1.05
3548.00,14.80,14.62,14.69,15.25,14.84,-36.62,-828.61,591.80,-0.98,2.86,-0.17
3579.00,14.80,14.61,14.69,15.24,14.84,-39.06,-833.98,600.10,0.88,-0.27,0.09
3610.00,14.80,14.61,14.69,15.25,14.84,-32.71,-837.89,606.45,1.09,-1.42,-2.22
3641.00,14.80,14.61,14.69,15.26,14.84,-38.09,-813.96,606.45,-0.10,3.52,0.12
3672.00,14.80,14.61,14.69,15.25,14.84,-25.88,-812.01,532.71,-1.08,7.38,0.76
3703.00,14.79,14.61,14.69,15.25,14.84,-33.69,-879.39,641.60,0.11,-0.90,-0.19
3734.00,14.78,14.61,14.68,15.25,14.83,-36.62,-807.62,615.72,3.38,-1.53,0.86
3765.00,14.78,14.61,14.68,15.24,14.83,-43.95,-843.75,596.19,-2.27,4.17,0.34
3796.00,14.78,14.61,14.68,15.23,14.82,-48.83,-827.64,605.96,-1.84,-0.28,-0.60
3826.00,14.77,14.61,14.68,15.21,14.82,-36.62,-831.54,613.28,-2.95,2.47,-1.69
3858.00,14.77,14.61,14.68,15.19,14.81,-39.55,-838.38,606.45,-2.19,-0.96,0.64
3888.00,14.77,14.61,14.68,15.19,14.81,-41.50,-824.22,623.05,0.67,-2.40,-1.42
3919.00,14.76,14.61,14.68,15.19,14.81,-41.99,-823.73,598.14,1.34,0.22,-1.37
3950.00,14.76,14.61,14.68,15.19,14.81,-50.29,-826.66,615.72,-1.82,0.94,-0.48
3981.00,14.76,14.61,14.68,15.19,14.81,-58.59,-835.94,601.07,0.63,-4.20,0.78
4012.00,14.75,14.61,14.68,15.18,14.81,-52.73,-778.81,574.71,-0.27,4.65,-0.44
4043.00,14.75,14.61,14.68,15.18,14.80,-54.69,-834.47,639.16,-4.62,1.91,-1.52
