currTime,s1,s2,s3,s4,s,AccX,AccY,AccZ,GyroX,GyroY,GyroZ,GRF,Frame,SubFrame,Weight,Fx,Fy,Fz,Mx,My,Mz,Cx,Cy,Cz
11251,789.41,769.25,756.2,759.58,768.61,122.07,-936.52,374.02,27.77,1.9,-20.16,-299.07,2251,0,82,28.4685,-14.7311,-162.116,37815.6,-29941.3,9512.16,-184.631,-233.118,0
11289,810.41,775.99,756.76,761.42,776.14,-49.32,-890.62,541.99,34.47,6.48,-4.48,-438.36,2259,0,82,14.8515,6.46057,-269.77,59843.7,-50501.2,2327.86,-187.271,-221.912,0
11325,823.11,781.08,757.1,762.17,780.87,-106.93,-918.95,632.81,2.18,9.11,-4.79,-525.2,2266,0,82,52.0884,15.6662,-393.595,84663,-70218.1,7752.95,-178.397,-215.091,0
11360,822.5,785.36,757.54,762.5,781.97,-60.55,-915.53,565.43,-23.37,6.63,-9.48,-551.5,2273,0,82,74.0741,13.7288,-569.95,122231,-100998,11774.7,-177.205,-214.456,0
11396,818.97,789.26,757.99,763.3,782.38,-63.96,-864.26,506.35,-15.5,9.19,-7.65,-571.16,2280,0,82,83.4323,9.80427,-638.262,135030,-111017,13152.9,-173.937,-211.558,0
11431,816,792.09,758.28,764.27,782.66,-116.21,-846.68,508.3,-11.56,1.94,-8.55,-590.7,2287,0,82,87.5262,8.62718,-619.606,128374,-104639,13101.7,-168.88,-207.185,0
11466,812.37,793.39,758.66,765.61,782.51,-42.97,-893.55,481.93,-7.66,-2.6,-4.23,-599.01,2294,0,82,87.5743,13.4344,-613.5,124294,-101314,11774,-165.142,-202.598,0
11504,812.31,794.86,759.18,767.05,783.35,-18.55,-920.9,502.44,2.36,-3.87,1.5,-618.79,2302,0,82,80.5691,16.2534,-596.512,117376,-96361.7,9706.32,-161.542,-196.77,0
11540,808.16,793.23,758.71,765.82,781.48,-14.65,-845.21,572.27,-22.05,-6.06,-2.16,-585.24,2309,0,82,75.1351,32.2671,-596.305,114625,-95559.8,6493.39,-160.253,-192.226,0
11575,806.67,792.24,758.53,765.65,780.77,-21.48,-882.81,493.65,-2.87,1.19,4.07,-574.02,2316,0,82,69.2342,44.2538,-627.035,119291,-100819,3900.37,-160.787,-190.245,0
11611,808.84,790.87,758.24,764.69,780.66,-27.34,-929.2,498.54,-15.15,-2.67,1.35,-563.46,2323,0,82,60.0436,32.1473,-527.31,100206,-83379,5355.73,-158.121,-190.032,0
11646,805.94,789.17,757.97,764.49,779.39,-49.8,-902.83,433.59,-17.37,-7.5,3.18,-543.89,2330,0,82,52.6545,46.5137,-552.883,106634,-89320.4,1770.95,-161.553,-192.868,0
11681,809.08,788.66,757.93,764.44,780.03,-68.85,-846.68,553.71,-9.97,-3.12,2.47,-550.63,2337,0,82,49.1604,44.0062,-524.746,102811,-85394.6,2032.34,-162.739,-195.931,0
11719,811.15,787.57,757.54,763.14,779.85,-4.39,-873.54,485.35,-13.27,-5.75,2.55,-539.7,2345,0,82,45.4613,52.5572,-499.81,98324.6,-81459.7,455.637,-162.98,-196.724,0
11755,812.03,786.41,757.17,762.18,779.45,-27.83,-926.76,467.29,-16.11,-3.48,5.66,-528.54,2352,0,82,45.4119,69.3619,-526.635,104450,-87009.6,-2077.52,-165.218,-198.335,0
11791,814.35,784.49,757,761.16,779.25,-56.64,-921.87,496.58,-15.44,0.92,4.81,-510.17,2359,0,82,47.1765,69.4807,-500.83,101388,-83021.2,-1233.37,-165.767,-202.44,0
11826,815.13,780.43,756.56,759.17,777.82,15.63,-986.33,449.71,-18.17,6.56,5.41,-461.86,2366,0,82,49.3062,80.4541,-488.74,100322,-81374.4,-2544.09,-166.499,-205.267,0
11862,818.29,778.11,756.4,758.55,777.84,-64.45,-871.09,438.96,-17.62,7.54,1.09,-449.18,2373,0,82,48.9533,86.1079,-475.658,99515.1,-80533,-3453.55,-169.311,-209.22,0
11899,818.79,775.97,756.31,757.98,777.26,-44.43,-983.4,389.65,-21.73,0.77,7.27,-427.54,2381,0,82,47.3255,84.7216,-452.436,97673.6,-79037.1,-4547.51,-174.692,-215.883,0
11935,817.96,772.45,756.11,757.57,776.02,-55.18,-917.48,443.36,-20.53,-2.7,9.5,-395.37,2388,0,82,47.6843,92.3455,-452.757,99031.8,-80244.4,-6025.38,-177.235,-218.732,0
11970,814.52,769.83,755.93,757.23,774.38,-49.8,-924.32,485.84,-15.79,-1.16,5.18,-361.91,2395,0,82,52.3301,85.4556,-414.033,91736.5,-73273.9,-3489.38,-176.977,-221.569,0
12006,804.07,767.08,755.79,757,770.98,-37.11,-916.02,397.46,-3.45,4,3.98,-304.21,2402,0,82,47.8939,77.6773,-372.901,84380.9,-67212,-2810.35,-180.241,-226.282,0
12041,792.59,765.14,755.77,756.84,767.59,-63.48,-915.04,410.64,-9.9,-14.98,5.29,-247.26,2409,0,82,39.3373,57.8144,-294.96,67222.2,-53014.2,-611.571,-179.727,-227.897,0
12077,782.78,764.46,755.75,756.65,764.91,-41.5,-933.59,413.57,-1.26,2.73,-9.14,-206,2416,0,82,33.9404,32.509,-208.73,48567.3,-37542.1,2922.37,-179.874,-232.707,0
12115,774.87,763.71,755.69,756.43,762.68,22.95,-929.2,458.98,-12.81,11.61,2.15,-171.05,2424,0,82,27.1103,20.6374,-140.979,32742.5,-24843.3,3911.9,-176.21,-232.251,0
12150,770.64,763.12,755.63,756.21,761.4,-109.86,-963.87,348.14,-16.27,18.39,16.06,-150.24,2431,0,82,20.1463,11.9531,-102.861,23337.7,-17380.9,3401.57,-168.968,-226.884,0
12185,768.44,762.66,755.65,756.17,760.73,-187.99,-949.22,336.43,-7.27,7.4,-6.36,-137.59,2438,0,82,13.3212,4.55519,-76.7405,17791.5,-13065.4,2812.24,-170.247,-231.835,0
12220,766.54,762.43,755.57,756.14,760.17,-41.5,-949.22,375.98,-8.7,-1.12,-6.75,-130.96,2445,0,82,8.0478,-3.27878,-67.6484,15650.6,-11401,2723.88,-168.534,-231.353,0
12255,764.89,762.05,755.56,756.06,759.64,-55.18,-948.73,392.09,-12.94,8.56,5.35,-121.35,2452,0,82,6.79985,-4.22705,-60.8482,14080.6,-10240.8,2483.97,-168.309,-231.409,0
12291,762.93,761.78,755.56,756,759.07,-93.75,-947.27,348.63,-10.95,3.82,4.02,-111.48,2459,0,82,5.06991,-2.03651,-53.0359,12058.3,-8754.6,1798.22,-165.072,-227.358,0
12329,760.67,761.51,755.5,755.94,758.41,-65.92,-970.21,372.56,-22.89,4.02,8.04,-102.15,2467,0,82,3.45035,-1.36709,-42.1759,9766.27,-7085.12,1360.57,-167.984,-231.55,0
12364,757.38,761.15,755.52,755.77,757.45,-25.88,-958.98,412.11,-39.08,10.79,22.27,-84.97,2474,0,82,2.04085,-0.340782,-35.7206,7997.92,-5740.64,800.813,-160.698,-223.892,0
12578,761.86,761.42,755.56,755.84,758.67,82.03,-894.53,683.59,-5.31,-0.98,-26.54,-102.63,2517,0,82,10.9961,-5.96403,-32.5611,7689.16,-4741.23,3591.56,-145.595,-236.12,0
12613,760.53,761.61,755.61,755.86,758.4,-6.35,-1087.89,218.26,-11.6,-10.61,-0.98,-98.53,2524,0,82,-8.07069,-1.21395,-68.7728,16081.8,-12777.8,-1785.8,-185.78,-233.812,0
12649,760.61,761.91,755.59,755.95,758.51,-80.08,-954.59,358.89,6.59,-5.75,-4.61,-103.11,2531,0,82,6.94106,-2.25952,-68.6117,15950.2,-11746.1,1748.82,-171.209,-232.483,0
12684,760.42,761.71,755.64,755.89,758.42,-85.94,-952.15,369.14,-11.15,6.02,-1.57,-98.72,2538,0,82,9.65182,-2.55083,-65.9476,14400.1,-10481,2432.13,-158.923,-218.356,0
12723,757.4,761.05,755.44,755.79,757.42,-95.21,-912.6,382.32,-55.27,10.58,0.2,-86.68,2546,0,82,7.20729,-0.769065,-68.5493,15171.2,-11313.7,1526.81,-165.049,-221.321,0
12758,754.98,760.38,755.46,755.59,756.6,-235.35,-834.47,654.79,-77.13,39.31,39.72,-69.52,2553,0,82,6.29762,-0.425691,-50.966,10985.1,-7958.2,1540.89,-156.074,-215.454,0
15025,755.56,760.46,755.37,755.7,756.77,-319.82,-903.32,294.43,15.82,-1.64,-11.48,-75.89,3006,0,82,-1.24674,-0.0733281,-21.0302,3559.27,-2340.72,-49.5809,-111.306,-169.253,0
15061,756.28,760.42,755.44,755.74,756.97,-305.18,-936.04,254.88,9.86,-3.47,-9.57,-76.9,3013,0,82,-1.01807,-0.249029,-22.7445,4104.66,-2748.46,-37.8491,-120.844,-180.464,0
15096,756.87,760.49,755.4,755.78,757.14,-289.55,-975.59,266.6,7.95,-3.82,-10.07,-81.04,3020,0,82,-0.435151,0.19118,-27.679,4991.1,-3327.68,89.3457,-120.235,-180.321,0
15132,757.11,760.57,755.42,755.76,757.22,-295.9,-925.29,298.34,5.87,-6.95,-6.05,-81.77,3027,0,82,0.393054,0.185448,-31.8447,5888.41,-3955.43,182.95,-124.261,-184.982,0
15168,757.4,760.57,755.35,755.88,757.3,-289.06,-920.41,291.02,4.27,-3.23,-8.15,-86.35,3035,0,82,-0.13374,-0.15685,-35.299,6333.42,-4360.92,83.754,-123.551,-179.435,0
15210,757.91,760.65,755.4,755.87,757.46,-272.95,-933.59,289.06,1.14,-0.85,-14.17,-87.37,3043,0,82,-0.34643,-0.614822,-36.7105,6760.88,-4595.83,28.6372,-125.212,-184.182,0
15246,758.45,760.83,755.41,755.84,757.63,-276.86,-938.48,278.32,2.47,0.18,-9.11,-89.93,3050,0,82,0.0318583,-0.728704,-40.3993,7268.99,-4997.96,107.13,-123.714,-179.928,0
15281,758.96,760.76,755.42,755.9,757.76,-301.27,-928.22,260.74,4.94,-5.82,-14.59,-91.67,3057,0,82,0.366764,-0.485358,-42.5328,7894.8,-5413.87,99.7144,-127.333,-185.703,0
15317,759.77,760.93,755.42,755.94,758.01,-269.53,-956.54,287.11,6.63,-8.63,-15.85,-96.35,3064,0,82,0.241203,-1.13761,-46.8332,8487.79,-5862.69,192.694,-125.179,-181.235,0
15352,760.83,760.99,755.47,755.9,758.3,-253.42,-923.34,314.45,5.93,-7.82,-16.16,-98.88,3071,0,82,0.0207739,-1.46297,-51.9324,9314.12,-6525.6,321.817,-125.654,-179.35,0
15392,761.61,761,755.45,756.02,758.52,-219.73,-929.2,327.15,1.63,-8.6,-16.48,-103.89,3079,0,82,-0.0472972,-1.03064,-57.3357,10541.1,-7365.9,53.2155,-128.505,-183.895,0
15428,762.28,761.16,755.47,755.99,758.72,-216.8,-977.54,303.22,2.67,-5.77,-16.29,-106.42,3087,0,82,-0.883649,-0.701653,-63.4696,11497.1,-8260.29,-6.29103,-130.147,-181.146,0
15464,762.58,761.09,755.57,756,758.81,-211.43,-961.43,306.15,1.26,-3.95,-12.67,-104.47,3094,0,82,-0.491433,-0.14345,-67.2565,12153.9,-8824.4,60.1167,-131.205,-180.711,0
15500,763.06,761.08,755.48,755.97,758.9,-197.27,-950.2,324.71,2.47,-3.25,-7.96,-107.73,3101,0,82,-0.0532229,0.35907,-70.8326,12462,-9193.09,-104.157,-129.788,-175.938,0
15537,763.29,761.08,755.54,755.98,758.97,-212.4,-953.61,292.97,-0.83,0.51,-7.05,-107.46,3108,0,82,-0.41816,0.546858,-71.9479,12737.8,-9518.23,-153.636,-132.293,-177.041,0
15573,763.41,761.05,755.44,755.99,758.97,-187.5,-966.8,306.15,-0.58,-2.53,-5.64,-110.26,3116,0,82,-0.197965,1.04261,-75.4896,13038.9,-9895.64,-298.471,-131.087,-172.726,0
15612,763.45,761.07,755.41,755.94,758.97,-203.12,-940.43,320.31,1.02,-1.54,-6.51,-110.59,3123,0,82,0.282411,1.04303,-74.6538,13038.2,-9978.87,-278.471,-133.677,-174.656,0
15648,763.46,761,755.47,755.88,758.95,-208.01,-941.89,291.5,-0.51,-1.01,-5.85,-107.47,3131,0,82,0.798334,1.04507,-76.6606,13018.3,-10083.4,-240.469,-131.533,-169.818,0
15684,763.35,760.87,755.45,755.97,758.91,-225.59,-917.97,297.36,1.4,-1.58,-13.92,-107.89,3138,0,82,1.49612,0.927005,-74.6913,12974.7,-9943.27,-109.206,-133.126,-173.714,0
15719,763.06,760.66,755.49,755.89,758.78,-211.91,-900.88,300.29,2.82,-9.33,-30.63,-103.02,3145,0,82,1.67687,0.883973,-74.9382,12721.3,-9870.45,-1.37338,-131.715,-169.758,0
15755,763.72,760.72,755.5,755.87,758.95,-84.96,-1033.69,368.65,-2.64,-6.56,-25.63,-105.23,3152,0,82,1.81769,0.490573,-73.053,12106.3,-9580.31,123.741,-131.145,-165.721,0
15791,763.56,760.69,755.48,755.84,758.89,-134.28,-1013.67,298.83,-1.15,3.05,-5.44,-104.68,3159,0,82,1.31172,1.49255,-73.9865,11951.6,-9778.15,110.589,-132.172,-161.562,0
15830,762.88,760.52,755.45,755.79,758.66,-151.37,-925.29,329.1,3.36,-1.56,-6.69,-100.86,3167,0,82,1.93609,3.76306,-80.0231,12576.8,-10574.1,-263.569,-132.138,-157.163,0
15866,762.6,760.38,755.52,755.82,758.58,-177.73,-922.36,299.8,-0.48,-0.47,-17.56,-97.4,3174,0,82,1.87897,2.17888,-71.3917,11290.4,-9459.21,55.4668,-132.496,-158.149,0
15902,762.11,760.24,755.49,755.72,758.39,-170.41,-929.2,292.48,7.77,-10.52,-32.5,-93.87,3181,0,82,1.51146,2.03747,-69.5491,10681,-9040.18,197.22,-129.983,-153.576,0
15938,761.67,760.22,755.54,755.77,758.3,-79.59,-1035.64,313.48,21.83,-15.43,-42.16,-91.7,3189,0,82,1.93194,1.43863,-66.5306,10166.6,-8674.99,282.044,-130.391,-152.81,0
15974,761.4,760.52,755.52,755.89,758.33,-57.13,-1000.98,373.05,26.93,-13.63,-29,-95.55,3196,0,82,2.26176,2.4417,-66.3092,9367.39,-8539.21,117.731,-128.78,-141.275,0
16013,761.04,760.4,755.56,755.9,758.22,-82.03,-931.15,453.61,1.34,1.31,0.8,-92.57,3204,0,82,2.89851,6.64725,-69.8517,8704.67,-9168.55,-503.906,-131.274,-124.651,0
16049,760.6,760.44,755.6,755.89,758.13,-79.59,-977.54,305.66,-1.77,1.76,-0.34,-90.15,3211,0,82,1.92243,12.1165,-74.3137,8148.06,-9821.55,-1320.34,-132.163,-109.641,0
16086,760.78,760.58,755.61,755.97,758.23,-60.55,-958.5,354.49,1.46,-0.28,-3.11,-92.95,3218,0,82,2.81704,7.75536,-70.7255,7843.75,-9371.45,-740.422,-132.502,-110.902,0
16122,760.83,760.66,755.55,755.99,758.26,-74.71,-954.1,347.17,-2.66,1.36,-0.03,-95.5,3225,0,82,3.60599,8.73582,-71.2634,7649.8,-9240.12,-712.304,-129.671,-107.356,0
16158,760.81,760.82,755.69,756.09,758.35,-61.52,-963.87,346.68,-0.99,-0.14,0.21,-94.61,3233,0,82,4.30071,10.552,-76.8196,7943.74,-9964,-763.656,-129.715,-103.414,0
16194,760.53,761.06,755.72,756.35,758.42,-69.82,-956.05,345.21,1.51,0.47,-0.76,-98.65,3240,0,82,5.72758,11.0294,-77.7942,7888.13,-9955.37,-754.898,-127.971,-101.398,0
16233,760.15,761.31,755.72,756.46,758.41,-63.48,-949.71,358.89,0.44,-0.2,-3.37,-101.03,3248,0,82,6.78612,11.7735,-79.0658,7630.12,-10008.2,-681.943,-126.606,-96.507,0
16269,759.81,761.48,755.72,756.58,758.4,-75.2,-950.68,349.12,-2.02,0.6,-2.92,-102.96,3255,0,82,5.3779,12.6577,-78.5782,7225.48,-10105.5,-864.448,-128.609,-91.9546,0
16305,759.29,761.84,755.8,756.68,758.4,-71.29,-960.94,348.63,-0.76,0.47,-1.16,-103.67,3262,0,82,5.97135,13.6096,-79.9151,6898.32,-10072.1,-930.667,-126.035,-86.321,0
16342,758.97,761.99,755.8,756.74,758.37,-72.27,-951.66,347.17,-1.43,0.63,-0.81,-104.52,3269,0,82,6.85455,14.0698,-79.0286,6463.68,-9957.02,-895.475,-125.994,-81.7911,0
16378,758.89,761.96,755.82,756.58,758.31,-69.82,-956.54,345.7,-1.5,-1.11,-1.2,-101.02,3277,0,82,6.49388,14.7971,-78.1521,5850.39,-9741.38,-1109.68,-124.647,-74.8595,0
16414,758.95,761.85,755.78,756.57,758.29,-67.38,-953.12,342.77,-0.21,1.86,-0.66,-101.22,3284,0,82,5.91954,14.884,-76.382,5726.33,-9628.86,-1150.39,-126.062,-74.9697,0
16453,758.9,761.7,755.77,756.54,758.23,-68.85,-951.66,335.94,-2.09,-1.63,-0.69,-99.66,3292,0,82,5.99335,14.3674,-76.145,5870.12,-9536.96,-1123.14,-125.248,-77.0922,0
16489,758.85,761.58,755.79,756.44,758.17,-57.13,-944.82,355.47,-1.21,1.74,-0.76,-96.69,3299,0,82,6.11718,13.7285,-73.6751,5897.35,-9392.87,-1154.35,-127.492,-80.0455,0
16526,758.84,761.5,755.73,756.43,758.13,-74.22,-957.03,347.17,-0.76,1.03,-0.5,-97.38,3306,0,82,5.33526,13.5071,-72.6129,5809.2,-9155.04,-1053.19,-126.083,-80.0073,0
16562,758.69,761.51,755.83,756.51,758.14,-57.62,-952.64,357.91,-0.64,0.92,-2.97,-95.57,3313,0,82,5.04213,13.036,-69.8424,5780.85,-8944.9,-985.056,-128.077,-82.7749,0
16598,758.44,761.56,755.78,756.61,758.1,-63.96,-960.94,334.47,-3.37,0.76,-1.48,-97.8,3321,0,82,4.99376,12.8908,-70.1912,5713.28,-8825.03,-835.835,-125.728,-81.3963,0
16634,758.18,761.56,755.7,756.53,757.99,-65.92,-952.15,339.36,-1.34,1.87,-0.89,-97.82,3328,0,82,5.80449,12.8261,-68.2853,5523.06,-8631.07,-873.773,-126.398,-80.8797,0
16673,757.98,761.43,755.73,756.46,757.9,-62.01,-960.94,356.93,-0.77,-1.19,0.96,-94.23,3336,0,82,5.73747,12.3863,-65.6455,5050.95,-8173.81,-835.145,-124.512,-76.9424,0
16709,757.88,761.35,755.63,756.44,757.83,-65.92,-955.57,352.05,-3.74,-1.52,-0.2,-95.62,3343,0,82,5.4031,11.756,-63.8258,4881.32,-7831.26,-919.322,-122.697,-76.4788,0
16745,757.8,761.21,755.72,756.36,757.77,-62.01,-949.22,348.63,-1.94,-0.32,-0.94,-90.75,3350,0,82,5.55164,11.3811,-61.4519,4716.16,-7641.78,-992.615,-124.352,-76.7462,0
16781,757.79,761.03,755.7,756.33,757.71,-54.2,-955.08,343.75,-1.95,0.11,2.23,-89.07,3357,0,82,5.19475,10.476,-59.3154,4666.56,-7317.24,-746.086,-123.361,-78.6753,0
16817,757.99,760.83,755.69,756.21,757.68,-67.38,-952.15,353.03,-0.73,0.44,2.95,-86.66,3364,0,82,4.77835,9.35141,-56.6687,4656.4,-6998.8,-671.84,-123.506,-82.1724,0
16856,758.06,760.74,755.71,756.18,757.67,-64.45,-948.73,343.26,-0.18,0.3,-0.33,-85.53,3372,0,82,4.9408,9.11672,-56.5174,4892.81,-6952.53,-619.533,-123.015,-86.5716,0
16892,758.34,760.69,755.7,756.16,757.72,-66.41,-949.22,349.12,0.44,-2.11,-1.24,-85.82,3379,0,82,4.54161,8.4053,-55.7484,5174.13,-7122.28,-506.032,-127.765,-92.8172,0
16928,758.56,760.64,755.65,756.22,757.77,-68.36,-958.98,332.52,2.21,-1.53,-2.05,-88.48,3387,0,82,4.28848,8.50744,-58.6506,5340.87,-7346.32,-567.859,-125.258,-91.0636,0
16964,758.71,760.71,755.75,756.22,757.85,-63.48,-957.03,362.79,3.56,-2.11,-1.38,-86.98,3394,0,82,3.69077,8.78763,-58.1307,5560.95,-7604.47,-734.611,-130.832,-95.6692,0
17000,758.59,760.63,755.67,756.21,757.77,-75.68,-957.52,346.68,-0.05,-0.99,-1.77,-87.87,3401,0,82,2.88673,9.28183,-61.7792,5842.76,-7966.92,-981.988,-128.958,-94.5769,0
17036,758.46,760.6,755.69,756.18,757.73,-64.94,-958.5,350.59,-1.56,1.97,0.21,-86.24,3408,0,82,2.10465,9.75435,-62.7737,5929.92,-8154.49,-961.841,-129.904,-94.4732,0
17075,758.27,760.5,755.68,756.11,757.64,-68.85,-943.85,343.26,-0.59,0.04,-1.6,-83.84,3416,0,82,1.55207,9.40834,-59.8058,5594.23,-7808.12,-1020.65,-130.562,-93.5439,0
17111,758.08,760.34,755.67,756.06,757.54,-62.5,-949.22,339.84,-4.23,0.82,0.58,-81.55,3423,0,82,1.20588,8.67538,-57.2908,5376.39,-7362.79,-1007.87,-128.519,-93.8499,0
17147,758.08,760.3,755.62,756.01,757.5,-67.87,-955.08,350.1,-1.85,0.17,-1.98,-81.6,3430,0,82,1.37811,7.58513,-52.3739,5252.15,-6910.71,-673.744,-131.948,-100.281,0
17183,758.13,760.19,755.57,755.98,757.46,-70.8,-952.64,355.96,-3.27,1.33,2,-81.7,3438,0,82,1.3901,6.15112,-50.676,5087.19,-6503.31,-555.596,-128.335,-100.39,0
17219,758.1,760.1,755.59,755.97,757.44,-77.64,-962.89,327.15,-1.94,1.14,0.69,-80.42,3445,0,82,1.31756,5.91656,-49.2778,5032.9,-6362.12,-618.899,-129.113,-102.142,0
17255,758.23,760.16,755.67,756,757.52,-64.45,-959.96,334.47,-0.14,1.46,-0.81,-79.81,3452,0,82,1.73538,5.36575,-50.1181,5111.57,-6316.12,-510.588,-126.025,-101.991,0
17293,758.24,760.2,755.65,756.02,757.53,-56.64,-937.99,357.91,0.2,-0.91,-0.18,-80.88,3460,0,82,1.37639,5.49776,-49.8521,5240.29,-6428.89,-570.345,-128.959,-105.117,0
17329,758.35,760.24,755.58,756.03,757.55,-79.59,-961.91,336.43,0.59,-0.81,-0.85,-83.3,3467,0,82,1.45131,5.93463,-52.5586,5412.43,-6696.78,-599.544,-127.415,-102.98,0
17365,758.6,760.23,755.67,756.09,757.65,-71.78,-954.59,342.29,1.85,-3.27,-1.76,-82.8,3474,0,82,1.32208,6.14097,-51.6847,5474.49,-6843.84,-698.498,-132.423,-105.927,0
17401,758.69,760.22,755.67,756.01,757.65,-68.36,-958.5,353.03,1.65,-0.55,1.5,-81.76,3481,0,82,1.10693,6.62018,-54.6227,5618.45,-7048.49,-788.727,-129.045,-102.866,0
17437,758.69,760.25,755.66,756.11,757.68,-66.89,-952.64,344.73,0.58,1.08,-1.11,-83.75,3488,0,82,0.598908,7.17056,-57.4971,5805.57,-7462.94,-975.059,-129.798,-100.973,0
17474,758.85,760.32,755.66,756.1,757.73,-68.36,-961.91,344.24,-1.92,1.39,-0.96,-84.83,3496,0,82,0.226033,7.33035,-57.3947,5902.77,-7548.76,-1013.1,-131.546,-102.86,0
17512,758.86,760.4,755.64,756.1,757.75,-85.45,-949.71,349.61,-2.71,1.42,0.81,-85.78,3503,0,82,0.61919,7.50053,-59.478,5932.3,-7720.79,-1032.63,-129.809,-99.7394,0
17548,758.93,760.41,755.66,756.13,757.78,-75.2,-963.87,355.47,2.46,-0.02,-0.95,-86.1,3511,0,82,0.936926,7.85158,-59.9791,6066.57,-7911.32,-1080.11,-131.9,-101.144,0
17584,758.86,760.38,755.7,756.08,757.76,-63.48,-953.61,354.49,0.07,1.09,0.55,-83.93,3518,0,82,0.644089,7.64845,-61.5422,6224.41,-8035.07,-1108.1,-130.561,-101.141,0
17621,758.97,760.48,755.68,756.11,757.81,-79.59,-959.96,345.21,-0.47,-1.63,0.33,-86.02,3525,0,82,0.499028,7.91589,-60.5137,6202.26,-8014.38,-1145.82,-132.439,-102.493,0
17657,759.1,760.44,755.69,756.1,757.83,-62.99,-959.47,346.68,-1.86,0.05,2.65,-85.63,3532,0,82,0.689712,7.67326,-61.8839,6232.6,-8085.39,-1190.11,-130.655,-100.714,0
17693,759,760.45,755.62,756.15,757.81,-77.64,-961.91,341.8,-0.33,-1.1,0.4,-88.05,3540,0,82,0.517285,7.79368,-61.4822,6267.87,-8101.41,-1101.71,-131.768,-101.946,0
17731,759.22,760.49,755.65,756.13,757.87,-70.8,-964.36,340.82,-2.02,-2.84,1.15,-88.22,3547,0,82,1.05036,7.80717,-62.7425,6299.13,-8162,-1132.1,-130.092,-100.399,0
17767,759.28,760.49,755.67,756.12,757.89,-65.92,-955.08,351.07,2.01,-0.36,-0.89,-87.7,3554,0,82,1.35379,7.55191,-61.8452,6384.09,-8259.45,-1203.84,-133.552,-103.227,0
17804,759.34,760.5,755.71,756.15,757.92,-63.48,-957.52,346.68,0.43,3.52,-1.31,-87.41,3562,0,82,0.909107,7.70105,-64.5328,6431.48,-8326.38,-1199.41,-129.027,-99.6619,0
17840,759.37,760.54,755.66,756.15,757.93,-77.64,-961.91,342.77,-0.11,3.03,-0.58,-89.1,3569,0,82,0.581057,8.39864,-63.7904,6563.91,-8560.25,-1156.42,-134.194,-102.897,0
17876,759.41,760.46,755.67,756.18,757.93,-76.17,-957.52,354,2.01,-0.73,-0.66,-88.72,3576,0,82,0.831813,8.48324,-65.8214,6653.98,-8714.01,-1246.52,-132.389,-101.091,0
17912,759.57,760.57,755.69,756.2,758.01,-62.01,-948.24,352.54,1.11,-2.28,0.04,-89.98,3583,0,82,0.673724,8.67353,-67.8517,6734.48,-8869.94,-1267.77,-130.726,-99.2547,0
17951,759.55,760.52,755.69,756.14,757.98,-63.96,-948.24,341.8,1.5,0.92,0.81,-88.73,3591,0,82,0.446099,9.16025,-67.4433,6801.07,-9012.09,-1366.17,-133.63,-100.845,0
17987,759.57,760.61,755.75,756.12,758.01,-63.48,-962.89,337.89,0.53,-1.24,-0.6,-87.54,3598,0,82,0.258665,9.11283,-68.202,6886.79,-9082.73,-1424.63,-133.175,-100.977,0
18023,759.41,760.53,755.66,756.1,757.93,-66.41,-952.15,352.54,-4.24,0.46,-2.23,-88.44,3606,0,82,0.234033,9.53426,-67.8403,6929.74,-9094.57,-1412.78,-134.058,-102.148,0
18059,759.29,760.52,755.71,756.07,757.9,-67.38,-949.22,353.52,-2.26,1.34,-2.52,-86.08,3613,0,82,0.248981,8.70302,-67.6107,6716.48,-8843.65,-1386.56,-130.803,-99.3406,0
18095,759.1,760.49,755.67,756.05,757.83,-63.48,-954.1,358.89,-2.56,0.97,-2.07,-85.89,3620,0,82,1.12279,8.23308,-63.4642,6491.98,-8467.53,-1305.06,-133.425,-102.295,0
18134,759.13,760.36,755.69,756.07,757.81,-68.36,-964.36,337.89,-1.09,1.74,-0.18,-84.86,3628,0,82,0.76236,7.54722,-62.2485,6229.23,-8115.41,-1251.88,-130.371,-100.069,0
18170,759.21,760.52,755.65,756.09,757.87,-66.89,-953.12,334.47,0.18,2.44,0.31,-87.68,3635,0,82,1.22783,7.24828,-59.2457,6100.21,-7819.68,-1079.94,-131.989,-102.966,0
18206,759.25,760.39,755.69,756.11,757.86,-72.75,-962.4,359.37,0.54,-2.86,-0.98,-86.06,3642,0,82,1.06866,7.26135,-60.6222,6263.14,-7927.88,-1182.47,-130.775,-103.317,0
18242,759.44,760.59,755.75,756.1,757.97,-69.82,-961.91,339.84,1.77,-0.18,-1.31,-86.71,3649,0,82,0.727464,7.35264,-60.7107,6340.59,-8052.06,-1120.44,-132.629,-104.437,0
18278,759.61,760.58,755.68,756.2,758.02,-68.85,-953.61,348.63,1.73,-3.7,-1.31,-90.48,3657,0,82,0.548174,7.96637,-64.4447,6573.15,-8496.42,-1308.04,-131.841,-102.001,0
18315,759.82,760.64,755.67,756.22,758.09,-69.34,-962.89,349.12,0.27,-0.02,0.4,-92.09,3664,0,82,0.336054,8.60268,-66.7175,6752.26,-8862.88,-1408.42,-132.842,-101.206,0
18353,759.71,760.65,755.72,756.19,758.07,-59.57,-953.61,358.89,-1.29,-2.06,0.27,-90.24,3672,0,82,0.354145,9.54567,-69.5804,7004.07,-9376.49,-1500.51,-134.761,-100.664,0
18389,759.63,760.61,755.69,756.19,758.03,-49.32,-945.8,365.72,-2.23,1.79,-1.48,-90.23,3679,0,82,0.127579,10.0809,-72.3376,7162.76,-9568.99,-1603.18,-132.282,-99.0185,0
18426,759.58,760.67,755.67,756.15,758.02,-63.96,-957.03,355.96,-2.56,1.76,-1.02,-90.53,3686,0,82,0.840641,9.90548,-69.0636,6919.36,-9293.11,-1558.18,-134.559,-100.189,0
18462,759.41,760.6,755.66,756.1,757.94,-69.82,-966.8,343.26,-2.44,2.76,0.08,-88.88,3693,0,82,0.858614,9.22757,-67.2859,6711.85,-8873.79,-1451.15,-131.881,-99.7514,0
18498,759.33,760.57,755.71,756.12,757.93,-73.24,-949.71,347.17,-1.92,2.26,0.89,-87.5,3701,0,82,0.990224,8.76477,-64.8118,6607.02,-8566.11,-1393.19,-132.169,-101.942,0
18535,759.26,760.48,755.76,756.12,757.91,-61.04,-964.84,334.96,0.21,1.16,-2.75,-85.33,3708,0,82,1.37209,8.2677,-63.4142,6481.14,-8242.29,-1160.07,-129.975,-102.203,0
18573,759.09,760.46,755.73,756.17,757.86,-76.17,-962.89,330.57,0.03,0.53,-2.34,-85.96,3716,0,82,1.58374,7.80921,-60.2964,6365.3,-7988.52,-1101.51,-132.488,-105.567,0
18609,759.03,760.47,755.75,756.15,757.85,-61.04,-954.1,352.54,0.16,2.81,-1.79,-85.15,3723,0,82,1.5687,7.56368,-60.087,6144.28,-7697.72,-944.868,-128.123,-102.259,0
18646,758.98,760.43,755.73,756.08,757.81,-64.45,-957.52,348.63,-0.69,0.95,-0.64,-84.24,3730,0,82,1.68967,7.26484,-57.4856,6091.32,-7574.45,-1015,-131.774,-105.97,0
18682,758.97,760.41,755.69,756.12,757.8,-76.66,-962.4,347.66,-1.08,-2.46,-0.22,-85.26,3737,0,82,1.0973,7.35764,-57.3432,5985.49,-7486.49,-1059.55,-130.557,-104.381,0
18718,758.9,760.4,755.69,756.06,757.76,-62.99,-955.57,329.59,-1.3,0.76,-1.5,-84.2,3745,0,82,0.812303,7.35223,-56.1189,5917.52,-7448.63,-1020.84,-132.729,-105.446,0
18754,758.79,760.4,755.56,756.08,757.71,-71.78,-960.45,344.24,0.05,0.28,-2.38,-87.29,3752,0,82,1.19446,7.21636,-55.6236,5785.81,-7252.35,-1064.99,-130.382,-104.018,0
18792,758.65,760.31,755.67,756.05,757.67,-76.66,-953.12,345.7,-2.66,-0.8,1.28,-83.03,3759,0,82,1.67521,7.18738,-55.5254,5701.28,-7052.08,-973.872,-127.007,-102.683,0
18828,758.57,760.32,755.65,756.1,757.66,-61.52,-956.05,327.64,-1.24,-0.62,0.5,-84.16,3767,0,82,1.44858,7.02725,-54.1686,5660.17,-6937.27,-1061.51,-128.072,-104.498,0
18864,758.45,760.21,755.67,756.05,757.6,-77.64,-963.38,325.68,-2.51,0.57,-2.4,-81.7,3774,0,82,1.63853,6.54279,-53.4813,5471.36,-6695.06,-970.831,-125.185,-102.304,0
18900,758.46,760.27,755.65,756.02,757.6,-58.59,-957.03,347.17,-0.57,0.25,0.01,-82.04,3781,0,82,1.79205,6.58061,-51.1869,5393.95,-6491.65,-958.216,-126.823,-105.377,0
18936,758.29,760.19,755.68,756.06,757.55,-77.15,-960.45,344.73,-0.98,-0.53,-0.41,-80.81,3788,0,82,1.644,6.345,-50.0582,5208.56,-6302.28,-880.276,-125.903,-104.054,0
18972,758.21,760.16,755.63,756.05,757.51,-73.24,-963.87,338.38,-1.76,0.25,-1.32,-81.24,3795,0,82,1.84708,6.27528,-48.2836,5125.61,-6203.95,-809.256,-128.49,-106.157,0
19011,758.15,760.2,755.65,756.04,757.51,-59.08,-951.17,329.59,0.05,1.44,-2.95,-80.87,3803,0,82,2.33293,5.88761,-48.1459,4960.62,-6035.09,-760.99,-125.353,-103.034,0
19047,758.08,760.19,755.65,756.11,757.51,-74.22,-964.84,330.57,-0.68,2.35,-0.53,-81.55,3810,0,82,1.98447,6.24136,-46.4909,4927.15,-5962.43,-830.843,-128.255,-105.984,0
19083,758.11,760.17,755.67,756.11,757.51,-73.73,-962.89,337.89,1.57,0.68,-0.37,-80.87,3818,0,82,1.75552,5.9353,-47.3633,4879.44,-5918.32,-680.786,-124.956,-103.022,0
19119,758.24,760.25,755.68,756.11,757.57,-65.92,-962.89,346.19,3.46,-0.1,-1.01,-81.76,3825,0,82,1.69208,5.74223,-46.1375,4804.83,-5933.47,-682.914,-128.604,-104.142,0
19155,758.26,760.39,755.66,756.18,757.62,-78.61,-958.98,340.82,0.75,-1.98,-2.63,-84.65,3832,0,82,1.56333,6.69041,-48.2807,4947.94,-6138.47,-824.898,-127.139,-102.484,0
19191,758.42,760.35,755.68,756.18,757.66,-69.82,-953.61,343.26,0.98,-1.76,0.63,-84.37,3839,0,82,1.22541,7.26318,-52.0796,5168.37,-6610.27,-976.403,-126.926,-99.2398,0
19229,758.59,760.53,755.7,756.16,757.75,-77.15,-946.29,348.63,2.5,-1.12,-3.12,-85.56,3847,0,82,1.59644,8.4797,-53.8253,5325.23,-6924.22,-1036,-128.643,-98.9378,0
19265,758.7,760.6,755.66,756.26,757.8,-56.64,-936.52,323.73,1.43,0.78,-1.2,-88.73,3854,0,82,1.3431,9.40169,-56.733,5513.82,-7278.81,-1271.15,-128.3,-97.1923,0
19302,758.99,760.72,755.77,756.3,757.95,-65.43,-969.24,341.8,1.91,-0.22,1.13,-88.72,3861,0,82,1.28102,10.0765,-57.8666,5602.27,-7585.14,-1415.44,-131.08,-96.8139,0
19338,759.15,760.77,755.71,756.38,758,-59.08,-953.61,353.03,0.46,-0.26,-1.17,-92.3,3869,0,82,0.983391,10.2627,-62.769,5886.92,-8102.61,-1411.58,-129.086,-93.7873,0
19374,759.21,760.74,755.74,756.29,757.99,-75.2,-948.24,348.14,1.92,-0.42,-0.23,-90.05,3876,0,82,0.33916,11.0303,-64.7583,6203.05,-8605.71,-1576.27,-132.897,-95.7906,0
19411,759.3,760.78,755.74,756.31,758.03,-76.66,-967.77,340.82,-1.01,-0.18,0.56,-91.12,3883,0,82,0.470529,11.4844,-66.2142,6253.33,-8752.17,-1689.79,-132.18,-94.4417,0
19449,759.39,760.76,755.66,756.28,758.02,-65.92,-957.03,341.8,-0.53,1.46,0,-92.73,3891,0,82,0.144557,11.7839,-66.2086,6286.93,-8880.57,-1770.2,-134.13,-94.9565,0
19486,759.46,760.83,755.81,756.31,758.1,-82.03,-953.61,355.47,-1.4,0.44,-0.79,-90.45,3898,0,82,-0.0217994,11.9671,-67.934,6337.17,-8921.47,-1925.09,-131.325,-93.2842,0
19522,759.48,760.82,755.73,756.29,758.08,-65.92,-966.8,348.63,-0.19,-0.56,-0.79,-92.03,3905,0,82,-0.2364,12.0378,-67.1811,6401.5,-8985.16,-1924.74,-133.751,-95.2899,0
19558,759.48,760.88,755.73,756.32,758.1,-72.75,-948.73,348.14,1.09,0.66,-1.58,-92.94,3913,0,82,-0.349457,11.9449,-68.0126,6493.29,-9029.5,-1817.18,-132.768,-95.4809,0
19594,759.5,760.91,755.72,756.39,758.13,-67.38,-964.36,348.14,-0.24,1.37,-3.14,-94.48,3920,0,82,-0.399039,11.6556,-68.764,6498.45,-9068.2,-1894.47,-131.881,-94.5065,0
19633,759.48,760.84,755.78,756.37,758.12,-61.52,-961.91,349.12,0.41,-1.55,-0.75,-92.05,3928,0,82,-0.873405,11.7539,-68.204,6466.27,-9029.64,-1842.42,-132.392,-94.8075,0
19669,759.53,760.84,755.63,756.35,758.09,-68.85,-960.45,349.61,-0.58,0.55,-0.05,-95.85,3935,0,82,-0.599593,11.9308,-69.596,6513.67,-9138.91,-1883.81,-131.314,-93.5926,0
19705,759.6,760.89,755.79,756.37,758.16,-67.87,-948.24,347.66,0.45,1.17,0.45,-92.61,3942,0,82,-0.981332,11.9627,-69.2098,6492.94,-9199.33,-1964.04,-132.919,-93.8151,0
19742,759.57,760.93,755.78,756.4,758.17,-79.59,-956.05,338.38,-0.92,2.47,-0.13,-93.5,3949,0,82,-0.845776,12.2747,-69.9832,6523.51,-9257.56,-1895.33,-132.282,-93.2156,0
19778,759.59,760.99,755.83,756.35,758.19,-71.78,-964.84,345.21,-0.27,0.59,-1.86,-92.17,3957,0,82,-0.628542,12.1946,-70.0804,6618.07,-9296.98,-2013.06,-132.661,-94.4354,0
19814,759.62,760.95,755.73,756.37,758.17,-67.38,-962.89,345.7,-2.08,3.06,1.15,-94.64,3964,0,82,-0.338317,12.4359,-71.0591,6690.41,-9403.48,-1895.07,-132.334,-94.153,0
19852,759.61,760.91,755.74,756.37,758.16,-68.36,-958.01,348.63,2.57,0.06,-0.09,-93.96,3971,0,82,-0.594872,12.0368,-69.9497,6699.49,-9395.64,-1939.54,-134.323,-95.7798,0
19889,759.69,761.04,755.79,756.42,758.24,-77.64,-951.17,351.07,-1.14,-0.27,0.42,-94.8,3979,0,82,-0.557422,11.7573,-70.868,6711.08,-9411.11,-1900.64,-132.798,-94.6988,0
19925,759.66,760.94,755.74,756.45,758.19,-63.96,-954.1,356.93,0.18,-0.73,1.59,-95.63,3986,0,82,-0.661703,11.9558,-69.5053,6729.06,-9429.17,-1915.04,-135.664,-96.8142,0
19961,759.72,760.94,755.86,756.44,758.24,-67.87,-968.75,353.03,-0.15,-0.67,-1.85,-92.72,3993,0,82,-0.638132,11.8569,-71.079,6707.79,-9446.23,-1971.84,-132.906,-94.3766,0
19997,759.7,760.96,755.78,756.39,758.21,-67.38,-956.54,351.07,1.52,-0.13,0.87,-94.09,4000,0,82,-0.842358,12.266,-71.9041,6737.54,-9500,-1986.96,-132.122,-93.7023,0
20033,759.78,760.96,755.82,756.44,758.25,-66.41,-950.2,357.91,1.89,-0.72,1.83,-94.05,4008,0,82,-0.753179,12.0521,-70.9861,6789.08,-9549.61,-1945.27,-134.529,-95.6402,0
20072,759.93,761.1,755.78,756.41,758.31,-62.5,-955.08,343.75,-0.35,-0.16,-0.39,-96.24,4015,0,82,-0.755014,12.4238,-72.8607,6830.37,-9646.42,-1946.52,-132.396,-93.7479,0
20108,759.94,761.07,755.72,756.5,758.31,-69.82,-960.94,337.89,0.5,0.15,0.17,-98.88,4023,0,82,-1.04321,12.6427,-72.9848,6914.46,-9776.85,-1965.16,-133.963,-94.7425,0
20145,759.92,761.24,755.71,756.6,758.37,-77.15,-957.03,361.33,0.41,0.35,-1.08,-102.01,4030,0,82,-0.76416,12.6073,-74.6918,7006.07,-9901.73,-2053.21,-132.571,-93.8012,0
20181,759.81,761.49,755.85,756.68,758.46,-75.68,-957.52,351.07,1.52,-0.83,-1.78,-101.24,4037,0,82,-0.548714,13.2306,-74.6216,7029.19,-10021.4,-2149.67,-134.301,-94.1991,0
20217,759.8,761.58,755.86,756.68,758.48,-62.01,-953.12,356.93,-0.47,-2.16,-0.53,-101.68,4044,0,82,-0.696316,13.7754,-76.5246,6849.77,-10147,-2139.33,-132.6,-89.5118,0
20254,759.86,761.62,755.95,756.73,758.54,-63.96,-962.4,351.07,1.66,-0.72,0.06,-100.6,4052,0,82,-0.52047,14.7953,-77.565,6743.61,-10401,-2262.49,-134.095,-86.9414,0
20292,759.89,761.82,755.91,756.82,758.61,-76.66,-951.17,350.59,0.88,0.18,-1.17,-104.82,4059,0,82,-0.517106,15.3538,-79.9288,6683.12,-10618.7,-2426.49,-132.853,-83.6127,0
20328,759.78,761.91,755.92,756.92,758.63,-51.27,-960.45,355.47,0.59,-0.73,-1.74,-106.24,4067,0,82,-0.76854,15.6627,-80.5104,6818.42,-10864.6,-2397.39,-134.946,-84.69,0
20365,759.76,761.93,755.92,756.92,758.63,-83.01,-961.43,358.89,0.18,0.7,-2.4,-106.31,4074,0,82,-0.753095,16.4657,-82.1922,6685.95,-10914.8,-2525.29,-132.796,-81.3454,0
20402,759.81,762.03,755.88,756.88,758.65,-61.52,-955.08,364.26,0.63,0.27,-0.86,-107.71,4081,0,82,-1.02394,16.6949,-81.4906,6621.78,-10980.3,-2687.01,-134.743,-81.2581,0
20438,759.86,761.88,755.96,756.85,758.64,-65.43,-957.52,363.28,1.2,2.44,-0.3,-104.36,4089,0,82,-1.23197,16.6359,-83.1746,6601.5,-11069.2,-2658.48,-133.086,-79.37,0
20474,760.12,761.77,755.93,756.84,758.66,-66.89,-965.33,358.89,1.34,-1.54,0.56,-104.89,4096,0,82,-1.38389,16.6939,-83.0532,6741.18,-11101,-2544.68,-133.669,-81.1698,0
20513,760.35,761.71,755.88,756.79,758.68,-64.94,-946.29,365.72,-1.6,-0.47,-0.19,-105.62,4104,0,82,-0.868448,16.2089,-83.2458,6951.09,-11265.1,-2495.73,-135.324,-83.5012,0
20549,760.44,761.68,755.87,756.7,758.67,-69.34,-945.31,357.42,-1.69,-3.04,-0.73,-104.87,4111,0,82,-1.31943,16.1687,-83.609,7216.9,-11281.2,-2438.52,-134.933,-86.3208,0
20585,760.53,761.65,755.94,756.72,758.71,-57.62,-946.78,362.3,-0.63,-1.97,-2.35,-103.5,4118,0,82,-1.27523,15.9292,-82.918,7446.22,-11386.3,-2536.83,-137.32,-89.8016,0
20621,760.57,761.59,755.89,756.68,758.68,-70.31,-958.01,362.79,1.11,1.29,0.5,-103.62,4125,0,82,-1.35491,15.8784,-84.6825,7463.4,-11352.6,-2442.18,-134.061,-88.1333,0
20657,760.65,761.63,755.86,756.71,758.72,-60.55,-949.71,357.91,-1.02,1.36,-1.5,-105.59,4132,0,82,-1.59733,15.7886,-83.2707,7517.76,-11421.1,-2479.06,-137.157,-90.2809,0
20695,760.72,761.63,755.95,756.69,758.75,-78.61,-942.87,349.61,-0.92,1.11,-0.73,-103.09,4140,0,82,-1.72705,15.4789,-84.3299,7578.82,-11455.6,-2520.1,-135.846,-89.8736,0
20731,760.68,761.68,755.94,756.71,758.75,-64.94,-964.84,353.03,-0.76,0.92,-1.05,-104.07,4147,0,82,-1.67544,15.5189,-83.9921,7646.49,-11498.7,-2534.82,-136.902,-91.0383,0
20767,760.62,761.79,755.92,756.82,758.79,-68.36,-948.24,369.63,1.75,-1.43,-0.56,-106.87,4154,0,82,-1.36224,15.6235,-85.0218,7669.12,-11546.7,-2488.88,-135.81,-90.2028,0
20803,760.21,762.09,755.97,757.01,758.82,-58.11,-949.22,351.07,0.89,-1.18,-0.68,-109.27,4162,0,82,-1.52745,15.6584,-83.4699,7615.58,-11575.1,-2464.21,-138.69,-91.2534,0
20839,759.77,762.36,756,757.11,758.81,-68.85,-947.75,354.98,-0.95,-0.71,-2.56,-110.72,4169,0,82,-1.63729,16.0709,-84.5991,7118.97,-11398.3,-2492.04,-134.734,-84.1486,0
20875,759.53,762.46,755.95,757.13,758.77,-70.8,-946.78,353.03,-0.34,-1.78,-1.15,-112.29,4176,0,82,-1.84509,17.1421,-84.352,6548.19,-11262.6,-2625.38,-133.518,-77.6293,0
20913,759.37,762.68,756.01,757.3,758.84,-61.52,-957.03,355.96,-0.71,-0.33,-0.89,-114.58,4184,0,82,-1.49957,17.7738,-83.5337,6214.7,-11203.8,-2808.58,-134.125,-74.3976,0
20949,759.43,762.6,756.06,757.19,758.82,-77.15,-943.85,374.02,-0.29,1.46,-1.56,-110.97,4191,0,82,-1.63091,18.1585,-83.8194,5998.58,-11130.7,-2735.95,-132.798,-71.569,0
20985,759.49,762.51,756.03,757.13,758.79,-70.31,-957.52,358.4,-0.68,1.97,-0.04,-110.64,4198,0,82,-1.40708,18.431,-83.1262,5834.59,-11122.8,-2798.78,-133.807,-70.1898,0
21021,759.82,762.33,756.01,756.97,758.78,-67.87,-948.24,346.68,0.42,-0.27,0.4,-108.27,4205,0,82,-1.46503,18.2026,-84.1884,6008.46,-11187.5,-2693.17,-132.886,-71.3692,0
21057,760.14,762.03,755.9,756.85,758.73,-55.18,-967.29,353.03,-1.3,3.45,1.13,-108,4212,0,82,-1.81918,17.7698,-83.6097,6324.3,-11243.9,-2603.12,-134.48,-75.6408,0
21093,760.45,761.91,755.93,756.73,758.76,-64.94,-954.1,347.66,-0.24,1.42,-1.21,-105.73,4220,0,82,-1.81871,16.7806,-84.2471,6817.38,-11351.3,-2664,-134.738,-80.9211,0
21132,760.65,761.72,755.9,756.7,758.74,-65.43,-962.89,362.79,-1.5,0.47,0.65,-105.07,4227,0,82,-1.76628,15.8457,-83.8852,7317.02,-11454.6,-2593.74,-136.55,-87.2262,0
21168,760.81,761.7,755.89,756.67,758.77,-68.85,-954.59,362.3,-0.71,0.73,-2.11,-105.22,4235,0,82,-2.36855,15.7778,-84.9198,7622.42,-11529.9,-2518.72,-135.774,-89.7601,0
21204,760.85,761.62,755.9,756.66,758.76,-70.31,-955.08,350.1,0.22,-0.47,-2.37,-104.39,4242,0,82,-2.27618,15.6137,-83.7689,7759.76,-11565.8,-2589.23,-138.069,-92.6329,0
21240,760.93,761.64,755.87,756.64,758.77,-64.94,-954.1,366.7,0.73,2.33,1.41,-105.31,4249,0,82,-2.35102,15.3814,-84.4826,7784.24,-11513.9,-2538.14,-136.289,-92.1405,0
21276,760.92,761.58,755.89,756.73,758.78,-63.48,-951.17,351.07,-0.39,-1.47,-3.34,-105.4,4256,0,82,-2.30003,14.9796,-84.3511,7834.16,-11528.8,-2580.22,-136.693,-92.8804,0
21312,760.94,761.49,755.92,756.67,758.75,-58.59,-963.87,350.1,-1.03,-2.31,-1.2,-103.1,4263,0,82,-2.19548,14.7038,-83.8732,7819.9,-11509.6,-2568.61,-137.227,-93.2347,0
21351,760.87,761.36,755.89,756.62,758.69,-63.48,-960.45,358.4,0.72,0.09,1.98,-101.97,4271,0,82,-1.95257,14.5564,-84.1429,7795.4,-11417.8,-2558.85,-135.696,-92.6447,0
21387,760.82,761.43,755.87,756.64,758.69,-67.38,-963.87,355.96,-1.49,0.19,-0.47,-103.01,4278,0,82,-1.92019,14.1087,-81.9605,7750.64,-11243.4,-2343.28,-137.18,-94.5658,0
21423,760.8,761.43,755.85,756.62,758.68,-48.34,-956.05,361.82,-1.08,1.15,-2.08,-103.31,4286,0,82,-2.04803,14.0579,-82.0368,7654.41,-11049.5,-2376.44,-134.693,-93.3088,0
21460,760.88,761.49,755.89,756.69,758.74,-63.96,-961.43,363.77,0.34,-1.16,-0.08,-104.03,4293,0,82,-2.52873,13.8544,-80.9229,7652.1,-11045.1,-2346.25,-136.489,-94.5608,0
21496,760.8,761.41,755.88,756.63,758.68,-82.03,-941.41,359.37,-0.1,0.83,1.05,-102.53,4300,0,82,-2.78566,14.0233,-82.1841,7687.63,-11102.7,-2331.71,-135.095,-93.5416,0
21534,760.85,761.51,755.84,756.58,758.69,-66.89,-942.87,357.42,0.69,-0.89,-0.83,-103.9,4308,0,82,-2.5437,14.1631,-80.5692,7649.57,-11107.1,-2219,-137.86,-94.9482,0
21570,760.85,761.45,755.82,756.6,758.68,-73.24,-969.24,359.86,0.43,1.24,-0.44,-103.9,4315,0,82,-2.55682,13.7806,-81.5167,7634.91,-11103.7,-2361.66,-136.213,-93.6611,0
21606,760.87,761.43,755.85,756.61,758.69,-66.41,-953.12,346.68,-2.4,1.07,-0.95,-103.22,4322,0,82,-2.79447,13.7743,-80.0303,7632.27,-11081.3,-2269.21,-138.464,-95.3671,0
21642,760.84,761.46,755.85,756.61,758.69,-72.27,-970.21,366.7,-0.27,0.56,1.95,-103.39,4329,0,82,-2.80814,13.4728,-80.3895,7661.2,-11025.1,-2326.7,-137.145,-95.3011,0
21678,760.87,761.49,755.9,756.64,758.73,-72.27,-959.47,363.28,2.31,2.4,-1.6,-102.91,4337,0,82,-2.41809,13.5991,-79.9561,7620.71,-10938,-2338.48,-136.805,-95.3133,0
21714,760.83,761.5,755.87,756.62,758.7,-72.27,-949.22,357.42,-0.75,0.85,-1.38,-103.6,4344,0,82,-2.29375,14.0379,-80.2623,7580.33,-10980.5,-2303.81,-136.808,-94.4438,0
21752,760.84,761.51,755.91,756.6,758.71,-62.01,-952.15,365.23,-0.51,1.31,-2.68,-102.36,4351,0,82,-2.34388,13.7732,-80.8431,7545.22,-10986.2,-2313.88,-135.895,-93.3318,0
21788,760.87,761.48,755.95,756.57,758.72,-54.69,-962.89,352.05,-0.68,-0.97,-0.18,-100.67,4359,0,82,-2.1668,13.8749,-80.2266,7533.35,-10960.2,-2427.05,-136.617,-93.9009,0
21824,760.87,761.51,755.87,756.6,758.71,-66.89,-949.71,363.77,0.15,0.92,0.35,-103.29,4366,0,82,-1.94944,13.7115,-81.6877,7556.97,-11028.8,-2354.63,-135.013,-92.5106,0
21860,760.83,761.47,755.88,756.63,758.7,-74.71,-959.47,374.51,-1.13,-1.75,-1.31,-103.06,4373,0,82,-2.01165,13.7789,-80.8214,7572.62,-10996.1,-2390.53,-136.055,-93.6969,0
21896,760.86,761.43,755.85,756.66,758.7,-74.22,-945.31,352.05,-0.47,-2.14,-3.37,-104.17,4380,0,82,-2.06557,14.0011,-81.5928,7596.88,-11034.2,-2424.12,-135.235,-93.1073,0
21932,760.83,761.48,755.83,756.62,758.69,-66.41,-958.98,350.59,-2.09,1.81,1.66,-104.14,4387,0,82,-2.33055,14.122,-80.7648,7593.98,-11015.9,-2384.04,-136.396,-94.0285,0
21971,760.91,761.5,755.75,756.6,758.69,-63.48,-960.45,355.96,0.92,2.15,1.65,-106.28,4395,0,82,-2.54738,14.1713,-81.8724,7615.58,-11103.2,-2434.13,-135.616,-93.0172,0
22007,760.88,761.5,755.88,756.63,758.72,-66.89,-958.98,359.37,0.24,-0.72,-2.8,-103.49,4402,0,82,-2.4396,14.3546,-80.2651,7598.39,-11172.7,-2523.24,-139.198,-94.6661,0
22043,760.83,761.44,755.92,756.56,758.69,-71.78,-958.5,373.05,0.06,3.26,0.34,-100.68,4410,0,82,-2.80241,14.0461,-81.6224,7599.95,-11079.1,-2518.85,-135.736,-93.111,0
22079,760.91,761.53,755.8,756.58,758.7,-65.92,-954.59,354.49,-0.64,1.44,-0.73,-105.04,4417,0,82,-2.29546,13.8881,-79.8358,7607.73,-10986.5,-2523.62,-137.612,-95.2943,0
22115,760.89,761.46,755.93,756.59,758.72,-64.45,-962.4,349.12,-0.08,1.93,-2.77,-101.53,4424,0,82,-2.46966,13.8417,-81.0874,7612.12,-11050.8,-2593.23,-136.283,-93.876,0
22151,760.87,761.49,755.86,756.64,758.71,-66.41,-953.12,361.33,0.11,-0.08,-0.03,-104.05,4431,0,82,-2.30925,13.8593,-81.8989,7611.81,-11042.3,-2529.74,-134.828,-92.9415,0
22189,760.83,761.55,755.93,756.66,758.74,-69.82,-955.08,346.19,-1.31,0.31,0.41,-102.98,4439,0,82,-2.10869,13.8759,-80.7697,7575.2,-11018.8,-2531.05,-136.423,-93.788,0
22225,760.91,761.57,755.88,756.62,758.75,-67.87,-950.2,358.4,-0.75,-1.09,0.86,-103.89,4446,0,82,-2.27979,14.2046,-81.6718,7594.88,-11040.4,-2507.23,-135.179,-92.9928,0
22261,760.89,761.57,755.92,756.66,758.76,-71.29,-960.45,363.28,0.71,-1.24,-0.23,-103.68,4453,0,82,-2.0712,14.2043,-81.207,7590.88,-11096.3,-2514.37,-136.642,-93.4757,0
22297,760.89,761.52,755.88,756.59,758.72,-66.89,-958.01,353.52,-1.47,-1.49,0.69,-103.17,4460,0,82,-2.16255,14.3274,-81.4576,7573.94,-11027.3,-2540.92,-135.375,-92.9806,0
22333,760.91,761.58,755.91,756.65,758.76,-75.68,-947.75,349.12,-0.31,-0.07,-1.77,-103.77,4468,0,82,-2.08696,14.187,-80.8338,7548.72,-11020.2,-2613.9,-136.334,-93.3856,0
22369,760.89,761.53,755.83,756.68,758.73,-59.08,-951.66,360.84,-0.02,3.62,-2.18,-105.65,4475,0,82,-1.98134,13.9866,-81.3728,7573.46,-10991.5,-2609.37,-135.079,-93.073,0
22407,760.92,761.48,755.84,756.67,758.73,-62.99,-958.5,351.07,1.07,2.01,0.19,-105.01,4482,0,82,-2.27615,13.8927,-80.1244,7559.23,-11020.4,-2615.49,-137.542,-94.3438,0
22443,760.88,761.55,755.9,756.64,758.74,-70.8,-943.85,359.86,-0.84,1.36,-2.53,-103.49,4490,0,82,-2.12856,13.7484,-81.2192,7599.26,-11054.9,-2496.44,-136.112,-93.5651,0
22479,760.86,761.49,755.88,756.63,758.72,-63.48,-953.12,359.37,-0.87,0.57,-2.64,-103.61,4497,0,82,-1.90878,13.8982,-78.946,7562.83,-10915.8,-2480.68,-138.271,-95.7981,0
22515,760.9,761.57,755.91,756.64,758.75,-67.87,-958.5,360.84,-0.11,2.42,-1.02,-103.59,4504,0,82,-2.32226,14.0628,-80.5268,7532.33,-11031.6,-2492.91,-136.995,-93.5381,0
22551,760.85,761.58,755.89,756.73,758.76,-64.94,-960.45,351.07,-1.05,0.99,2.21,-105.32,4511,0,82,-2.14229,14.1121,-81.4739,7543.87,-11032.8,-2485.98,-135.415,-92.5924,0
22589,760.92,761.55,755.91,756.68,758.76,-72.27,-958.98,365.72,-0.49,0.77,-0.16,-104.08,4519,0,82,-2.32625,14.2721,-81.1799,7542.78,-11019.5,-2558.5,-135.741,-92.9145,0
22625,760.93,761.6,755.89,756.71,758.78,-63.96,-961.43,349.12,-0.77,0.02,-1.25,-105.49,4526,0,82,-2.36343,14.2273,-81.3862,7543.18,-10994.9,-2502.52,-135.095,-92.6838,0
22661,760.85,761.56,755.97,756.63,758.75,-67.87,-952.64,350.1,1.57,3.29,-1.75,-101.7,4533,0,82,-2.32838,14.0743,-80.4743,7554.87,-10965.3,-2536.49,-136.263,-93.8813,0
22697,760.92,761.62,755.9,756.69,758.78,-80.08,-962.4,360.35,1.98,1.42,1.85,-104.93,4540,0,82,-2.14471,13.7974,-81.5421,7605.8,-10984.6,-2442.72,-134.712,-93.2747,0
22733,760.93,761.5,755.93,756.59,758.74,-68.85,-949.71,359.37,-0.53,1.57,-1.21,-101.91,4548,0,82,-2.45277,13.8572,-80.2083,7607.75,-10984.4,-2472.41,-136.949,-94.8499,0
22769,760.92,761.56,755.89,756.64,758.75,-57.13,-945.8,347.17,-1.18,1.88,0.94,-103.95,4555,0,82,-2.39121,13.9859,-81.8964,7570.11,-11015.4,-2520.23,-134.504,-92.4356,0
22808,760.92,761.59,755.89,756.64,758.76,-62.5,-947.75,354.49,-2.32,3.24,0.21,-104.24,4563,0,82,-2.33957,13.7889,-79.6134,7533.85,-10946.7,-2523.9,-137.499,-94.6304,0
22844,760.93,761.58,755.94,756.72,758.79,-71.29,-952.64,368.16,-2.24,0.76,-1.37,-104.13,4570,0,82,-2.08311,14.0492,-81.0506,7592.23,-10992,-2440.28,-135.619,-93.6729,0
22880,760.91,761.57,755.89,756.58,758.73,-60.55,-967.29,370.12,-0.11,0.04,-0.53,-103.29,4577,0,82,-2.51854,13.9108,-79.9222,7573.01,-10974.6,-2447.04,-137.316,-94.7558,0
22916,760.89,761.58,755.88,756.63,758.74,-62.01,-962.89,354,-1.35,3.58,0.21,-104.28,4584,0,82,-2.29219,14.1098,-80.3812,7533.06,-10931,-2333.49,-135.989,-93.7165,0
22952,760.9,761.61,755.88,756.64,758.76,-71.29,-961.43,360.35,0.23,0.53,-3.33,-104.67,4591,0,82,-2.50545,13.7605,-81.302,7569.59,-10893.9,-2404.62,-133.994,-93.1044,0
22988,760.91,761.58,755.86,756.66,758.75,-74.71,-947.27,351.07,2.31,1.37,0.39,-105.12,4599,0,82,-2.0447,13.5624,-80.4284,7557.05,-10944.3,-2314.77,-136.076,-93.9603,0
23027,760.98,761.63,755.84,756.67,758.78,-71.29,-952.15,349.61,0.03,-0.98,-0.18,-106.43,4606,0,82,-1.74021,13.5606,-81.0866,7617.36,-10950.8,-2275.12,-135.051,-93.9421,0
23063,760.95,761.59,755.93,756.68,758.79,-70.31,-942.38,365.72,0.27,-1.53,-0.48,-103.99,4614,0,82,-1.86572,13.819,-79.993,7571.02,-10889.3,-2293.48,-136.129,-94.6461,0
23099,760.88,761.56,755.87,756.65,758.74,-72.27,-956.54,359.37,-1,1.21,-2.41,-104.56,4621,0,82,-2.01098,13.8816,-80.4002,7603.12,-10999,-2444.24,-136.804,-94.5681,0
23135,760.89,761.58,755.98,756.75,758.8,-61.04,-956.05,354.49,-0.25,1.73,-1.47,-103.57,4628,0,82,-1.95108,14.1551,-80.5674,7612.08,-10967,-2343.43,-136.125,-94.4828,0
23171,760.98,761.51,755.92,756.65,758.76,-63.96,-956.05,352.54,-2.73,1.43,-1.42,-103.25,4635,0,82,-2.55095,13.9178,-81.3089,7597.94,-11021.6,-2397.74,-135.552,-93.4455,0
23208,760.98,761.57,755.83,756.71,758.77,-64.45,-960.45,358.89,-0.62,1.22,-1.72,-106.76,4643,0,82,-2.71093,14.0862,-80.3633,7662.92,-11003.5,-2367.85,-136.923,-95.3566,0
23247,761.02,761.6,755.87,756.71,758.8,-63.48,-974.12,360.35,-0.21,0.43,-1.44,-106.24,4650,0,82,-2.63704,13.8232,-81.376,7631.58,-11005.6,-2362.35,-135.244,-93.7816,0
23283,760.9,761.65,755.86,756.75,758.79,-72.27,-959.96,351.56,-1.31,0.82,-2.56,-107.09,4658,0,82,-2.28785,13.8061,-80.1371,7671.92,-11028.7,-2332.65,-137.623,-95.7389,0
23319,760.97,761.54,755.94,756.72,758.79,-56.64,-953.12,349.12,-0.18,-0.02,-0.28,-104,4665,0,82,-2.38071,13.7836,-80.642,7649.39,-10972.6,-2374.67,-136.065,-94.8562,0
23356,760.95,761.56,756.01,756.75,758.82,-69.34,-951.17,353.52,-2.94,-1.34,0.25,-102.71,4672,0,82,-2.25703,13.7273,-80.712,7630.3,-10970.4,-2406.21,-135.922,-94.5407,0
23392,760.92,761.58,755.96,756.69,758.79,-70.8,-946.29,359.86,-1.73,1.05,-0.03,-103.3,4679,0,82,-2.53176,14.0338,-80.3827,7608.03,-10929.6,-2414.42,-135.971,-94.6496,0
23430,760.96,761.64,755.93,756.73,758.82,-70.31,-950.68,364.26,1.91,0.22,1.83,-105.08,4687,0,82,-2.40977,13.8195,-81.0383,7662.46,-10946.8,-2299.94,-135.083,-94.5544,0
23466,760.95,761.61,755.9,756.73,758.8,-65.43,-954.59,362.79,-0.02,-0.31,0.21,-105.6,4694,0,82,-2.20412,13.5963,-80.5505,7619.69,-10903.9,-2291.62,-135.368,-94.597,0
23502,761.01,761.61,755.95,756.66,758.81,-66.41,-952.64,356.93,0.27,1.09,-0.44,-103.47,4701,0,82,-2.5486,13.5948,-81.0569,7646.04,-10893.5,-2398.83,-134.395,-94.3313,0
23538,760.96,761.67,755.89,756.73,758.81,-65.43,-955.08,360.84,-0.21,0.32,-0.91,-106.37,4709,0,82,-2.1566,13.7424,-79.7276,7599.5,-10879.3,-2445.71,-136.457,-95.3194,0
23575,760.99,761.59,755.91,756.68,758.79,-67.87,-960.94,350.1,1.46,-2.12,-0.93,-104.53,4716,0,82,-2.10807,13.5445,-81.3311,7687,-10901.8,-2467.46,-134.042,-94.515,0
23611,760.97,761.59,755.96,756.72,758.81,-69.34,-956.05,359.37,0.48,0.9,-0.07,-104.03,4723,0,82,-1.9908,13.2555,-79.8111,7622.65,-10928.4,-2385.84,-136.932,-95.5107,0
23649,760.94,761.61,755.92,756.75,758.8,-63.96,-959.47,355.96,0.17,-0.39,0.15,-105.55,4731,0,82,-2.4481,13.7747,-81.0352,7616.55,-10982,-2338.85,-135.521,-93.9907,0
23686,760.94,761.61,755.93,756.72,758.8,-62.01,-944.82,355.96,0.69,0.69,2.73,-104.83,4738,0,82,-2.53246,13.9473,-79.3088,7597.47,-10941.5,-2324.08,-137.963,-95.8004,0
23722,760.92,761.57,755.95,756.7,758.78,-64.94,-952.64,359.86,-1.73,0.62,-0.81,-103.39,4745,0,82,-2.52983,13.9794,-81.0188,7593.66,-10951,-2360.1,-135.167,-93.7281,0
23758,761.04,761.7,755.94,756.72,758.85,-60.55,-953.12,355.96,-1.59,2.56,-0.5,-105.58,4753,0,82,-2.60731,13.9398,-80.0834,7593.84,-10911.9,-2402.08,-136.273,-94.8391,0
23794,761.06,761.67,756.01,756.79,758.88,-63.48,-960.45,351.56,-0.45,0.12,-1.49,-104.78,4760,0,82,-2.42168,13.75,-80.6706,7585.04,-10905,-2378.81,-135.182,-94.0254,0
23830,761.01,761.68,755.9,756.73,758.83,-71.78,-954.1,359.86,-0.22,-0.78,0.57,-106.45,4767,0,82,-2.2229,13.6856,-81.2723,7680.77,-10898.3,-2382.95,-134.097,-94.5065,0
23869,761.02,761.66,755.92,756.76,758.84,-63.96,-958.01,345.7,-0.6,0.04,-0.66,-106.26,4775,0,82,-2.39844,13.2627,-80.4394,7643.69,-10901.6,-2437.87,-135.526,-95.0241,0
23905,761.02,761.7,755.93,756.75,758.85,-50.29,-959.47,362.79,0.29,-1.31,-1.35,-106.21,4782,0,82,-2.50244,13.9175,-81.5449,7643.64,-10957.5,-2410.54,-134.385,-93.738,0
23941,760.94,761.66,755.92,756.77,758.82,-66.41,-958.98,361.82,1.5,1.69,-0.87,-105.99,4789,0,82,-3.05823,13.938,-80.949,7590.53,-10986.4,-2324.25,-135.72,-93.7692,0
23977,760.92,761.69,755.93,756.79,758.83,-63.96,-954.1,366.21,-0.86,2.89,-1.72,-106.25,4796,0,82,-3.00146,14.1637,-81.4297,7569.41,-10996.9,-2409.7,-135.05,-92.9573,0
24013,760.96,761.68,755.9,756.66,758.8,-65.92,-959.96,345.7,-3.08,0.99,0.47,-105.13,4804,0,82,-2.87844,14.3284,-80.3637,7579.47,-10925,-2347.37,-135.945,-94.3162,0
24049,761,761.65,755.95,756.75,758.84,-65.92,-950.2,348.14,1.37,-0.37,1.27,-105.16,4811,0,82,-2.9876,14.0779,-80.653,7542.66,-10911.1,-2341.1,-135.284,-93.52,0
24087,761.03,761.66,756,756.75,758.86,-62.5,-957.52,354,-1.17,-0.05,-2.58,-104.12,4818,0,82,-2.48834,14.1268,-79.5276,7540.03,-10882.9,-2403.72,-136.845,-94.8113,0
24123,761.05,761.65,755.92,756.64,758.82,-67.38,-954.59,351.56,-2.81,-0.61,1.85,-104.5,4826,0,82,-2.61575,13.9828,-81.1216,7635.95,-10886.3,-2354.83,-134.202,-94.1317,0
24159,761,761.66,755.97,756.81,758.86,-66.89,-954.1,343.75,0.06,-2.15,-1.82,-105.68,4833,0,82,-2.57166,13.6269,-79.7416,7670.31,-10856.7,-2414.75,-136.151,-96.1941,0
24195,760.99,761.66,755.99,756.76,758.85,-62.99,-949.71,359.86,-0.71,0.27,1.21,-104.39,4840,0,82,-2.77444,13.8567,-80.8659,7667.85,-10868.5,-2352.69,-134.401,-94.8218,0
24232,760.99,761.75,755.95,756.81,758.88,-67.38,-958.5,370.61,-1.08,-1.87,-0.03,-106.78,4847,0,82,-2.86718,13.8702,-81.035,7580.48,-10913.3,-2420.69,-134.674,-93.5465,0
24268,760.97,761.7,756.04,756.76,758.87,-67.87,-956.54,359.86,-0.56,-0.92,0.63,-103.32,4855,0,82,-2.68985,14.1671,-80.8966,7473.19,-10940.4,-2439.93,-135.24,-92.3806,0
24306,760.99,761.67,755.94,756.82,758.86,-66.89,-962.4,352.05,-0.78,0.05,0.08,-106.68,4862,0,82,-2.6822,14.5359,-81.4492,7456.76,-10920.2,-2401.11,-134.074,-91.551,0
24342,761.04,761.65,755.97,756.68,758.84,-59.57,-962.89,349.61,-1.33,-0.21,-0.65,-103.65,4869,0,82,-2.53125,14.0828,-79.7521,7521.53,-10849.5,-2376.73,-136.042,-94.312,0
24378,761.05,761.62,755.9,756.82,758.85,-62.01,-963.38,359.37,0.54,1.27,-0.78,-107.32,4877,0,82,-2.77548,13.8342,-81.1917,7620.7,-10898.2,-2328.46,-134.228,-93.8606,0
24415,760.97,761.7,756.01,756.74,758.85,-67.87,-957.52,343.75,0.48,1.4,-1.77,-103.9,4884,0,82,-2.55283,13.5277,-80.2331,7648.8,-10801.5,-2342.68,-134.626,-95.3333,0
24451,761.07,761.76,755.94,756.85,758.9,-71.29,-956.05,354,0.5,-1.58,-0.25,-108.05,4891,0,82,-2.49336,13.7957,-81.2337,7616.83,-10895.7,-2354,-134.128,-93.7645,0
24490,761.01,761.71,756.04,756.84,758.9,-61.04,-967.29,350.59,-1.61,1.36,0.21,-104.73,4899,0,82,-2.54312,14.0235,-80.2042,7577.84,-10921.5,-2361.57,-136.17,-94.4821,0
24526,761.01,761.62,755.98,756.76,758.84,-59.57,-952.64,369.14,-0.78,2.48,0.92,-104.39,4906,0,82,-2.60105,14.4801,-81.1823,7559.48,-10947.1,-2485.36,-134.846,-93.1174,0
24562,761.05,761.77,756,756.81,758.91,-59.57,-962.4,350.59,0.79,1.06,-3.55,-105.82,4913,0,82,-2.53047,14.0454,-79.9448,7590.65,-10886.2,-2428.99,-136.179,-94.9547,0
24599,761.05,761.65,756.01,756.79,758.87,-60.06,-962.89,350.1,-1.21,-0.99,-0.51,-104.35,4921,0,82,-2.85583,13.8743,-80.8076,7633.72,-10957.1,-2520.71,-135.598,-94.4681,0
24635,761.07,761.76,755.93,756.75,758.88,-62.01,-953.61,350.1,-0.49,0.21,0.29,-106.79,4928,0,82,-2.24416,13.5506,-81.5724,7635.25,-10920.1,-2443.39,-133.87,-93.6014,0
24671,761,761.69,755.99,756.8,758.87,-73.24,-955.08,352.54,-0.29,-1.26,-0.16,-105.33,4935,0,82,-2.3732,13.6301,-79.1188,7627.46,-10858,-2294.47,-137.236,-96.4062,0
24709,761,761.77,755.92,756.73,758.86,-57.62,-944.34,345.7,-0.61,0.04,-2.19,-106.64,4943,0,82,-2.45614,13.633,-80.9687,7622.36,-10846.9,-2334.58,-133.964,-94.1386,0
24746,761.06,761.81,756.02,756.78,758.92,-78.61,-949.71,356.93,1.79,-1.1,1.45,-105.48,4950,0,82,-2.43282,13.8815,-80.4197,7601.47,-10882,-2422.28,-135.316,-94.5229,0
24782,761.02,761.8,755.99,756.8,758.9,-47.85,-956.05,358.89,0.92,0.73,-0.3,-106.09,4957,0,82,-2.60645,13.7242,-81.0149,7609.45,-10908.8,-2432.32,-134.652,-93.927,0
24818,761.03,761.69,756.02,756.8,758.88,-77.64,-956.54,353.52,-0.45,-1.43,-0.77,-104.54,4965,0,82,-2.47208,13.6787,-79.8973,7641.32,-10909.3,-2312.66,-136.546,-95.6426,0
24854,760.95,761.74,756.05,756.71,758.86,-74.71,-952.64,349.61,2.27,1.1,2.04,-102.79,4972,0,82,-2.32438,13.4906,-81.1183,7610.09,-10971.8,-2366.56,-135.257,-93.8147,0
24890,761.03,761.65,756,756.75,758.86,-63.96,-955.08,350.59,0.04,-2.53,-1.27,-103.92,4979,0,82,-2.4,13.6945,-80.1225,7588.7,-10911.8,-2257.51,-136.19,-94.7139,0
24929,761.03,761.7,755.95,756.75,758.86,-71.29,-955.57,354,0.5,1.19,1.24,-105.61,4987,0,82,-2.613,13.3304,-81.0052,7584.44,-10911.1,-2298.1,-134.696,-93.6294,0
24965,761.04,761.7,755.96,756.75,758.86,-70.31,-955.57,363.28,0.31,-0.83,-1.37,-105.5,4994,0,82,-2.79505,13.5816,-79.6563,7606.18,-10963.8,-2394.96,-137.644,-95.4931,0
25002,761,761.74,756.01,756.76,758.88,-57.13,-946.29,353.52,0.28,-1.11,-1.43,-104.55,5001,0,82,-2.69443,13.7553,-80.6664,7570.24,-10986.7,-2329.51,-136.199,-93.8464,0
25038,761,761.65,755.99,756.8,758.86,-66.89,-954.1,339.36,-1.56,1.57,2.33,-104.83,5009,0,82,-2.66787,13.8548,-80.7785,7566.99,-10994.2,-2367.1,-136.129,-93.6993,0
25074,761.07,761.73,755.98,756.76,758.89,-57.13,-961.43,351.07,-0.47,0.16,-1.23,-105.38,5016,0,82,-2.20035,13.6732,-78.9474,7574.57,-10920,-2323.78,-138.32,-95.9446,0
25110,761.03,761.66,756,756.72,758.85,-71.78,-962.4,357.91,-1.09,0.08,-3.47,-103.71,5023,0,82,-2.0928,13.6008,-81.3903,7559.75,-10957.6,-2461.28,-134.632,-92.8832,0
25149,761.07,761.72,756.04,756.78,758.9,-66.41,-946.78,356.45,-0.21,1.85,-0.12,-104.22,5031,0,82,-2.09275,13.7574,-80.516,7594.64,-10891.7,-2423.09,-135.274,-94.3263,0
25186,761.04,761.7,755.97,756.7,758.85,-80.08,-947.27,356.45,-0.92,1.18,-1.76,-104.62,5038,0,82,-2.24447,13.6443,-81.3444,7620.98,-10885.9,-2338.35,-133.824,-93.6879,0
25222,761.12,761.73,756.02,756.79,758.92,-65.92,-948.24,357.42,-0.06,0.89,0.93,-104.97,5045,0,82,-2.47389,13.8397,-79.7431,7618.01,-10923.1,-2508.17,-136.979,-95.532,0
25258,761.04,761.74,755.98,756.77,758.88,-69.34,-946.78,356.93,-1.82,0.39,-1.09,-105.49,5053,0,82,-2.89252,13.6343,-81.6091,7643.9,-10994.8,-2483.89,-134.728,-93.6666,0
25294,761.08,761.75,756.03,756.81,758.92,-72.27,-960.45,363.77,-1.29,-0.44,1.72,-105.2,5060,0,82,-2.80438,13.7978,-80.4841,7619.89,-11032.9,-2452.61,-137.081,-94.6752,0
25333,761.11,761.77,755.93,756.75,758.89,-63.96,-948.73,352.54,-0.72,-1.44,-1.72,-106.91,5068,0,82,-2.54812,13.8288,-81.2947,7618.2,-10960.9,-2387.24,-134.83,-93.7114,0
25369,761.16,761.76,756.01,756.73,758.91,-66.41,-970.7,358.4,-1.09,0.09,-0.63,-104.66,5075,0,82,-2.59148,13.6352,-80.5949,7647.56,-10940.4,-2497.6,-135.745,-94.8887,0
25405,761.06,761.74,756,756.71,758.87,-56.15,-942.38,340.33,-1.09,1.27,-0.87,-104.35,5082,0,82,-2.69973,13.4311,-81.6261,7652.58,-10982.8,-2495.96,-134.553,-93.7528,0
25442,761.05,761.76,755.98,756.8,758.9,-73.73,-956.54,363.77,0.7,-1.67,0.63,-106.18,5089,0,82,-2.42521,13.6602,-80.7761,7617.03,-10878,-2428.42,-134.699,-94.3189,0
25478,761.05,761.78,755.99,756.73,758.89,-57.13,-945.8,357.91,-0.82,-0.44,0.3,-105.07,5097,0,82,-2.26033,13.9022,-81.1749,7648.41,-10971,-2387.89,-135.153,-94.223,0
25514,761.05,761.73,756.02,756.84,758.91,-60.55,-973.14,351.07,0.08,0.4,-3.58,-105.55,5104,0,82,-2.47855,13.9452,-80.904,7603.72,-10961.5,-2426.57,-135.493,-93.9941,0
25552,761.1,761.8,755.97,756.79,758.92,-66.89,-952.15,337.89,-1.12,-2.88,2.24,-106.86,5111,0,82,-2.41378,14.0113,-80.339,7582.5,-10943.4,-2432.08,-136.22,-94.3855,0
25588,761.08,761.84,756.04,756.79,758.94,-65.92,-952.15,360.84,-0.25,0.66,0.29,-105.43,5119,0,82,-2.4682,14.0019,-81.3393,7617.57,-11026.9,-2508.5,-135.568,-93.6529,0
25624,761.06,761.77,756.04,756.79,758.92,-64.45,-957.52,354.49,-1.32,-2.29,0.14,-104.68,5126,0,82,-2.25626,13.7307,-80.5931,7653.7,-10995.7,-2444.85,-136.435,-94.9682,0
25660,761.12,761.78,755.97,756.77,758.91,-74.71,-957.03,360.35,0.64,-0.58,0.82,-106.42,5133,0,82,-2.07746,14.1288,-81.9175,7648.49,-10986,-2400.06,-134.111,-93.3683,0
25696,761.09,761.8,755.98,756.75,758.91,-73.73,-954.59,353.52,-0.02,-1.37,1.16,-106.05,5140,0,82,-2.0523,14.2242,-80.8022,7597.93,-11044.7,-2402.82,-136.69,-94.0349,0
25732,761.04,761.86,756,756.82,758.93,-77.15,-955.57,354.49,-0.91,0.93,-1.11,-106.71,5147,0,82,-2.35782,13.9781,-81.4127,7575.26,-11042.2,-2432.1,-135.633,-93.048,0
25771,761.17,761.82,756.04,756.73,758.94,-63.48,-965.82,350.59,-1.02,1.64,-1.96,-104.59,5155,0,82,-2.44313,14.144,-80.9718,7568.66,-11066.5,-2576.55,-136.672,-93.4727,0
25806,761.18,761.89,755.94,756.77,758.95,-64.94,-948.24,351.56,-0.6,2.27,-0.59,-108.34,5162,0,82,-2.58732,14.24,-82.0652,7641.18,-11083.9,-2578.81,-135.064,-93.1099,0
25842,761.12,761.83,756.03,756.83,758.95,-62.99,-966.31,349.61,-0.29,-1.37,-1.73,-106.14,5169,0,82,-2.61839,13.7597,-80.9491,7603.84,-11062.4,-2494.99,-136.669,-93.9432,0
25878,761.17,761.88,755.96,756.78,758.95,-59.08,-965.33,360.84,0.9,2.96,-0.69,-107.82,5177,0,82,-2.31616,14.2998,-82.0186,7649.54,-11094.4,-2480.33,-135.268,-93.2667,0
25914,761.19,761.91,756.04,756.86,759,-64.45,-947.75,352.54,-1.03,0.95,-3.66,-107.26,5184,0,82,-2.37987,13.9726,-81.947,7629.19,-11041.1,-2444.82,-134.749,-93.1042,0
25950,761.17,761.84,756.12,756.83,758.99,-67.87,-955.57,344.24,-1,-1.63,0.1,-104.24,5191,0,82,-2.47458,14.3929,-80.7241,7647.88,-11110.6,-2419.86,-137.637,-94.7413,0
25988,761.16,761.81,756.05,756.9,758.98,-54.69,-964.36,361.33,0.62,-1.09,-0.34,-106.79,5199,0,82,-2.33618,14.2587,-82.6096,7625.68,-11055.6,-2421.37,-133.83,-92.3102,0
26024,761.19,761.84,756.14,756.85,759,-72.27,-955.57,358.89,0.24,0.46,-0.18,-103.98,5206,0,82,-2.57159,14.0679,-81.0844,7656.38,-11072.7,-2401.52,-136.558,-94.425,0
26060,761.16,761.9,756.06,756.9,759,-65.92,-960.94,351.07,-1.74,0.27,2.24,-107.05,5213,0,82,-2.53569,13.9477,-82.0816,7621.59,-11138.7,-2429.68,-135.703,-92.8539,0
26096,761.19,761.85,756.04,756.88,758.99,-60.55,-943.85,352.05,0.05,-0.08,-2.75,-107.04,5220,0,82,-2.65918,14.2817,-81.3102,7622.19,-11088.8,-2394.64,-136.377,-93.7421,0
26132,761.09,761.78,756.03,756.85,758.94,-59.57,-957.52,355.96,-1.48,1.92,0.33,-105.91,5227,0,82,-2.46205,13.757,-82.3342,7616.06,-11085.6,-2548.43,-134.641,-92.5016,0
26169,761.12,761.83,756.02,756.9,758.96,-83.5,-956.54,362.3,-1.19,-1.66,-0.89,-107.46,5235,0,82,-2.50529,14.0923,-81.4651,7644,-11073,-2478.9,-135.923,-93.8316,0
26208,761.13,761.85,756.06,756.91,758.99,-62.01,-958.01,362.79,-0.9,-0.41,-0.73,-106.75,5243,0,82,-2.35096,14.075,-82.3402,7624.92,-11047.9,-2453.16,-134.175,-92.6037,0
26244,761.16,761.86,756.06,756.87,758.99,-62.01,-959.47,353.03,-1.43,1.99,-0.2,-106.3,5250,0,82,-2.3407,14.1864,-80.5836,7618.8,-11090,-2581.02,-137.621,-94.5449,0
26280,761.14,761.88,756.06,756.93,759,-67.38,-961.91,358.4,-0.3,-0.94,-1.89,-107.24,5257,0,82,-2.30568,14.0758,-81.4311,7642.15,-11045,-2533.3,-135.638,-93.8492,0
26316,761.14,761.81,755.96,756.88,758.95,-64.94,-953.61,355.47,0.8,-2.19,-0.85,-108.67,5264,0,82,-2.35657,14.1417,-81.8769,7626.93,-11099.8,-2387.88,-135.567,-93.1513,0
26352,761.14,761.88,755.96,756.88,758.97,-67.87,-954.59,357.42,0.15,0.64,1.33,-109.05,5271,0,82,-2.21889,14.2466,-81.9889,7654.29,-11060.5,-2431.77,-134.902,-93.3581,0
26390,761.12,761.83,756.05,756.86,758.97,-72.75,-962.4,351.07,-0.52,0.68,-0.24,-106.18,5279,0,82,-2.30722,14.1131,-82.4564,7625.76,-11078.3,-2382.46,-134.353,-92.4824,0
26427,761.14,761.91,756.06,756.84,758.99,-60.06,-949.22,363.77,0.29,-0.88,0.02,-106.32,5286,0,82,-2.38782,14.2902,-81.8383,7669.22,-11124,-2511.35,-135.927,-93.7123,0
26463,761.1,761.85,755.99,756.88,758.96,-70.8,-957.52,349.12,-1.43,-1.85,-0.56,-107.98,5294,0,82,-2.28646,14.4048,-82.4004,7653.04,-11119.1,-2436.2,-134.941,-92.8771,0
26499,761.15,761.86,755.95,756.84,758.95,-66.89,-957.52,361.33,-2.33,0.27,0.69,-108.73,5301,0,82,-2.37698,14.1208,-81.4254,7638.65,-11081,-2489.21,-136.088,-93.8116,0
26535,761.12,761.9,756,756.87,758.97,-67.87,-968.26,356.93,-1.96,-1.95,0.53,-107.99,5308,0,82,-2.52148,13.9826,-82.2082,7624.61,-11079.5,-2484.46,-134.774,-92.7476,0
26571,761.06,761.88,756.01,756.9,758.96,-53.22,-953.12,356.93,1.76,0.65,-1.01,-107.82,5315,0,82,-2.28942,14.0428,-81.1909,7619.39,-11058.2,-2566.15,-136.2,-93.8452,0
26609,761.1,761.84,756.04,756.89,758.97,-66.41,-959.47,355.47,0.28,1.23,-1.02,-106.98,5323,0,82,-2.3226,14.3993,-82.2281,7642.87,-11081.7,-2484.36,-134.768,-92.9472,0
26645,761.16,761.87,756.06,756.87,758.99,-70.8,-961.43,351.56,-0.53,0.14,-0.18,-106.4,5330,0,82,-2.40832,14.3345,-80.2241,7645.97,-11074.9,-2419.68,-138.054,-95.3121,0
26682,761.07,761.92,756.11,756.84,758.98,-63.48,-956.54,342.77,-0.39,1.02,2.21,-105,5337,0,82,-2.61255,14.3199,-81.6826,7611.01,-11082,-2483.77,-135.671,-93.1778,0
26718,761.18,761.98,756.04,756.85,759.01,-67.87,-953.61,367.68,-0.53,-0.55,0.25,-107.7,5345,0,82,-2.44665,14.2347,-81.7722,7662.33,-11163.8,-2495.3,-136.532,-93.7071,0
26754,761.2,761.92,756.03,756.87,759.01,-66.41,-959.96,354.49,0.99,2.21,0.69,-107.81,5352,0,82,-2.40797,14.1782,-82.1086,7648,-11175.1,-2425.87,-136.101,-93.145,0
26790,761.24,761.94,756.01,756.91,759.02,-55.66,-962.89,353.03,-2.47,-0.18,0.5,-109.25,5359,0,82,-2.68139,14.1326,-82.4094,7674.81,-11161.2,-2451.23,-135.437,-93.1301,0
26828,761.15,761.87,756.1,756.9,759.01,-82.03,-946.78,365.23,-0.54,-1.98,-1.71,-106.04,5367,0,82,-2.97742,14.5328,-82.2752,7680.84,-11121.7,-2503.49,-135.181,-93.3582,0
26864,761.15,761.9,756.02,756.93,759,-53.71,-945.31,364.26,0.02,-0.12,0.18,-108.71,5374,0,82,-2.67671,14.346,-82.3813,7691.99,-11169.1,-2479.8,-135.579,-93.3709,0
26901,761.22,761.95,756.08,756.96,759.05,-66.89,-963.38,357.91,-0.85,3.42,-0.64,-108.03,5381,0,82,-3.05975,14.1819,-81.6444,7621.3,-11095.7,-2465.09,-135.903,-93.3479,0
26937,761.12,761.95,756.05,756.89,759.01,-69.82,-967.29,360.35,-1.43,0.02,-0.6,-107.51,5388,0,82,-2.79749,13.8829,-81.8474,7664.25,-11103.8,-2443.9,-135.667,-93.6426,0
26973,761.12,761.92,756.06,756.9,759,-64.45,-957.03,365.72,-0.98,3.03,-1.21,-107.08,5396,0,82,-3.0198,13.9868,-81.1272,7636.91,-11101.4,-2417.98,-136.841,-94.135,0
27009,761.21,761.95,756.1,756.93,759.05,-62.01,-953.12,350.59,-1.64,0.32,1.56,-107.25,5403,0,82,-3.22084,14.1863,-82.514,7693.84,-11054.3,-2408.71,-133.969,-93.2427,0
27048,761.19,761.94,756.1,756.87,759.03,-66.89,-958.5,356.93,-0.56,0.48,1.84,-106.14,5411,0,82,-2.71522,14.0018,-80.9845,7655.02,-11077.6,-2402.9,-136.789,-94.5255,0
27084,761.16,761.88,756.11,756.92,759.02,-61.52,-961.91,355.47,0.85,0.52,-1.19,-105.92,5418,0,82,-2.7665,14.1831,-82.1969,7669.14,-11083.4,-2492.09,-134.842,-93.3028,0
27121,761.16,762.01,756.03,756.89,759.02,-74.22,-954.59,348.14,-0.7,-1.45,-0.8,-108.52,5425,0,82,-3.02138,14.0531,-82.0193,7699.35,-11122.9,-2440.15,-135.637,-93.8914,0
27157,761.18,761.94,756.02,756.88,759,-51.76,-960.45,363.77,-1.23,0.12,0.41,-108.42,5432,0,82,-3.04047,14.1555,-82.2037,7697.5,-11081,-2496.81,-134.8,-93.638,0
27193,761.16,761.94,756.07,756.88,759.01,-78.61,-953.61,351.56,-0.97,-0.47,-1.16,-106.87,5440,0,82,-2.58376,13.876,-80.3959,7581.68,-11047.7,-2506.16,-137.427,-94.3146,0
27231,761.11,761.93,756.09,756.9,759.01,-67.38,-954.59,355.47,0.79,3.04,-3.37,-106.44,5447,0,82,-2.8308,14.1102,-81.6758,7586.98,-11101.5,-2546.95,-135.922,-92.8913,0
27267,761.12,762.05,756.11,757.01,759.07,-64.45,-953.61,350.59,-0.85,0.34,-0.79,-108.68,5454,0,82,-2.74165,14.3516,-82.1347,7602.47,-11047.1,-2512.42,-134.5,-92.562,0
27303,761.05,762.08,756.21,756.94,759.07,-53.71,-952.15,345.21,-0.37,1.32,0.11,-105.05,5462,0,82,-2.9309,14.168,-81.683,7544.69,-11010.1,-2520.49,-134.791,-92.3655,0
27339,761.05,761.99,756.14,756.92,759.03,-71.78,-955.57,344.73,2.11,0.72,-1.22,-105.85,5469,0,82,-2.84563,14.3428,-82.3648,7492.39,-11021.9,-2419.86,-133.821,-90.9675,0
27375,761.1,762.08,756.11,756.97,759.07,-71.78,-941.89,350.59,-0.04,2.3,2.29,-108.14,5476,0,82,-2.84282,14.1725,-81.2201,7461.27,-11000.8,-2573.76,-135.444,-91.8648,0
27411,761.15,762.08,756.11,756.88,759.06,-69.34,-958.98,358.89,-0.29,1.11,-3.49,-107.12,5483,0,82,-2.66382,14.1468,-82.4293,7584.35,-11062.5,-2527.02,-134.207,-92.0104,0
27449,761.11,762.02,756.08,756.95,759.04,-66.89,-958.01,353.52,0.44,-0.25,-0.73,-108.27,5491,0,82,-2.99023,14.3467,-81.2317,7533.45,-11044.3,-2466.54,-135.96,-92.7412,0
27485,761.14,762,756.09,756.88,759.03,-68.36,-971.19,352.54,-0.76,1.19,-0.01,-106.84,5498,0,82,-3.02899,14.2907,-80.7907,7547.19,-11058.5,-2440.08,-136.879,-93.4165,0
27521,761.14,761.98,756.1,756.91,759.03,-54.69,-958.01,354.49,-0.42,0.97,-1.91,-106.78,5505,0,82,-2.70987,14.276,-81.2378,7578.87,-11131.6,-2577.63,-137.036,-93.3053,0
27557,761.18,761.98,756.07,756.97,759.05,-74.22,-957.52,361.33,1.3,-2.34,0.49,-108.52,5512,0,82,-2.67716,14.2344,-81.5122,7562.3,-11090.6,-2394.7,-136.06,-92.7751,0
27593,761.16,762.04,756.04,756.93,759.04,-60.55,-958.5,348.14,-1.69,3.97,-2.25,-109.17,5520,0,82,-2.70611,13.9113,-82.207,7611.75,-11067.5,-2521.97,-134.629,-92.5929,0
27629,761.19,761.96,756.1,757.01,759.07,-78.12,-954.59,358.4,0.34,-0.78,-0.76,-108.27,5527,0,82,-2.78217,13.8337,-81.7813,7596.55,-11019.8,-2523.96,-134.746,-92.8875,0
27679,761.22,761.96,756.07,756.94,759.05,-66.89,-946.78,352.05,0.31,2.47,-1.07,-108.2,5537,0,82,-2.50118,13.9224,-80.7509,7529.8,-11047.8,-2471.37,-136.823,-93.2554,0
27715,761.21,761.97,756.08,756.93,759.05,-61.04,-962.89,354,0.92,-0.18,-0.29,-107.78,5544,0,82,-2.80549,13.8018,-81.6183,7671.23,-11084.7,-2456,-135.815,-93.9883,0
27751,761.21,761.97,756.08,756.99,759.06,-59.08,-951.66,350.59,-1.18,-0.02,-1.62,-108.78,5551,0,82,-2.53644,13.818,-82.1387,7626.94,-11085.6,-2384.25,-134.962,-92.8543,0
27787,761.17,762.02,756.09,756.94,759.05,-63.96,-957.52,351.56,-0.4,-0.31,-1.5,-107.97,5558,0,82,-2.45045,14.037,-81.2602,7631.33,-11057.9,-2410.4,-136.081,-93.9123,0
27823,761.2,762.01,756.03,756.95,759.05,-72.27,-958.98,358.4,0.2,-0.55,-0.05,-109.58,5566,0,82,-2.68097,13.9421,-82.2086,7597.9,-11082.4,-2400.22,-134.808,-92.4218,0
27859,761.19,761.98,756.09,756.99,759.06,-53.22,-952.15,354.49,0.49,-0.74,-0.3,-108.56,5573,0,82,-2.5094,14.0522,-81.3025,7594.53,-11090,-2494,-136.406,-93.4112,0
27900,761.21,761.98,756.07,757,759.07,-74.71,-953.12,344.73,0.58,-0.53,-0.14,-109.21,5581,0,82,-2.64359,14.0555,-82.3629,7643.49,-11068.2,-2412.08,-134.386,-92.8052,0
27936,761.2,761.99,756.09,756.99,759.07,-73.73,-961.43,351.07,-0.52,-0.31,-0.59,-108.52,5588,0,82,-2.65769,13.7959,-80.9114,7614.19,-11030.3,-2612.09,-136.326,-94.1049,0
27973,761.21,761.98,756.06,756.95,759.05,-56.15,-950.68,354.49,-0.51,0.2,-1.56,-108.77,5596,0,82,-2.77769,13.8132,-82.0145,7643.86,-11066.4,-2423.83,-134.933,-93.2016,0
28009,761.21,761.99,756.12,756.98,759.08,-73.73,-953.61,340.33,-0.79,-0.13,-0.89,-107.72,5603,0,82,-2.11382,13.8173,-81.3151,7645.56,-11084.3,-2501.41,-136.314,-94.0233,0
28045,761.24,762.04,756.07,756.92,759.07,-58.11,-945.31,360.84,-1.63,1.53,-1.61,-108.6,5610,0,82,-2.51008,13.861,-82.0935,7635.77,-11048.5,-2452.16,-134.585,-93.0131,0
28085,761.21,762.03,756.07,756.99,759.07,-59.57,-955.08,359.86,-0.27,-1.24,-0.68,-109.53,5618,0,82,-2.53517,13.6915,-80.7324,7634.74,-11083.5,-2439.13,-137.288,-94.57,0
28122,761.23,762.02,756.14,757.05,759.11,-69.34,-959.96,350.1,0.53,1.47,-0.34,-108.49,5625,0,82,-2.68219,13.8602,-82.1517,7680.26,-11018.1,-2404.25,-134.118,-93.4888,0
28159,761.16,761.99,756.14,756.95,759.06,-62.01,-958.98,353.52,-0.47,-0.83,-0.67,-106.63,5633,0,82,-2.44592,14.1554,-81.5617,7627.94,-11046,-2686.78,-135.438,-93.5284,0
28195,761.15,762.05,756.09,756.94,759.06,-69.82,-961.91,355.96,0.4,1.47,-1.72,-108.26,5640,0,82,-2.8497,14.1063,-81.6009,7619.42,-11091.8,-2505.35,-135.933,-93.3767,0
28232,761.17,762.07,756.11,757.03,759.09,-65.43,-957.03,353.03,-0.89,0.47,-2.18,-109.26,5647,0,82,-2.77542,14.0063,-82.486,7654.06,-11067.6,-2578.81,-134.181,-92.7937,0
28269,761.18,762.06,756.11,756.99,759.09,-65.43,-949.71,351.56,-0.5,0.16,-2.59,-108.6,5655,0,82,-2.7816,14.1502,-81.8266,7646.1,-11086.8,-2677.32,-135.492,-93.4434,0
28308,761.18,761.99,756.05,757.05,759.07,-61.04,-954.1,356.93,0.86,1.46,0.05,-110.49,5663,0,82,-2.66152,14.082,-82.4555,7622.2,-11057.9,-2590.27,-134.108,-92.4402,0
28345,761.18,762.02,756.09,756.97,759.06,-56.64,-950.68,365.72,-2.11,0.92,-0.54,-108.62,5670,0,82,-2.79487,14.0242,-81.3379,7659.58,-11028.9,-2569.66,-135.594,-94.1706,0
28381,761.19,762.08,756.11,757.06,759.11,-72.27,-958.98,343.26,-0.44,2,-2.26,-110,5677,0,82,-2.80406,14.0084,-82.7037,7663.91,-11126,-2544.95,-134.529,-92.667,0
28418,761.14,762.05,756.11,756.98,759.07,-76.17,-946.78,353.52,-0.59,-0.05,-0.12,-108.37,5685,0,82,-2.63724,14.2189,-81.1704,7591.31,-11052.8,-2593.72,-136.17,-93.5249,0
28454,761.18,762.07,756.17,756.94,759.09,-63.96,-955.08,353.52,0.95,1.85,-2.45,-106.34,5692,0,82,-2.75247,14.3769,-81.4605,7572.52,-11078.6,-2558.8,-136,-92.9596,0
28491,761.18,762.04,756.11,757.01,759.09,-62.01,-958.01,361.33,0.48,1.17,-0.6,-108.69,5699,0,82,-2.80608,14.0957,-80.9943,7583.69,-11045.9,-2566.12,-136.379,-93.6325,0
28531,761.2,762.1,756.12,756.97,759.1,-62.5,-956.54,355.96,-0.98,0.42,0.84,-108.57,5707,0,82,-2.64785,13.9065,-81.7225,7544.06,-10995.8,-2473.59,-134.552,-92.3128,0
28567,761.18,762.09,756.18,756.96,759.1,-65.92,-954.1,353.52,0.47,0.93,-0.58,-106.62,5714,0,82,-2.54371,14.0578,-79.9813,7606.25,-10958.2,-2410.51,-137.013,-95.1087,0
28604,761.18,762.05,756.1,756.99,759.08,-66.89,-947.27,353.03,-0.69,0.08,0.2,-108.75,5722,0,82,-2.30766,13.8061,-82.1204,7553.64,-11000.6,-2519.41,-133.957,-91.9823,0
28641,761.15,762.07,756.13,756.99,759.08,-66.41,-963.87,352.05,-1.5,2.11,-0.72,-108.1,5729,0,82,-2.74897,13.9309,-80.2113,7539.01,-10977.7,-2455.2,-136.862,-93.9934,0
28677,761.19,762.06,756.13,757,759.09,-52.25,-962.4,344.73,-1.19,-0.17,0.2,-108.12,5736,0,82,-2.67785,14.3213,-81.9327,7579.94,-10996.8,-2536.81,-134.217,-92.5143,0
28714,761.18,762.09,756.07,756.97,759.08,-63.48,-950.2,359.37,0.61,0.55,-0.5,-109.58,5744,0,82,-2.64179,14.0754,-81.4016,7551.4,-11004.7,-2672.16,-135.204,-92.7778,0
28754,761.17,762.13,756.1,757,759.1,-53.71,-953.12,349.61,0.82,-0.47,-2.55,-109.43,5752,0,82,-2.55799,13.9911,-81.567,7599.18,-11051.8,-2537.01,-135.493,-93.1645,0
28790,761.26,762.09,756.13,756.96,759.11,-78.61,-956.05,360.84,1.33,-0.73,-0.44,-108.19,5759,0,82,-2.66558,13.9473,-82.707,7573.41,-11029.6,-2606.17,-133.357,-91.5691,0
28827,761.17,762.13,756.19,757.06,759.14,-66.41,-962.89,353.52,-0.11,1.39,0,-108.13,5766,0,82,-2.65958,13.8137,-81.2758,7537.78,-11051.9,-2606.96,-135.982,-92.7441,0
28864,761.21,762.07,756.17,757.05,759.13,-69.82,-951.66,364.26,-0.15,2.35,-1.91,-108.15,5774,0,82,-2.55479,14.1655,-81.8894,7592.44,-11019.4,-2645.08,-134.567,-92.7156,0
28900,761.23,762.04,756.16,757.02,759.11,-60.55,-952.64,359.86,0.18,1.38,-1.06,-107.72,5781,0,82,-2.38635,13.8786,-81.5625,7534.22,-11043.7,-2546.22,-135.401,-92.3739,0
28940,761.2,762.09,756.13,757.05,759.12,-76.17,-955.08,347.66,0.93,0.76,-1.06,-109.29,5789,0,82,-2.58633,14.0297,-81.9781,7566.82,-10969.4,-2408.67,-133.812,-92.3038,0
28976,761.16,762.11,756.13,757.08,759.12,-54.2,-957.03,344.73,-2.32,-2.2,0.36,-109.83,5796,0,82,-2.59258,14.035,-79.8415,7531.72,-10963.6,-2435.27,-137.318,-94.3345,0
29013,761.22,762.1,756.15,757.06,759.13,-67.38,-953.12,354.98,-1.34,-2.08,-1.51,-109.02,5804,0,82,-2.8471,13.9416,-82.2571,7605.87,-11000.3,-2591.43,-133.731,-92.4646,0
29050,761.21,762.1,756.19,757.03,759.13,-69.82,-948.73,360.35,-1.36,-0.01,2.42,-107.56,5811,0,82,-2.56399,14.2462,-80.9505,7566.1,-11010.8,-2472.28,-136.019,-93.4657,0
29087,761.24,762.14,756.12,757.08,759.14,-60.06,-955.08,352.54,-0.13,-0.76,0.5,-110.66,5818,0,82,-2.68576,14.1484,-81.7582,7558.83,-10963.5,-2460.38,-134.096,-92.4535,0
29124,761.25,762.14,756.16,757.02,759.14,-69.34,-953.61,356.45,0.85,1.25,-0.82,-108.68,5826,0,82,-2.33998,14.1019,-80.7508,7584.83,-11072.4,-2538.65,-137.121,-93.9305,0
29163,761.19,762.07,756.16,757.05,759.12,-54.69,-961.91,351.56,-0.24,-0.42,1.05,-108.34,5834,0,82,-2.31057,13.9578,-82.1403,7597.46,-11051.7,-2588.28,-134.547,-92.4939,0
29200,761.27,762.07,756.2,757.03,759.14,-62.5,-969.73,364.26,-0.5,1.86,-0.53,-107.34,5841,0,82,-2.40666,13.9968,-80.8864,7581.68,-11055.1,-2436.75,-136.675,-93.7326,0
29237,761.25,762.03,756.16,757.06,759.13,-66.89,-952.15,352.54,-0.33,1.76,-1.11,-108.51,5848,0,82,-2.18956,13.9089,-81.8058,7572.19,-11074.2,-2516.19,-135.375,-92.5657,0
29274,761.24,762.11,756.2,757,759.14,-81.54,-949.71,349.12,-0.66,0.83,0.04,-107.19,5856,0,82,-2.65749,14.2772,-82.7548,7611.33,-11078.2,-2399.94,-133.867,-91.9745,0
29310,761.2,762.11,756.09,757.12,759.13,-67.38,-954.59,353.52,0.66,-1.98,-2.28,-111.51,5863,0,82,-2.46377,14.2609,-82.3808,7631.62,-11075.9,-2488.49,-134.449,-92.6385,0
29347,761.18,762.04,756.12,757.09,759.11,-60.06,-956.54,350.59,-0.19,1.67,-1.95,-109.74,5870,0,82,-2.40421,14.3438,-82.7196,7651.71,-11065.7,-2388.02,-133.774,-92.5022,0
29386,761.2,762.11,756.2,757.09,759.15,-59.08,-963.87,357.91,0.56,0.89,-0.59,-108.29,5878,0,82,-2.55102,14.2361,-82.0875,7631.02,-11110.5,-2424.89,-135.353,-92.9647,0
29423,761.25,762.06,756.15,757.07,759.13,-62.01,-962.4,358.89,0.01,0.14,0.6,-109.16,5886,0,82,-2.31806,14.1047,-82.4821,7611.31,-11071.5,-2482.39,-134.23,-92.2791,0
29459,761.24,762.16,756.14,757.01,759.14,-64.45,-954.59,359.86,1.24,1.27,0.66,-109.2,5893,0,82,-2.41373,14.1512,-81.215,7618.21,-11092.3,-2539.14,-136.582,-93.8032,0
29496,761.22,762.08,756.24,757.11,759.16,-67.38,-957.52,345.7,-1.33,-1.22,0.45,-107.4,5900,0,82,-2.32376,14.0867,-81.8048,7636.98,-11076.3,-2555.05,-135.399,-93.3561,0
29533,761.21,762.07,756.1,757.07,759.11,-70.31,-958.98,355.96,-0.28,0.12,-1.55,-110.21,5908,0,82,-2.24323,13.8402,-81.7952,7601.47,-11090.5,-2442.8,-135.589,-92.933,0
29569,761.28,762.18,756.18,757.09,759.18,-59.08,-954.1,352.05,-0.31,-2.47,-1.77,-109.67,5915,0,82,-2.51643,13.9371,-82.134,7629.05,-11081.4,-2417.91,-134.919,-92.8855,0
29609,761.21,762.11,756.12,757.12,759.14,-65.92,-958.5,355.96,-0.25,0.11,-1.58,-110.9,5923,0,82,-2.53777,13.8875,-80.9243,7609.62,-11103.8,-2440.82,-137.214,-94.0356,0
29645,761.25,762.13,756.13,757.03,759.14,-61.52,-946.29,345.7,-0.69,1.69,0,-109.41,5930,0,82,-2.47093,13.8843,-82.3493,7648.87,-11054.2,-2547.35,-134.235,-92.8833,0
29682,761.33,762.22,756.17,757.08,759.2,-66.41,-954.59,349.61,-1.79,-0.04,-0.81,-110.26,5937,0,82,-2.43721,13.7682,-81.537,7613.86,-11105.5,-2410.47,-136.21,-93.3854,0
29718,761.2,762.12,756.19,757.08,759.15,-57.13,-955.57,356.45,0.7,-0.88,0.34,-108.6,5945,0,82,-2.35871,13.6588,-82.5817,7614.25,-11101.3,-2331.46,-134.429,-92.2035,0
29754,761.31,762.12,756.16,757.13,759.18,-65.43,-961.43,351.56,0.57,2.11,0.32,-110.41,5952,0,82,-2.06835,13.7351,-82.0944,7626.7,-11090.7,-2482.83,-135.118,-92.9118,0
29791,761.28,762.15,756.18,757.1,759.18,-75.68,-964.36,365.72,-2.28,0.13,0.73,-109.53,5959,0,82,-2.26907,14.1407,-81.709,7664.87,-11015.5,-2495.86,-134.813,-93.8077,0
29830,761.28,762.12,756.13,757.1,759.16,-70.8,-957.03,350.59,-2.05,0.28,-2.18,-110.6,5967,0,82,-2.55628,14.0576,-82.6471,7647.08,-11047.8,-2363.56,-133.676,-92.5269,0
29867,761.24,762.22,756.13,757.12,759.18,-72.27,-956.54,354.49,-1.85,-0.36,-0.82,-111.57,5974,0,82,-2.23319,13.7783,-81.9647,7621.2,-11126.5,-2465.4,-135.747,-92.9815,0
29903,761.25,762.12,756.2,757.08,759.16,-69.82,-950.68,355.47,-0.91,1.76,-0.05,-108.39,5982,0,82,-2.00228,13.9355,-81.6881,7646.34,-11049.7,-2543.57,-135.267,-93.6037,0
29940,761.28,762.17,756.22,757.08,759.19,-73.73,-947.27,368.65,0.05,1.81,-1.18,-108.51,5989,0,82,-2.22108,13.8126,-81.601,7573.97,-11036.1,-2423.12,-135.245,-92.8175,0
29977,761.32,762.09,756.23,757.12,759.19,-62.01,-942.38,356.93,-1.02,-2.34,0.9,-108.23,5996,0,82,-2.65243,13.8773,-82.6299,7601.75,-11051.5,-2380.75,-133.747,-91.9976,0
30017,761.2,762.13,756.1,757.07,759.13,-75.68,-951.66,359.86,-0.66,2.31,1.1,-110.64,6004,0,82,-2.65666,13.7836,-81.6803,7611.87,-11052.3,-2386.09,-135.317,-93.1938,0
30054,761.3,762.12,756.19,757.06,759.17,-58.59,-948.24,358.89,-0.07,3.31,-1.11,-108.56,6012,0,82,-2.32673,13.8843,-82.6787,7586.32,-11068.3,-2404.07,-133.871,-91.7566,0
30090,761.26,762.13,756.19,757.08,759.16,-62.01,-964.36,354.49,-2.26,-1.8,-0.1,-108.78,6019,0,82,-2.4371,14.0166,-81.3773,7574.05,-11062.7,-2381.2,-135.944,-93.0736,0
30127,761.32,762.14,756.15,757.12,759.18,-58.59,-947.27,364.75,1.18,-1.25,-0.65,-110.68,6026,0,82,-2.53018,14.3221,-81.4589,7616.02,-11076.1,-2332.8,-135.972,-93.4948,0
30164,761.29,762.2,756.11,757.08,759.17,-71.29,-964.36,350.59,-1.16,1.51,-1.67,-111.48,6034,0,82,-2.37454,14.1361,-80.6158,7599.48,-11048.7,-2308.57,-137.058,-94.2746,0
30200,761.25,762.13,756.18,757.05,759.15,-71.78,-971.68,357.91,-0.51,-1.77,0.02,-108.48,6041,0,82,-2.36065,14.462,-82.1296,7575.52,-11118.8,-2365.14,-135.381,-92.2385,0
30240,761.23,762.17,756.11,757.05,759.14,-77.64,-969.24,357.91,-0.99,0.02,-4.44,-110.62,6049,0,82,-2.69227,14.2977,-81.8152,7537.45,-11014.9,-2363.06,-134.642,-92.1344,0
30277,761.33,762.17,756.18,757.04,759.18,-71.78,-961.91,351.07,1.4,1.12,0.31,-109.1,6056,0,82,-2.54591,14.1283,-82.1372,7565.42,-11036.5,-2394.75,-134.367,-92.1069,0
30313,761.3,762.15,756.16,757.07,759.17,-63.48,-954.59,353.03,0.77,-0.78,-0.89,-109.66,6064,0,82,-2.46569,13.9134,-82.2105,7580.09,-11022.5,-2482.33,-134.086,-92.2067,0
30350,761.26,762.07,756.16,757.1,759.15,-68.85,-947.27,357.42,-0.27,-0.39,-0.11,-109.29,6071,0,82,-2.32121,13.9676,-81.976,7628.16,-11038.5,-2552.89,-134.655,-93.0534,0
30387,761.34,762.13,756.23,757.09,759.2,-69.34,-949.22,356.45,-0.08,-0.62,1.42,-108.13,6078,0,82,-2.70182,13.7884,-82.8779,7599.32,-11062.8,-2384.73,-133.484,-91.6938,0
30423,761.3,762.15,756.14,757.14,759.18,-67.87,-955.08,337.89,0.24,2.72,0.76,-111.05,6086,0,82,-2.70689,14.0953,-81.7654,7618.23,-11062.2,-2430.17,-135.293,-93.1723,0
30463,761.27,762.13,756.18,757.05,759.16,-71.29,-959.96,354.98,0.73,3.73,-0.24,-108.63,6094,0,82,-2.91281,14.3678,-82.6793,7633.62,-11088,-2391.31,-134.108,-92.3278,0
30499,761.34,762.19,756.24,757.11,759.22,-71.78,-955.08,341.31,1.34,1.05,0.21,-108.88,6101,0,82,-2.41334,13.8226,-81.3242,7575.56,-11080.2,-2561.5,-136.248,-93.1526,0
30536,761.31,762.14,756.23,757.06,759.18,-75.68,-958.5,337.89,0.34,2.92,1.26,-107.7,6108,0,82,-2.63065,13.874,-82.138,7583.79,-11062.9,-2383.44,-134.687,-92.3298,0
30572,761.29,762.12,756.18,757.06,759.16,-60.55,-950.68,342.77,-2.33,-0.61,-2.05,-108.7,6115,0,82,-2.4191,14.1309,-81.5404,7626.87,-11105.3,-2431.73,-136.198,-93.5397,0
30609,761.25,762.19,756.06,757.08,759.15,-74.71,-959.47,355.96,-0.66,0.68,-0.98,-112.44,6123,0,82,-2.60027,14.2512,-82.4357,7606.15,-10993.2,-2457.04,-133.355,-92.2678,0
30645,761.24,762.14,756.25,757.1,759.18,-59.08,-950.2,358.4,-0.35,-0.95,-0.58,-107.58,6130,0,82,-2.49818,14.277,-79.8721,7583.2,-11032.3,-2461.15,-138.126,-94.9429,0
30685,761.33,762.14,756.16,757.08,759.18,-69.82,-955.08,354,-0.86,-0.22,-2.22,-109.79,6138,0,82,-2.51921,14.2657,-81.9904,7623.52,-11058.1,-2368.35,-134.871,-92.981,0
30721,761.24,762.25,756.17,757.15,759.2,-61.04,-960.94,350.59,0.18,-0.86,-1.78,-111.32,6145,0,82,-2.32213,14.1501,-81.0876,7586.22,-11040.2,-2428.62,-136.157,-93.5584,0
30758,761.27,762.2,756.17,757.12,759.19,-61.04,-964.36,345.21,0.56,-1.91,-1.85,-110.39,6153,0,82,-2.30296,13.9474,-81.5046,7605.25,-11085.5,-2449.23,-136.012,-93.3106,0
30794,761.32,762.14,756.13,757.1,759.17,-66.41,-941.89,348.14,1.38,1.57,0.04,-110.81,6160,0,82,-2.08049,14.0519,-82.4383,7589.76,-11084.1,-2493.81,-134.46,-92.0755,0
30831,761.29,762.15,756.17,757.11,759.18,-61.52,-960.94,350.59,-1.44,0.43,0.44,-110.05,6167,0,82,-2.55104,14.2247,-81.578,7591.08,-11042.6,-2388.55,-135.362,-93.0531,0
30870,761.33,762.17,756.23,757.18,759.23,-63.48,-959.47,359.86,-3.32,0.17,-2.05,-109.76,6175,0,82,-2.36845,13.816,-82.4341,7628.07,-11127.2,-2542.78,-134.983,-92.5354,0
30907,761.29,762.14,756.18,757.12,759.18,-75.2,-942.38,356.45,-0.06,-0.63,0.18,-109.75,6182,0,82,-2.37589,14.0556,-81.8425,7596.94,-11092.5,-2544.92,-135.536,-92.8247,0
30943,761.3,762.14,756.18,757.16,759.2,-60.06,-951.66,344.73,0.48,-2.96,-1.68,-110.35,6190,0,82,-2.08113,13.9125,-82.5278,7567.09,-11090.9,-2571.38,-134.393,-91.6947,0
30980,761.31,762.14,756.17,757.12,759.19,-66.41,-963.38,353.03,-0.09,-1.86,-0.85,-110.06,6197,0,82,-2.14849,14.2069,-81.7464,7595.63,-11098.9,-2601.01,-135.773,-92.917,0
31017,761.28,762.16,756.14,757.1,759.17,-73.73,-956.54,350.1,1.02,2.38,0.67,-110.72,6204,0,82,-2.37806,13.9079,-82.5882,7577.83,-11048.4,-2512.91,-133.777,-91.7544,0
31054,761.33,762.12,756.17,757.12,759.19,-66.41,-953.61,350.1,0.83,0.18,-0.02,-109.98,6212,0,82,-2.25582,13.8207,-81.4281,7586.59,-11117.2,-2525.03,-136.529,-93.169,0
31093,761.36,762.29,756.24,757.16,759.26,-75.2,-954.1,362.79,0.45,-0.6,-1.73,-110.16,6220,0,82,-2.30009,13.8343,-82.7265,7593.01,-11092,-2529.27,-134.08,-91.7845,0
31129,761.36,762.27,756.18,757.12,759.23,-80.08,-953.61,342.77,-0.81,-1.32,0.45,-111.08,6227,0,82,-2.20692,13.9445,-81.177,7591.59,-11153.9,-2492.77,-137.406,-93.5206,0
31165,761.31,762.14,756.2,757.18,759.21,-72.27,-962.89,345.7,0.11,0.97,-1.6,-110.14,6234,0,82,-2.44294,13.6661,-82.3866,7579.18,-11071.9,-2554.69,-134.39,-91.9953,0
31202,761.31,762.15,756.26,757.1,759.21,-66.89,-970.7,364.75,-0.15,1.89,0.7,-107.79,6241,0,82,-2.37201,13.9359,-82.2605,7628.35,-11081.1,-2409.85,-134.727,-92.7456,0
31238,761.29,762.25,756.16,757.17,759.22,-66.89,-947.75,355.96,0.93,2.77,0.61,-112,6249,0,82,-2.52456,14.1266,-82.0222,7622.31,-11149.3,-2466.71,-135.929,-92.9304,0
31274,761.27,762.22,756.2,757.15,759.21,-52.73,-953.61,357.91,-0.38,2.02,-1,-110.34,6256,0,82,-2.53119,14.1193,-82.5995,7639.85,-11090.7,-2603.82,-134.271,-92.4927,0
31314,761.25,762.2,756.24,757.1,759.2,-57.13,-967.77,354.49,0.44,-1.26,-0.75,-108.53,6264,0,82,-2.60567,14.463,-81.7539,7603.62,-11069.9,-2581.11,-135.405,-93.0062,0
31350,761.31,762.26,756.25,757.14,759.24,-65.92,-951.17,355.96,-0.92,1.45,1.38,-109.51,6271,0,82,-2.51201,14.2388,-82.7644,7684.88,-11064.6,-2563.89,-133.689,-92.8532,0
31386,761.28,762.28,756.16,757.15,759.22,-63.48,-961.91,348.14,0.66,0.07,1.1,-111.76,6278,0,82,-2.81282,14.2523,-81.1886,7644.37,-11079.5,-2412.74,-136.466,-94.156,0
31423,761.34,762.25,756.13,757.17,759.22,-74.71,-959.47,357.91,-0.34,0.61,0.64,-112.96,6286,0,82,-2.54799,14.0936,-82.5328,7643.16,-11072.1,-2554.19,-134.154,-92.6079,0
31459,761.35,762.24,756.25,757.2,759.26,-63.96,-957.52,369.14,-0.63,0.81,-0.74,-110.24,6293,0,82,-2.49817,13.9277,-80.9266,7615.52,-11040.5,-2534.13,-136.426,-94.1058,0
31495,761.28,762.21,756.2,757.23,759.23,-62.01,-956.54,350.59,-1.43,-0.29,-0.21,-111.52,6300,0,82,-2.66811,13.7638,-81.9405,7659.8,-11111.8,-2378.79,-135.609,-93.4809,0
31534,761.26,762.27,756.22,757.2,759.23,-74.22,-949.22,357.42,-0.15,1.59,-1.17,-110.97,6308,0,82,-2.73502,13.9582,-81.8874,7626.62,-11030.4,-2445.02,-134.703,-93.1357,0
31571,761.37,762.18,756.22,757.21,759.25,-72.75,-956.05,358.4,-0.15,1.74,-0.82,-110.59,6315,0,82,-2.41681,14.1245,-82.34,7582.67,-11072.6,-2415.85,-134.475,-92.0904,0
31608,761.31,762.21,756.13,757.13,759.19,-67.87,-953.12,361.82,-0.64,0.29,-1.61,-111.91,6323,0,82,-2.45755,13.8728,-81.1141,7570.14,-11050.3,-2521.41,-136.232,-93.3293,0
31644,761.28,762.2,756.23,757.2,759.23,-66.41,-953.61,357.42,-0.61,-0.59,-0.38,-110.17,6330,0,82,-2.22187,13.9268,-82.4783,7613.02,-11103.8,-2442.35,-134.627,-92.3033,0
31681,761.35,762.16,756.19,757.14,759.21,-66.89,-952.64,359.86,2.19,-1.38,-0.8,-110.34,6337,0,82,-2.32594,13.8101,-80.873,7556.75,-11063.1,-2438.41,-136.796,-93.4398,0
31717,761.36,762.28,756.26,757.23,759.28,-58.59,-972.17,354.49,-2.05,-1.31,-1.3,-110.88,6344,0,82,-2.49597,13.7288,-82.2156,7620,-11074.8,-2522.36,-134.704,-92.6831,0
31757,761.39,762.28,756.21,757.17,759.26,-65.43,-953.12,357.42,0.09,-0.05,-0.67,-111.37,6352,0,82,-2.23413,13.763,-82.3124,7625.14,-11126.8,-2505.51,-135.181,-92.6399,0
31793,761.34,762.34,756.16,757.13,759.24,-72.27,-958.98,352.05,1.65,0.64,-0.01,-112.31,6360,0,82,-2.75757,13.9711,-81.9654,7644.49,-11110.1,-2579.37,-135.548,-93.2651,0
31830,761.31,762.29,756.21,757.2,759.25,-73.24,-944.82,349.12,1.11,0.33,-4.65,-111.53,6367,0,82,-2.78561,14.1003,-82.1433,7610.21,-11118.4,-2511.57,-135.355,-92.6458,0
31866,761.36,762.31,756.24,757.15,759.26,-65.43,-955.08,352.54,-0.31,-1.18,-2.88,-110.36,6374,0,82,-2.50318,14.0857,-81.9183,7632.79,-11078.7,-2525.94,-135.243,-93.1788,0
31903,761.37,762.3,756.26,757.17,759.28,-67.38,-961.43,357.91,-1.99,0.34,0.31,-110.23,6382,0,82,-2.71242,13.7358,-82.9869,7614.87,-11080.3,-2394.66,-133.52,-91.7608,0
31942,761.35,762.3,756.27,757.19,759.28,-68.36,-953.12,358.4,-0.2,2.3,-0.17,-110.06,6389,0,82,-2.47726,13.9449,-81.6762,7639.27,-11122.5,-2520.16,-136.179,-93.533,0
31979,761.22,762.25,756.2,757.2,759.22,-70.31,-953.12,353.03,0.55,1.02,-0.05,-111.13,6397,0,82,-2.29739,13.9372,-82.191,7663.04,-11088,-2527.96,-134.907,-93.2369,0
32016,761.34,762.35,756.21,757.25,759.29,-70.8,-950.2,359.37,-2.76,1.4,1.23,-112.89,6404,0,82,-2.16444,14.0281,-81.1827,7611.64,-11139.2,-2439.94,-137.212,-93.7599,0
32053,761.34,762.32,756.18,757.16,759.25,-74.71,-949.22,357.91,0.03,0.92,-1.86,-112.1,6412,0,82,-2.324,14.1406,-82.4471,7652.89,-11149.6,-2479.69,-135.237,-92.8239,0
32089,761.31,762.34,756.22,757.24,759.28,-56.15,-952.15,351.07,-0.08,-0.5,-1.32,-112.23,6419,0,82,-2.51539,14.1629,-81.8079,7623.79,-11103.4,-2515.13,-135.726,-93.1917,0
32126,761.35,762.32,756.23,757.21,759.28,-65.92,-953.61,351.56,-0.85,-0.85,-0.56,-111.54,6426,0,82,-2.64232,14.038,-82.0307,7601.13,-11116.7,-2510.26,-135.519,-92.6636,0
32165,761.36,762.33,756.17,757.21,759.27,-64.94,-954.1,357.91,1.73,-1.24,-1.04,-113.1,6434,0,82,-2.54512,14.312,-80.7022,7650.57,-11094.4,-2435.26,-137.477,-94.8024,0
32202,761.33,762.26,756.2,757.18,759.24,-69.82,-965.33,352.54,0.73,2.05,-0.12,-111.3,6441,0,82,-2.5214,13.8992,-81.9053,7667.09,-11126.7,-2430.94,-135.849,-93.6096,0
32238,761.33,762.25,756.22,757.23,759.26,-67.87,-950.68,354.49,-0.08,-1.89,1.02,-111.34,6449,0,82,-2.63038,14.2115,-82.035,7601.09,-11125.1,-2398.72,-135.625,-92.6625,0
32275,761.33,762.3,756.3,757.14,759.27,-64.45,-950.68,347.17,-0.93,-1.67,-2.26,-108.39,6456,0,82,-2.47404,13.9966,-81.7265,7588.63,-11088.7,-2431.39,-135.681,-92.8551,0
32311,761.35,762.27,756.28,757.17,759.27,-67.87,-958.5,357.42,-1.71,-0.72,-1.3,-109.35,6463,0,82,-2.33535,14.194,-82.2175,7609.6,-11074.3,-2386.44,-134.695,-92.5546,0
32348,761.31,762.32,756.3,757.15,759.27,-65.92,-951.66,356.45,0.01,-1.06,0.24,-108.83,6471,0,82,-2.38609,14.2414,-81.7775,7621.73,-11131,-2290.46,-136.114,-93.2011,0
32387,761.34,762.33,756.17,757.24,759.27,-62.5,-955.57,356.45,-1.08,0.34,-0.48,-113.44,6478,0,82,-2.22555,14.0849,-82.5991,7624.97,-11060.8,-2452.74,-133.909,-92.3132,0
32424,761.32,762.29,756.2,757.21,759.25,-78.12,-960.94,355.96,0.26,-0.81,-2.24,-111.8,6486,0,82,-2.16346,14.3812,-81.6331,7590.65,-11067.4,-2386.05,-135.576,-92.9878,0
32460,761.32,762.27,756.16,757.25,759.25,-76.66,-955.57,357.91,1.78,-0.3,-0.93,-113.41,6493,0,82,-2.25757,14.3215,-82.1042,7588.28,-11081.3,-2367.93,-134.969,-92.424,0
32497,761.32,762.28,756.21,757.26,759.27,-65.43,-958.98,342.29,-3.29,-0.27,-0.67,-112.46,6500,0,82,-2.40049,14.437,-81.4413,7562.5,-11004.6,-2333.86,-135.124,-92.8586,0
32534,761.36,762.24,756.23,757.22,759.26,-62.01,-965.33,347.66,-1.17,2.05,-0.4,-111.13,6508,0,82,-2.25433,13.8793,-81.8812,7594.16,-11019.1,-2342.23,-134.574,-92.7465,0
32570,761.39,762.33,756.27,757.21,759.3,-74.71,-956.54,358.4,-0.31,-1.07,1.82,-110.77,6515,0,82,-2.37369,14.0555,-81.2432,7639.13,-11039.3,-2350.21,-135.88,-94.0276,0
32610,761.4,762.34,756.26,757.23,759.31,-67.87,-959.47,354.98,1.32,0.33,-0.82,-111.28,6523,0,82,-2.05483,13.9256,-82.0287,7670.72,-11092.5,-2406.23,-135.229,-93.5146,0
32647,761.39,762.21,756.36,757.16,759.28,-67.38,-965.33,344.73,0.24,-0.23,0.77,-106.79,6530,0,82,-2.145,13.9996,-80.6326,7674.03,-11108.8,-2305.17,-137.772,-95.174,0
32683,761.34,762.31,756.29,757.17,759.28,-70.8,-952.64,345.21,1.23,-1.44,-1.36,-109.4,6538,0,82,-2.34902,14.3921,-82.1646,7627.04,-11071.3,-2364.72,-134.745,-92.8266,0
32720,761.32,762.28,756.28,757.25,759.28,-62.01,-955.08,354.49,-0.74,-0.07,-2.02,-110.46,6545,0,82,-2.23029,14.2649,-82.1368,7656.41,-11082.4,-2359.37,-134.938,-93.2206,0
32757,761.32,762.24,756.27,757.18,759.25,-62.99,-950.2,357.42,1.16,1.55,-2.81,-109.45,6552,0,82,-2.34647,14.0543,-81.3065,7636.16,-11026.3,-2380.6,-135.613,-93.9186,0
32796,761.35,762.25,756.22,757.27,759.27,-67.38,-953.61,364.26,0.76,-0.36,-2.05,-112.21,6560,0,82,-2.51269,13.772,-82.5538,7648.13,-11057.9,-2271.1,-133.948,-92.6439,0
32832,761.37,762.28,756.28,757.27,759.3,-67.38,-949.71,348.63,-0.61,0.2,-2.34,-110.89,6567,0,82,-2.42758,13.8615,-81.08,7644.17,-10955,-2262.46,-135.114,-94.2806,0
32869,761.42,762.24,756.27,757.25,759.3,-67.87,-962.4,370.61,-0.02,-2.05,-0.73,-110.66,6575,0,82,-2.22005,13.9573,-81.6442,7611.32,-10999.3,-2225.8,-134.722,-93.2253,0
32905,761.38,762.3,756.28,757.31,759.31,-74.71,-955.57,346.68,-0.4,2.92,1.11,-111.76,6582,0,82,-2.45426,13.9118,-81.2707,7610.67,-10965,-2342.32,-134.92,-93.646,0
32942,761.38,762.26,756.28,757.31,759.31,-75.68,-951.66,355.96,-0.61,1.81,-0.55,-111.37,6589,0,82,-2.44095,13.8508,-81.4085,7647.5,-10979.9,-2379.12,-134.874,-93.9402,0
32979,761.37,762.26,756.21,757.22,759.26,-65.43,-951.66,352.54,-0.53,-0.94,0.14,-111.86,6597,0,82,-2.57255,13.986,-81.1289,7599.92,-11090,-2386.03,-136.697,-93.6774,0
33019,761.36,762.25,756.29,757.28,759.29,-74.71,-959.96,359.86,-0.66,-0.74,0.11,-110.46,6605,0,82,-2.61945,13.9094,-82.3134,7637.07,-11053,-2401.66,-134.281,-92.7808,0
33055,761.34,762.36,756.15,757.23,759.27,-64.94,-956.05,367.19,-0.96,1.84,0.24,-114.13,6612,0,82,-2.56503,14.3511,-80.3895,7634.35,-11029.2,-2349.09,-137.197,-94.9669,0
33091,761.38,762.31,756.17,757.24,759.28,-62.5,-965.33,361.33,0.89,3.66,1.75,-113.68,6619,0,82,-2.73075,14.3092,-82.1709,7630.91,-11023.9,-2444.06,-134.158,-92.8665,0
33128,761.36,762.29,756.29,757.3,759.31,-66.89,-967.77,354,-0.77,1.88,-2.14,-111.03,6627,0,82,-2.63566,14.122,-80.7061,7605.79,-10983.7,-2393.3,-136.096,-94.2402,0
33164,761.36,762.37,756.31,757.29,759.33,-59.08,-961.91,352.54,-1,0.66,2.89,-111.13,6634,0,82,-2.83807,14.0272,-81.5529,7628.32,-11002.9,-2297.35,-134.918,-93.5396,0
33201,761.4,762.24,756.29,757.25,759.29,-61.52,-963.87,363.28,-0.38,1.31,-0.52,-109.98,6641,0,82,-2.94185,13.9396,-80.8579,7626.75,-11014.5,-2276.92,-136.227,-94.3301,0
33240,761.38,762.35,756.26,757.31,759.32,-66.89,-954.1,359.86,-0.44,2.32,-0.18,-112.65,6649,0,82,-2.5247,14.0637,-81.0075,7602.58,-11019.2,-2335.24,-136.029,-93.8517,0
33277,761.41,762.33,756.26,757.22,759.3,-56.15,-954.59,361.82,0.11,1.44,-1.66,-111.31,6656,0,82,-2.54008,13.7935,-82.09,7635.59,-11058.7,-2276.01,-134.714,-93.0162,0
33313,761.39,762.3,756.22,757.22,759.28,-76.17,-942.38,349.12,-0.88,1,-2.17,-111.9,6664,0,82,-2.35652,13.9773,-81.5148,7580.81,-11013.1,-2262.88,-135.105,-92.9992,0
33350,761.35,762.27,756.28,757.24,759.28,-68.36,-965.33,356.93,0.48,-2.21,-3.29,-110.46,6671,0,82,-2.19686,14.0509,-81.485,7606.33,-11030.1,-2354.47,-135.364,-93.3464,0
33387,761.41,762.25,756.28,757.26,759.3,-61.52,-960.45,362.3,-0.31,-1.91,0.01,-110.65,6678,0,82,-2.61336,13.8845,-81.3197,7597.27,-11014.1,-2309.6,-135.443,-93.4255,0
33423,761.41,762.38,756.29,757.33,759.35,-70.31,-960.94,352.54,-0.15,-0.72,-1.14,-112.36,6686,0,82,-2.66353,13.9595,-82.2597,7572.73,-11023.3,-2379.22,-134.006,-92.0599,0
33463,761.38,762.38,756.28,757.23,759.32,-66.89,-955.08,347.66,-1.11,2.23,-0.11,-111.17,6694,0,82,-2.4858,13.7602,-80.4948,7584.91,-10989.4,-2328.16,-136.523,-94.2291,0
33500,761.43,762.4,756.26,757.23,759.33,-77.64,-950.68,344.73,0.55,-2.46,0.9,-112.12,6701,0,82,-2.49068,14.0083,-82.0319,7611.29,-10996.9,-2335.68,-134.057,-92.7846,0
33536,761.47,762.29,756.25,757.23,759.31,-63.96,-949.71,343.75,-0.4,2.21,-0.99,-111.5,6708,0,82,-2.2931,13.9428,-81.0866,7550.99,-11007.4,-2425.32,-135.753,-93.1268,0
33573,761.38,762.32,756.32,757.24,759.31,-69.82,-968.26,358.4,-0.34,-0.75,2.81,-109.86,6716,0,82,-2.56468,13.9758,-81.4349,7585.83,-10972,-2318.16,-134.735,-93.1528,0
33610,761.33,762.42,756.31,757.24,759.32,-52.73,-957.03,369.63,0.22,2.69,-0.4,-110.68,6723,0,82,-2.71334,13.9721,-80.571,7604.58,-10994.3,-2423.74,-136.454,-94.3836,0
33649,761.36,762.34,756.28,757.22,759.3,-63.96,-954.1,350.59,0.43,2.58,1.09,-110.65,6731,0,82,-2.64323,13.9927,-81.6367,7636.47,-11020.9,-2400.18,-134.999,-93.5422,0
33686,761.41,762.34,756.23,757.25,759.31,-74.22,-948.24,355.47,-0.89,0.83,-1.59,-112.36,6738,0,82,-2.23799,14.0577,-80.3596,7578.67,-10975.2,-2415.03,-136.576,-94.3092,0
33723,761.35,762.38,756.32,757.17,759.31,-64.94,-957.03,344.73,-2.37,2.33,0.01,-109.28,6746,0,82,-2.19783,14.0012,-81.6596,7601.48,-11018.9,-2345.08,-134.937,-93.0874,0
33759,761.4,762.42,756.28,757.31,759.35,-77.15,-958.01,361.82,0.37,1.66,-2.17,-112.9,6753,0,82,-2.60612,13.8853,-81.4654,7551.91,-11010.7,-2456.87,-135.17,-92.7153,0
33796,761.43,762.41,756.27,757.32,759.36,-51.76,-952.15,361.33,0.72,2.35,0.46,-113.08,6760,0,82,-2.33048,13.9256,-81.4172,7624.67,-11024.2,-2374.41,-135.404,-93.6494,0
33833,761.48,762.34,756.31,757.32,759.36,-57.62,-958.98,333.98,-0.26,-2.85,-1.88,-111.73,6768,0,82,-2.71535,14.2899,-81.8237,7608.96,-11010.3,-2330.3,-134.565,-92.9941,0
33872,761.41,762.33,756.27,757.22,759.31,-68.85,-951.17,354.98,0.27,-0.09,-0.6,-110.9,6775,0,82,-2.28774,14.1578,-81.0633,7589.8,-10999.4,-2418.87,-135.69,-93.6288,0
33909,761.39,762.36,756.24,757.28,759.32,-63.48,-955.57,360.35,-0.27,1.28,-1.56,-112.76,6783,0,82,-2.68819,13.9949,-81.9153,7601.94,-10945.4,-2340.3,-133.62,-92.8032,0
33946,761.37,762.27,756.27,757.3,759.3,-61.52,-952.15,354.49,0.06,0.79,0.56,-111.52,6790,0,82,-2.51478,14.0323,-80.6735,7597.96,-11001.3,-2317.66,-136.368,-94.1816,0
33983,761.34,762.33,756.29,757.36,759.33,-69.82,-944.82,353.03,0.45,-0.48,-0.84,-112.43,6798,0,82,-2.55807,13.9119,-81.814,7587.06,-11033.9,-2365.72,-134.873,-92.7422,0
34019,761.37,762.39,756.16,757.33,759.31,-62.99,-947.27,356.45,0.24,-0.67,-0.35,-115.75,6805,0,82,-2.46929,14.1487,-81.0334,7583.32,-11044.8,-2378.42,-136.304,-93.5832,0
34056,761.41,762.28,756.25,757.32,759.31,-60.06,-951.66,355.47,-0.6,1.75,-3.63,-112.49,6812,0,82,-2.56571,13.94,-81.9182,7603.54,-10990.1,-2424.99,-134.16,-92.8188,0
34095,761.33,762.28,756.29,757.26,759.29,-64.45,-947.75,345.7,-0.82,2.15,-2.34,-110.43,6820,0,82,-2.33469,14.1551,-80.9306,7604.65,-11023.8,-2532.82,-136.221,-93.9706,0
34132,761.34,762.4,756.25,757.31,759.33,-71.29,-952.15,349.12,1.77,-0.49,-1.08,-113.07,6827,0,82,-2.49476,14.3307,-81.7966,7587.61,-10985.4,-2565.53,-134.302,-92.7627,0
34169,761.35,762.39,756.24,757.25,759.31,-57.13,-964.36,358.4,0.61,0.98,-0.38,-112.49,6835,0,82,-2.7483,13.9606,-80.6414,7597.55,-10958.5,-2452.25,-135.892,-94.216,0
34206,761.36,762.37,756.26,757.34,759.33,-68.36,-958.98,362.3,0.79,-2.83,-1.59,-113.22,6842,0,82,-2.65227,13.9405,-80.8522,7585.07,-11005.9,-2389.93,-136.123,-93.8143,0
34242,761.38,762.43,756.28,757.31,759.35,-64.94,-961.91,337.89,-0.62,0.09,0.47,-112.6,6849,0,82,-2.48009,13.9641,-80.9295,7603.05,-11009.4,-2367.77,-136.05,-93.9529,0
34279,761.37,762.45,756.3,757.29,759.35,-63.96,-956.54,351.56,-0.47,0.47,-1.22,-112.05,6857,0,82,-2.27084,14.1706,-81.0583,7589.91,-10941.5,-2421.2,-134.984,-93.6358,0
34318,761.4,762.36,756.32,757.31,759.35,-59.57,-955.08,353.52,-0.98,-1.72,0.6,-111.35,6865,0,82,-2.63927,13.9487,-81.1491,7599.64,-11007.1,-2301.11,-135.647,-93.6556,0
34355,761.41,762.43,756.36,757.32,759.38,-68.36,-966.31,345.7,1.8,0.27,-0.39,-110.99,6872,0,82,-2.31048,14.0083,-81.6944,7598.96,-11040.5,-2473.15,-135.145,-93.0177,0
34392,761.4,762.45,756.29,757.32,759.36,-57.13,-958.01,350.59,-1.85,0.82,-4.1,-112.99,6879,0,82,-2.5216,13.897,-81.3087,7561.52,-10980.5,-2442.14,-135.048,-92.9981,0
34429,761.36,762.39,756.32,757.44,759.38,-62.01,-958.98,355.96,-0.64,0.56,-0.98,-113.15,6887,0,82,-2.66006,13.9726,-80.9025,7548.34,-10923.9,-2441.27,-135.026,-93.3029,0
34465,761.36,762.41,756.32,757.35,759.36,-71.78,-959.47,349.61,0.37,-0.06,0.27,-112.07,6894,0,82,-2.63602,13.9782,-82.105,7615.22,-11020,-2489.24,-134.219,-92.7499,0
34502,761.43,762.39,756.29,757.32,759.36,-67.38,-966.8,352.05,2.24,1.07,-1.11,-112.46,6901,0,82,-2.73929,13.9927,-80.6475,7613,-10956.5,-2526.78,-135.857,-94.399,0
34541,761.36,762.45,756.25,757.27,759.33,-56.64,-948.24,356.45,-1.43,0.66,0.4,-113.01,6909,0,82,-3.06421,13.7925,-81.6133,7632.84,-10996.8,-2438.95,-134.744,-93.5256,0
34577,761.36,762.42,756.29,757.34,759.35,-77.64,-949.71,352.54,0.95,-1.26,-0.16,-112.74,6916,0,82,-2.49162,14.0159,-80.6805,7583.36,-10993.5,-2534.09,-136.261,-93.9928,0
34613,761.42,762.4,756.26,757.28,759.34,-74.71,-952.15,360.35,-1.57,-1.43,-2.2,-112.65,6924,0,82,-2.5726,13.9344,-82.238,7587.98,-10966.8,-2559.43,-133.356,-92.2693,0
34650,761.35,762.49,756.28,757.3,759.36,-62.99,-949.22,355.47,-2.1,0.03,0.58,-112.94,6931,0,82,-2.08599,14.056,-80.1872,7552.45,-10965.9,-2457.39,-136.76,-94.1882,0
34686,761.37,762.41,756.31,757.34,759.36,-62.01,-964.36,355.96,0.87,1.37,-0.03,-112.25,6938,0,82,-2.56969,14.1527,-81.2837,7566.45,-10948.3,-2425.19,-134.695,-93.0871,0
34726,761.31,762.39,756.34,757.36,759.35,-69.82,-963.87,355.96,-1.1,1.44,-1.09,-111.36,6946,0,82,-2.46459,14.0151,-79.4011,7595.2,-10974.5,-2483.12,-138.219,-95.6571,0
34762,761.35,762.44,756.32,757.42,759.38,-62.99,-955.08,353.03,-0.77,-0.01,1.4,-113.49,6953,0,82,-2.20442,14.0601,-81.5543,7550.23,-11038.2,-2434.21,-135.349,-92.5791,0
34798,761.42,762.48,756.3,757.38,759.39,-69.34,-956.05,343.75,-1,0.52,-2.5,-113.89,6961,0,82,-2.56723,13.8142,-80.7339,7559.19,-10978.9,-2489.68,-135.998,-93.6376,0
34834,761.44,762.42,756.36,757.34,759.39,-67.38,-959.96,346.19,-0.97,-0.78,-3.36,-111.24,6968,0,82,-2.6387,14.1296,-81.5493,7609.56,-11035.4,-2410.18,-135.322,-93.313,0
34871,761.43,762.48,756.29,757.34,759.38,-64.94,-970.7,357.42,-0.11,2.73,0.94,-113.55,6975,0,82,-2.55767,13.8955,-82.643,7612.18,-11026,-2560.67,-133.417,-92.1092,0
34907,761.39,762.5,756.31,757.39,759.4,-66.41,-950.2,345.7,-0.26,0.68,1.05,-113.64,6982,0,82,-2.66577,14.0947,-80.7352,7563.33,-11011.3,-2598.75,-136.388,-93.6813,0
34946,761.4,762.49,756.33,757.42,759.41,-64.94,-951.17,336.43,-2.37,-1.57,-1.7,-113.66,6990,0,82,-2.85462,13.7596,-81.7046,7630.09,-11003.3,-2451,-134.673,-93.3877,0
34983,761.45,762.54,756.34,757.3,759.41,-68.85,-952.64,353.03,-1.21,0.94,-0.57,-112.22,6998,0,82,-2.57357,13.8957,-81.5122,7583,-11006.7,-2529.97,-135.031,-93.0291,0
35019,761.35,762.52,756.31,757.36,759.38,-82.52,-956.05,335.45,0.29,-0.34,-1.67,-113.2,7005,0,82,-2.70696,14.1699,-82.0185,7587.74,-10967.4,-2544.83,-133.719,-92.5132,0
35056,761.35,762.47,756.26,757.46,759.38,-53.71,-951.17,343.75,-0.3,0.18,-1.11,-115.71,7012,0,82,-2.56135,14.0958,-80.7681,7549.2,-11009.2,-2650.98,-136.306,-93.469,0
35092,761.44,762.48,756.34,757.37,759.41,-75.2,-958.98,353.52,1.13,0.76,1.08,-112.75,7019,0,82,-2.3414,14.1577,-81.326,7575.73,-11005.1,-2502.74,-135.322,-93.1528,0
35129,761.37,762.56,756.23,757.44,759.4,-60.06,-953.12,347.66,-1.01,0.95,0.8,-116.86,7027,0,82,-2.43429,14.3387,-80.8349,7579.44,-10994.4,-2467.19,-136.014,-93.7664,0
35168,761.45,762.51,756.31,757.32,759.4,-72.75,-957.52,346.19,-1.13,-1.98,-2.49,-113.08,7035,0,82,-2.27052,14.4826,-81.7598,7565.69,-11046.7,-2514.4,-135.112,-92.5357,0
35205,761.4,762.51,756.29,757.36,759.39,-57.62,-949.71,352.05,-0.45,0.74,0.21,-114.05,7042,0,82,-2.51069,14.1891,-80.6416,7563.06,-10972.9,-2634.8,-136.071,-93.7859,0
35241,761.39,762.54,756.3,757.33,759.39,-70.8,-948.73,353.03,-0.11,-1.97,-0.85,-113.37,7049,0,82,-2.49034,14.3102,-81.5467,7567.33,-11040.6,-2505.57,-135.39,-92.7974,0
35278,761.43,762.53,756.23,757.34,759.38,-74.22,-955.57,348.14,-2.18,0.24,-1.87,-115.56,7057,0,82,-2.81149,14.055,-81.9599,7605.19,-10980.1,-2589.34,-133.994,-92.8066,0
35315,761.48,762.6,756.25,757.45,759.45,-59.57,-957.52,348.63,-1.55,-3.4,-1.16,-117.31,7064,0,82,-2.54673,14.4467,-82.0512,7599.15,-10975.6,-2551.09,-133.766,-92.615,0
35351,761.41,762.54,756.32,757.41,759.42,-70.31,-957.52,352.54,0.24,1.22,-1.59,-114.15,7071,0,82,-2.36184,14.4459,-82.0884,7600.33,-11042.5,-2597.8,-134.52,-92.5872,0
35390,761.49,762.58,756.3,757.38,759.44,-75.2,-957.52,364.75,-1.05,0.88,0.76,-115.01,7079,0,82,-2.32541,14.6533,-81.5775,7624.6,-11074,-2474.8,-135.752,-93.4659,0
35427,761.45,762.48,756.32,757.43,759.42,-68.85,-957.03,350.1,-0.47,-0.79,0.92,-114.19,7086,0,82,-2.30757,14.3768,-82.1478,7573.97,-11026.1,-2484.03,-134.223,-92.1994,0
35463,761.43,762.56,756.35,757.42,759.44,-62.01,-953.61,356.93,-0.69,0.66,0.02,-113.75,7094,0,82,-2.4167,14.337,-81.5256,7552.42,-11055.4,-2514.44,-135.607,-92.6401,0
35500,761.4,762.44,756.33,757.41,759.39,-52.73,-950.2,344.24,-0.84,2.73,1.11,-113.23,7101,0,82,-2.82219,14.0968,-82.279,7568.38,-11032,-2378.03,-134.081,-91.9846,0
35537,761.46,762.48,756.31,757.4,759.41,-77.64,-965.33,346.68,-0.79,1.92,-0.31,-114.04,7108,0,82,-2.78377,14.1131,-81.3207,7559.66,-11021.9,-2408.61,-135.536,-92.9613,0
35576,761.44,762.58,756.28,757.45,759.44,-62.99,-959.96,358.89,-0.4,1.21,-2.1,-116.2,7116,0,82,-2.89417,14.0502,-81.6331,7543.85,-11038.8,-2528.98,-135.224,-92.4118,0
35612,761.49,762.57,756.34,757.44,759.46,-62.5,-954.1,354.49,0.02,0.74,-0.31,-114.74,7123,0,82,-2.49971,13.8598,-80.923,7615.88,-11048.8,-2474.84,-136.538,-94.1145,0
35649,761.49,762.6,756.32,757.47,759.47,-64.45,-958.98,354.98,-0.77,0.05,-0.88,-115.95,7131,0,82,-2.69412,13.931,-80.9378,7567.1,-11048.7,-2410.63,-136.51,-93.4931,0
35685,761.43,762.64,756.32,757.39,759.45,-79.1,-958.01,356.45,0.1,-0.51,-1.3,-114.77,7138,0,82,-2.74155,13.8873,-79.239,7616.09,-10984.5,-2564.85,-138.629,-96.1193,0
35722,761.41,762.61,756.37,757.55,759.48,-64.45,-955.08,352.05,0.07,-0.34,-0.78,-115.68,7145,0,82,-2.95251,14.1697,-81.4774,7548.37,-10995.3,-2488.49,-134.949,-92.6437,0
35759,761.43,762.59,756.32,757.41,759.44,-62.5,-959.47,341.8,0.02,-0.88,0.7,-114.58,7153,0,82,-2.70259,14.1863,-80.7517,7540.98,-11038.2,-2632.54,-136.696,-93.3861,0
35798,761.43,762.59,756.37,757.43,759.46,-57.13,-952.64,356.45,-0.73,-0.6,0.15,-113.75,7161,0,82,-2.22334,14.0989,-81.4306,7581.17,-11044.9,-2625.23,-135.636,-93.1001,0
35834,761.48,762.64,756.29,757.44,759.46,-62.5,-968.26,353.03,-0.31,-0.18,1.37,-116.38,7168,0,82,-2.24846,14.3974,-81.7597,7662.76,-10992.4,-2605.75,-134.447,-93.7225,0
35871,761.48,762.59,756.37,757.48,759.48,-62.99,-955.57,347.66,0.67,1.03,-0.05,-114.62,7175,0,82,-2.70141,14.027,-81.2633,7606.65,-11043.2,-2527.29,-135.896,-93.6069,0
35908,761.41,762.64,756.36,757.45,759.46,-54.2,-955.57,336.43,-0.33,2.09,0.97,-114.56,7183,0,82,-2.54,14.1316,-82.2048,7587.92,-10989.9,-2557.74,-133.689,-92.3057,0
35945,761.51,762.63,756.3,757.45,759.47,-65.92,-965.33,346.19,-0.8,2.42,0.41,-116.54,7190,0,82,-2.70553,13.903,-81.194,7519.07,-10994.9,-2556.88,-135.415,-92.606,0
35981,761.45,762.63,756.32,757.49,759.47,-67.87,-955.08,355.47,1.31,-2.95,-2.14,-116.3,7197,0,82,-2.33852,14.2878,-81.0125,7570.21,-10970.3,-2582.13,-135.416,-93.4446,0
36021,761.44,762.62,756.38,757.4,759.46,-79.1,-961.91,352.54,0.08,2.03,-0.56,-113.24,7205,0,82,-2.84958,13.9987,-78.6639,7632.93,-10948.4,-2548.03,-139.18,-97.0341,0
36057,761.49,762.66,756.38,757.43,759.49,-72.75,-956.05,344.24,-1.5,0.82,0.1,-114.2,7212,0,82,-3.17944,14.2528,-80.8553,7617.47,-11000.2,-2524.21,-136.048,-94.2114,0
36094,761.47,762.54,756.39,757.46,759.47,-66.89,-946.78,357.91,-1.46,-0.05,0.29,-113.37,7220,0,82,-2.63148,14.3699,-80.8492,7606.05,-11021,-2578.66,-136.316,-94.0769,0
36130,761.47,762.64,756.28,757.48,759.47,-78.12,-949.22,352.05,-0.65,0.51,-1.15,-117.3,7227,0,82,-2.65806,14.015,-81.4261,7569.59,-11093.2,-2614.55,-136.237,-92.9627,0
36167,761.5,762.62,756.32,757.39,759.46,-56.64,-958.5,359.86,-2.22,-1.66,0.28,-114.8,7234,0,82,-2.59127,14.2145,-78.7106,7659.69,-10998.9,-2535.86,-139.751,-97.3325,0
36204,761.5,762.62,756.39,757.4,759.48,-54.2,-959.96,363.28,-1.83,-2.13,-1.55,-113.23,7242,0,82,-2.80201,14.1011,-81.0538,7550.8,-11055.8,-2421.06,-136.402,-93.1585,0
36243,761.49,762.61,756.36,757.5,759.49,-62.5,-951.66,363.28,-0.49,2.82,-0.67,-115.5,7250,0,82,-2.73508,14.0658,-80.1122,7576.34,-11071.1,-2498.88,-138.196,-94.5738,0
36279,761.39,762.6,756.34,757.45,759.44,-60.55,-960.94,354.49,-0.53,-0.99,0.33,-114.75,7257,0,82,-2.50312,14.6142,-81.9237,7599.39,-11125.8,-2590.99,-135.807,-92.7618,0
36316,761.41,762.69,756.4,757.48,759.49,-62.99,-953.12,354,-2.17,0.34,-0.4,-114.34,7264,0,82,-2.44001,14.2988,-82.2276,7531.03,-11108.5,-2465.48,-135.095,-91.5884,0
36352,761.47,762.72,756.43,757.46,759.52,-54.69,-958.98,339.36,-0.12,0.69,-1.42,-113.9,7271,0,82,-2.14438,14.3796,-81.7759,7560.79,-11013.6,-2600.48,-134.681,-92.4576,0
36389,761.5,762.67,756.3,757.5,759.49,-71.29,-956.05,344.73,-0.15,0.02,-0.45,-117.56,7279,0,82,-2.08405,14.1323,-82.7113,7581.69,-11085.8,-2650.04,-134.031,-91.6646,0
36425,761.43,762.71,756.36,757.48,759.5,-78.12,-959.96,345.21,1.34,2.18,-0.8,-115.8,7286,0,82,-2.12534,14.2638,-81.8317,7588.72,-11063.8,-2576.8,-135.203,-92.736,0
36464,761.49,762.65,756.36,757.48,759.5,-71.78,-956.54,347.66,-0.07,-1.68,-3.81,-115.37,7294,0,82,-2.57428,14.3538,-82.4939,7588.1,-11101.5,-2440.67,-134.574,-91.9837,0
36501,761.44,762.62,756.4,757.47,759.48,-61.04,-959.47,358.89,-0.63,2.15,-0.26,-113.79,7301,0,82,-2.91105,14.1335,-81.2402,7587.86,-11026.7,-2506.68,-135.73,-93.4009,0
36537,761.51,762.69,756.39,757.49,759.52,-58.11,-951.66,356.93,0.66,1.11,0.34,-115.3,7308,0,82,-2.59893,14.297,-82.5896,7529.02,-11071.1,-2637.76,-134.051,-91.1636,0
36574,761.46,762.61,756.36,757.52,759.49,-69.82,-964.36,347.66,-0.65,-2.36,-0.58,-115.47,7316,0,82,-2.63938,14.3062,-80.6242,7559.17,-11101.3,-2679.02,-137.693,-93.7585,0
36610,761.46,762.63,756.32,757.51,759.48,-75.68,-958.98,353.03,-0.56,-1.53,-1.81,-116.5,7323,0,82,-2.67529,14.2537,-82.2634,7623.63,-11027.2,-2565.08,-134.048,-92.6735,0
36649,761.48,762.63,756.43,757.52,759.52,-71.78,-949.22,352.54,-1.21,1.34,-1.33,-114.05,7331,0,82,-2.23428,14.2897,-80.5201,7555.24,-10986,-2605,-136.44,-93.8328,0
36686,761.49,762.66,756.31,757.53,759.5,-60.55,-951.66,344.24,0.76,1.48,0.54,-117.52,7338,0,82,-2.57302,14.2817,-80.9863,7613.41,-10991.2,-2544.15,-135.718,-94.0096,0
36722,761.48,762.71,756.36,757.49,759.51,-69.34,-968.26,353.03,-1.17,1.08,0.37,-115.89,7345,0,82,-2.85576,14.086,-80.9635,7588.62,-11056.9,-2655.51,-136.57,-93.7321,0
36759,761.42,762.71,756.39,757.45,759.49,-66.41,-958.01,352.05,-1.02,2.72,-0.99,-114.3,7353,0,82,-2.62036,14.2671,-82.0103,7603.17,-11067,-2543.97,-134.947,-92.7099,0
36796,761.46,762.68,756.37,757.48,759.5,-68.85,-945.8,370.61,-1.95,-0.11,-0.24,-115.38,7360,0,82,-2.29153,14.1711,-82.3175,7597.07,-11047.9,-2568.59,-134.211,-92.2897,0
36832,761.43,762.75,756.35,757.5,759.51,-65.43,-959.47,348.63,-0.08,0.92,-0.13,-116.67,7367,0,82,-3.00072,13.9539,-81.6583,7577.66,-11028.9,-2499.66,-135.064,-92.7973,0
36873,761.44,762.72,756.31,757.5,759.49,-68.85,-953.61,350.59,-1.48,1.33,0.56,-117.41,7376,0,82,-2.54194,14.1038,-82.5155,7649.36,-11105.9,-2599.6,-134.595,-92.7036,0
36909,761.44,762.6,756.4,757.49,759.48,-60.55,-962.4,349.12,-3.78,1.37,-2.52,-113.96,7383,0,82,-2.68015,14.1595,-81.5445,7639.6,-11095,-2689.45,-136.063,-93.6872,0
36946,761.5,762.73,756.36,757.6,759.55,-54.69,-955.57,357.42,0.05,-0.14,-0.34,-117.76,7390,0,82,-2.1745,14.1252,-82.2835,7584.86,-11091.1,-2551.37,-134.791,-92.1796,0
36982,761.51,762.76,756.35,757.64,759.56,-75.68,-958.98,354.49,-0.75,0.44,2.05,-118.99,7397,0,82,-2.55918,14.2662,-80.6028,7549.95,-11072.6,-2520.82,-137.375,-93.6691,0
37019,761.49,762.77,756.35,757.6,759.55,-58.59,-952.64,357.42,-1.56,0.64,0.28,-118.39,7405,0,82,-2.69114,14.5591,-82.7566,7561.52,-11115.4,-2656.71,-134.314,-91.3713,0
37056,761.46,762.77,756.4,757.45,759.52,-57.13,-964.36,350.1,-0.12,-1.1,-0.72,-114.92,7412,0,82,-2.64261,14.0549,-81.6693,7653.85,-11082.7,-2466.33,-135.703,-93.7179,0
37095,761.49,762.7,756.4,757.52,759.53,-74.22,-960.45,351.56,-1.3,0.24,-0.89,-115.29,7420,0,82,-2.77076,14.1245,-82.4477,7571.92,-11051,-2440.32,-134.036,-91.8392,0
37132,761.46,762.79,756.42,757.53,759.55,-72.27,-951.66,354.98,-1.82,-0.37,-0.79,-115.63,7427,0,82,-2.67785,14.1202,-81.1922,7570.51,-10987.2,-2556.16,-135.325,-93.2434,0
37169,761.49,762.71,756.33,757.6,759.53,-60.55,-950.68,355.96,-1.29,-1.21,-1.17,-118.39,7435,0,82,-2.53694,14.0265,-82.2649,7597.04,-11074,-2545.87,-134.614,-92.3489,0
37205,761.49,762.71,756.32,757.56,759.52,-59.57,-964.36,354,-1.73,1.26,1.07,-117.95,7442,0,82,-2.33714,13.9619,-80.5282,7562.2,-11064.7,-2543.72,-137.402,-93.9081,0
37242,761.53,762.71,756.41,757.51,759.54,-67.87,-957.03,352.54,-0.73,-0.71,0.95,-115.2,7449,0,82,-2.4976,13.9436,-81.4004,7532.6,-11081.8,-2509.28,-136.139,-92.5379,0
37279,761.53,762.76,756.37,757.61,759.57,-69.82,-947.27,352.54,-0.1,-2.32,-0.31,-118.07,7457,0,82,-2.59413,14.2682,-81.039,7597.77,-11083.7,-2526.96,-136.772,-93.7562,0
37318,761.48,762.77,756.4,757.56,759.55,-64.94,-956.05,345.7,-0.13,-0.79,-1.55,-116.42,7465,0,82,-2.89737,14.1266,-81.8337,7565.57,-11092,-2416.49,-135.543,-92.4505,0
37355,761.45,762.75,756.45,757.56,759.55,-62.99,-960.45,344.24,-0.15,-0.3,-2.33,-114.91,7472,0,82,-2.75055,14.3395,-81.8514,7630.22,-10976.5,-2559.2,-134.106,-93.2202,0
37392,761.49,762.82,756.4,757.53,759.56,-71.78,-952.15,354,-0.41,-1.02,-1.66,-116.56,7479,0,82,-2.47782,14.0147,-81.6314,7583.31,-11106.3,-2551.25,-136.056,-92.8979,0
37428,761.46,762.82,756.36,757.55,759.55,-70.8,-966.8,351.56,-1.34,-0.65,-1.43,-117.72,7487,0,82,-2.64688,14.0579,-82.1026,7573.21,-11049.4,-2598.59,-134.581,-92.2409,0
37465,761.52,762.81,756.34,757.52,759.55,-77.15,-956.54,351.07,-0.63,-0.03,-0.76,-117.89,7494,0,82,-2.56972,14.2395,-81.8956,7591.83,-11073.1,-2577.15,-135.21,-92.7013,0
37504,761.45,762.79,756.4,757.67,759.58,-72.27,-952.15,346.19,-0.36,0.35,-1.73,-118.29,7502,0,82,-2.61631,14.2313,-82.6078,7604.63,-11051.8,-2632.21,-133.786,-92.057,0
37541,761.48,762.75,756.42,757.63,759.57,-72.75,-955.57,349.12,2.21,-0.06,-1.86,-116.85,7509,0,82,-2.82026,14.4716,-81.0664,7594.42,-11085.6,-2583.17,-136.748,-93.6828,0
37578,761.45,762.77,756.39,757.55,759.54,-62.01,-944.82,340.82,-0.37,-0.04,-2.18,-116.52,7517,0,82,-2.91986,14.3169,-82.2594,7602.07,-11101.9,-2552.91,-134.963,-92.4168,0
37614,761.45,762.71,756.34,757.64,759.53,-65.92,-964.36,345.21,-0.53,0.37,0.26,-118.72,7524,0,82,-2.85649,14.388,-82.1454,7640.16,-11078.1,-2592.54,-134.861,-93.0075,0
37651,761.43,762.74,756.35,757.53,759.52,-76.66,-953.61,348.14,-0.85,0.73,-2.6,-116.97,7531,0,82,-2.85813,14.3274,-82.4126,7660.75,-11033.3,-2521.66,-133.881,-92.9565,0
37688,761.48,762.75,756.4,757.57,759.55,-62.5,-958.98,357.91,-1.23,0.65,-0.46,-116.55,7539,0,82,-2.52375,14.6859,-81.8268,7635.03,-11086.6,-2574.61,-135.489,-93.3086,0
37727,761.47,762.75,756.39,757.62,759.56,-67.38,-959.96,348.63,-1.1,0.81,-0.34,-117.53,7546,0,82,-2.53941,14.5759,-82.465,7616.34,-11096.7,-2526.2,-134.563,-92.359,0
37764,761.54,762.78,756.43,757.5,759.56,-62.01,-948.73,348.14,0.6,-0.15,-1.72,-115.1,7554,0,82,-2.66389,14.5152,-80.55,7573.66,-11060.5,-2453.18,-137.314,-94.0257,0
37801,761.49,762.8,756.44,757.58,759.58,-64.94,-954.1,346.68,-0.02,1.28,-2.31,-115.89,7561,0,82,-2.45025,14.4955,-81.3831,7564.62,-11114,-2514.15,-136.565,-92.951,0
37837,761.49,762.81,756.42,757.56,759.57,-66.41,-955.57,334.96,-0.85,0.92,0.27,-116.42,7568,0,82,-2.55731,14.298,-81.3732,7611.25,-11066.1,-2560.89,-135.993,-93.5365,0
37875,761.49,762.7,756.4,757.6,759.55,-62.5,-942.87,345.21,-0.34,0.5,-1.79,-116.52,7576,0,82,-2.43128,14.5892,-82.3287,7585.32,-11087.4,-2610.84,-134.673,-92.1352,0
37911,761.5,762.81,756.39,757.59,759.57,-78.61,-958.01,352.05,0.82,-1.95,0.64,-117.43,7583,0,82,-2.5001,14.4336,-82.6978,7633.5,-11076.2,-2556.8,-133.936,-92.3059,0
37950,761.55,762.77,756.4,757.58,759.57,-63.48,-953.61,357.42,-1.02,-1.02,-0.34,-117.03,7591,0,82,-2.52321,14.4527,-81.5322,7599.26,-11082.1,-2496.72,-135.924,-93.2056,0
37987,761.51,762.77,756.42,757.61,759.58,-51.27,-958.98,350.1,-0.98,2.31,-1.69,-116.77,7598,0,82,-2.49695,14.5494,-82.6872,7543,-11079.7,-2545.54,-133.996,-91.2234,0
38023,761.56,762.83,756.34,757.62,759.59,-63.48,-955.57,346.68,-0.66,2.1,-1.62,-119.74,7606,0,82,-2.42953,14.5019,-82.188,7674.21,-11103.6,-2567.13,-135.1,-93.3736,0
38060,761.51,762.81,756.43,757.65,759.6,-63.48,-952.64,349.12,-1.22,-3.95,1.47,-117.58,7613,0,82,-2.83714,14.252,-82.309,7607.16,-11150,-2557.99,-135.466,-92.4228,0
38096,761.46,762.78,756.42,757.62,759.57,-70.31,-957.52,364.75,-1.69,0.05,-0.61,-116.94,7620,0,82,-2.55081,14.2916,-81.8039,7614.98,-11151.9,-2585,-136.324,-93.0883,0
38132,761.53,762.75,756.43,757.66,759.59,-64.45,-957.52,349.61,-0.08,-1.01,-0.69,-117.26,7627,0,82,-2.65213,14.2566,-82.708,7624.1,-11053.1,-2506.64,-133.639,-92.1809,0
38172,761.49,762.82,756.42,757.59,759.58,-59.57,-961.91,363.77,-0.3,-0.67,1.21,-117.04,7635,0,82,-2.75759,14.3327,-81.6733,7640.64,-11078.5,-2579,-135.644,-93.5515,0
38208,761.42,762.8,756.41,757.6,759.56,-61.04,-955.57,352.54,0.3,0.16,-0.76,-116.79,7643,0,82,-2.5226,14.4779,-81.8467,7599.68,-11079.2,-2689.42,-135.367,-92.854,0
38245,761.5,762.82,756.47,757.62,759.6,-72.27,-961.91,349.12,0.4,0.36,-1.43,-116.17,7650,0,82,-2.39506,14.4896,-80.8804,7565.91,-11053.4,-2668.78,-136.665,-93.546,0
38281,761.46,762.8,756.43,757.62,759.58,-67.87,-965.82,349.12,-1.07,-1.32,-3.52,-116.91,7657,0,82,-2.3429,14.1131,-82.4531,7548.49,-11048.9,-2590.76,-134.003,-91.549,0
38318,761.44,762.88,756.38,757.6,759.58,-64.45,-967.29,356.45,-2.41,0.17,0.18,-118.37,7665,0,82,-2.74428,14.0786,-81.891,7587.62,-11071.9,-2464.44,-135.214,-92.6609,0
38357,761.49,762.85,756.47,757.6,759.6,-62.5,-957.52,349.61,-0.28,1.56,2.85,-115.92,7672,0,82,-2.41507,14.2023,-82.0941,7582.83,-10988.8,-2537,-133.856,-92.3674,0
38394,761.43,762.88,756.46,757.59,759.59,-72.75,-954.59,366.21,-0.91,1.59,1.93,-116.23,7680,0,82,-2.12249,14.1736,-82.5536,7568.16,-11090.2,-2473.94,-134.342,-91.6803,0
38430,761.5,762.81,756.46,757.6,759.59,-62.01,-954.1,356.93,0.44,1.89,0.69,-116.06,7687,0,82,-2.33099,14.0336,-81.6326,7595.9,-11018.4,-2551.57,-134.976,-93.05,0
38467,761.45,762.81,756.47,757.63,759.59,-69.82,-956.05,344.24,0.07,-3.11,0.67,-116.02,7694,0,82,-2.37783,13.9844,-82.2493,7586.5,-11006.2,-2455.03,-133.818,-92.2379,0
38533,761.44,762.85,756.43,757.63,759.59,-66.89,-952.15,354.98,-3.44,-2.03,-0.52,-117.17,7708,0,82,-2.8008,13.9826,-82.3043,7580.47,-11076.2,-2498.14,-134.576,-92.1029,0
38569,761.5,762.81,756.38,757.63,759.58,-69.34,-953.12,351.07,-1.44,0.11,1.06,-118.25,7715,0,82,-2.90144,14.0719,-81.2854,7571.18,-11030.9,-2509.64,-135.705,-93.1432,0
38608,761.48,762.81,756.47,757.68,759.61,-58.11,-959.47,351.56,0.25,0.94,-2.57,-117.02,7723,0,82,-2.84089,14.3427,-82.7933,7549.69,-11087.4,-2606.66,-133.917,-91.1874,0
38645,761.51,762.81,756.42,757.65,759.6,-57.13,-954.1,353.03,1.85,1.14,0.53,-117.68,7730,0,82,-2.52551,14.6082,-80.1297,7571.27,-11050.2,-2586.76,-137.906,-94.4898,0
38681,761.51,762.84,756.45,757.61,759.6,-62.01,-942.38,338.87,-1.65,1.45,-0.41,-116.65,7737,0,82,-2.57455,14.6706,-81.5162,7607.07,-11011,-2469.17,-135.078,-93.3198,0
38717,761.47,762.82,756.46,757.64,759.6,-67.87,-953.61,350.1,1.26,0.18,2.23,-116.63,7744,0,82,-2.70362,14.5889,-82.5223,7631.78,-11086.9,-2469.08,-134.35,-92.4815,0
38754,761.5,762.83,756.44,757.68,759.61,-59.08,-954.59,339.36,0.36,-1.04,-1.32,-117.9,7752,0,82,-2.83772,14.4129,-81.8072,7508.95,-11002.9,-2474.72,-134.497,-91.7879,0
38790,761.5,762.84,756.45,757.64,759.61,-62.01,-952.64,354,0.25,1.82,-2.25,-117.14,7759,0,82,-2.75253,14.337,-82.1553,7557.8,-11091.6,-2550.15,-135.008,-91.9943,0
38829,761.49,762.89,756.44,757.68,759.63,-63.96,-957.03,331.54,-0.82,1.07,-2.62,-118.33,7767,0,82,-2.83499,14.3425,-81.6124,7564.53,-11062.5,-2590.31,-135.55,-92.6887,0
38865,761.44,762.85,756.45,757.7,759.61,-72.27,-958.01,352.54,0.19,-2.65,0.29,-117.85,7774,0,82,-2.42825,14.418,-82.5294,7548.04,-11028.4,-2571.3,-133.631,-91.4595,0
38902,761.53,762.84,756.46,757.64,759.62,-71.29,-947.75,358.4,-0.14,-0.06,0.97,-116.87,7781,0,82,-2.22792,14.2002,-80.8196,7555.93,-11050.1,-2476.38,-136.726,-93.4917,0
38938,761.5,762.82,756.43,757.7,759.61,-69.82,-948.24,352.54,1.15,0.41,-1.52,-118.24,7789,0,82,-2.79675,14.1504,-82.5418,7539.8,-11051.3,-2495.29,-133.889,-91.3461,0
38975,761.47,762.8,756.37,757.68,759.58,-66.41,-947.27,354.49,0,0.39,0.8,-119.33,7796,0,82,-2.69943,14.5457,-81.9355,7552.61,-11150.8,-2479.23,-136.092,-92.1786,0
39011,761.43,762.84,756.46,757.69,759.61,-66.41,-949.22,354.98,-1.24,0.45,-1.08,-117.4,7803,0,82,-2.92396,14.2151,-81.9026,7574.1,-11076.7,-2452.26,-135.243,-92.4774,0
39050,761.5,762.88,756.43,757.71,759.63,-73.73,-951.17,337.4,-1.35,3.78,2.66,-118.78,7811,0,82,-2.56508,14.3333,-81.0399,7610.51,-11038.6,-2463.76,-136.212,-93.9107,0
39086,761.53,762.8,756.48,757.68,759.62,-57.62,-962.89,358.89,-0.71,0.48,-0.68,-116.64,7818,0,82,-2.46836,13.7597,-81.7564,7519.73,-10982.3,-2419.21,-134.33,-91.9775,0
39123,761.46,762.86,756.45,757.67,759.61,-73.73,-950.2,355.47,0.53,0.24,-2.44,-117.54,7826,0,82,-2.49674,14.1275,-80.0787,7520.76,-11121.8,-2483.24,-138.89,-93.9179,0
39159,761.52,762.8,756.36,757.72,759.6,-64.45,-948.73,359.37,-0.11,0.4,1.12,-120.42,7833,0,82,-2.46525,14.171,-81.1679,7520.14,-11038.1,-2446.84,-135.991,-92.6493,0
39195,761.46,762.82,756.49,757.72,759.62,-73.24,-956.05,346.68,-1.29,0.66,-0.47,-116.97,7840,0,82,-2.64688,14.344,-82.0265,7578.6,-10988.3,-2606.02,-133.96,-92.3921,0
39234,761.56,762.92,756.46,757.77,759.68,-52.73,-962.4,343.75,0.05,-0.29,-0.64,-119.59,7848,0,82,-2.41443,14.4929,-81.8422,7581.28,-11063.1,-2485.83,-135.175,-92.6329,0
39271,761.49,762.87,756.48,757.6,759.61,-73.73,-945.8,360.35,1.1,0.79,-0.76,-116.02,7855,0,82,-2.17807,14.2595,-82.024,7503.22,-10998,-2519.59,-134.083,-91.4759,0
39307,761.54,762.86,756.49,757.7,759.65,-62.99,-958.98,352.05,-0.47,0.62,-1.27,-117.33,7862,0,82,-2.19789,14.3396,-81.7136,7555.2,-11010.3,-2529.12,-134.743,-92.4596,0
39344,761.52,762.88,756.46,757.69,759.64,-66.89,-948.73,361.33,-0.93,-2.79,-1.5,-118.03,7870,0,82,-2.53677,14.6349,-82.4647,7566.52,-11073.3,-2534.47,-134.28,-91.7546,0
39380,761.54,762.87,756.44,757.7,759.64,-73.24,-962.89,350.59,-1.49,2.15,-1.05,-118.5,7877,0,82,-2.71505,14.3172,-81.7842,7544.66,-11021.1,-2523.5,-134.759,-92.2513,0
39416,761.5,762.89,756.39,757.65,759.61,-61.52,-963.38,349.12,1.49,0.08,-0.15,-119.25,7884,0,82,-2.78458,14.1395,-81.7426,7554.92,-11028.5,-2576.16,-134.918,-92.4233,0
39455,761.52,762.88,756.44,757.67,759.63,-63.48,-962.4,342.29,0.36,1.43,0.31,-118.2,7892,0,82,-2.90271,14.1043,-81.4267,7549.27,-11027.2,-2506.12,-135.426,-92.7136,0
39492,761.45,762.89,756.45,757.75,759.64,-63.48,-956.54,340.33,1.3,1.89,-1.21,-118.96,7899,0,82,-2.36947,14.1893,-82.6469,7554.08,-11007.4,-2547.06,-133.187,-91.402,0
39529,761.49,762.85,756.53,757.71,759.65,-63.48,-964.36,345.7,-0.78,0.63,0.43,-116.07,7907,0,82,-2.63447,14.2044,-80.1294,7504.46,-11011.7,-2595.25,-137.425,-93.6544,0
39565,761.49,762.86,756.43,757.67,759.61,-65.43,-960.94,350.1,0.73,-0.87,0.34,-118.01,7914,0,82,-2.17492,14.1293,-81.5905,7600.39,-11037.3,-2711.58,-135.277,-93.1529,0
39602,761.55,762.83,756.52,757.69,759.64,-64.45,-957.03,353.52,-1.82,2.98,-0.63,-116.17,7921,0,82,-2.44743,14.0629,-81.4541,7526.59,-11039.6,-2582.52,-135.537,-92.405,0
39638,761.53,762.86,756.42,757.71,759.63,-76.17,-962.89,354,1.63,-2.48,0.85,-119,7929,0,82,-2.64262,14.3996,-82.0086,7577.02,-11021.1,-2633.75,-134.39,-92.393,0
39677,761.5,762.8,756.44,757.63,759.59,-67.38,-955.57,358.4,-0.86,1.2,-1.5,-116.79,7936,0,82,-2.22194,14.493,-81.3865,7578.01,-11019.5,-2545.25,-135.398,-93.1114,0
39713,761.45,762.93,756.45,757.62,759.61,-59.57,-954.1,352.54,-0.36,-1.98,-0.63,-117.35,7944,0,82,-2.53154,14.381,-80.7266,7481.51,-10991.2,-2641.93,-136.153,-92.6769,0
39749,761.53,762.86,756.47,757.68,759.64,-63.96,-958.5,348.63,-1.79,0.08,-0.33,-117.31,7951,0,82,-2.36273,14.0447,-81.9727,7556.97,-11020.1,-2600.86,-134.436,-92.1887,0
39786,761.48,762.85,756.47,757.73,759.63,-56.64,-957.03,354.98,-0.13,1.31,0.34,-117.89,7958,0,82,-2.47886,14.2477,-81.1076,7508.22,-11087.7,-2666.57,-136.705,-92.5712,0
39822,761.55,762.89,756.51,757.74,759.67,-75.2,-952.15,357.91,-1.26,0.07,0.55,-117.66,7965,0,82,-2.40229,14.4735,-81.4662,7580.75,-11022.9,-2740.78,-135.307,-93.0541,0
39858,761.57,762.93,756.44,757.69,759.66,-57.13,-954.1,351.56,-0.75,-0.77,-0.21,-118.92,7973,0,82,-2.41427,14.2346,-80.6631,7522.93,-10977.9,-2566.03,-136.097,-93.2646,0
39897,761.59,762.92,756.53,757.7,759.68,-76.66,-950.2,356.45,0.76,2.44,0.03,-116.91,7980,0,82,-2.45235,14.3472,-81.4855,7541.42,-11007.8,-2526.5,-135.089,-92.5497,0
39934,761.54,762.9,756.47,757.68,759.65,-64.45,-961.43,349.61,0.15,-1.89,-0.11,-117.87,7988,0,82,-2.50947,14.7365,-81.2461,7587.48,-11055,-2564.38,-136.068,-93.3889,0
39970,761.57,762.91,756.4,757.76,759.66,-66.89,-957.03,357.91,-1.8,-0.57,-0.96,-120.79,7995,0,82,-2.46638,14.4818,-82.5021,7599.16,-11060.3,-2700.5,-134.06,-92.1087,0
40006,761.5,762.85,756.37,757.74,759.61,-62.01,-950.68,350.59,0.8,1.53,-0.61,-120.48,8002,0,82,-2.66935,14.5961,-80.5715,7580.7,-11086.1,-2551.12,-137.596,-94.0889,0
