currTime,s1,s2,s3,s4,s,AccX,AccY,AccZ,GyroX,GyroY,GyroZ,GRF
25,767.50,765.79,762.18,757.91,763.35,65.92,-874.51,518.55,0.80,-0.15,0.92,-22.54
59,767.58,765.91,762.22,758.00,763.43,73.24,-873.05,517.58,0.11,1.67,-2.28,-24.06
93,767.51,765.94,762.30,758.06,763.45,84.47,-870.12,516.60,-0.43,3.45,0.24,-23.04
127,767.47,765.96,762.29,758.04,763.44,73.24,-865.72,515.14,-0.91,2.38,-2.44,-22.85
160,767.47,766.05,762.35,758.03,763.47,70.31,-871.58,521.97,1.06,1.98,1.74,-21.93
194,767.36,766.12,762.36,758.01,763.46,75.20,-872.07,507.81,-2.51,1.35,1.20,-21.79
228,767.35,766.12,762.36,757.98,763.45,70.80,-862.79,529.30,1.20,3.58,1.59,-21.23
262,767.27,766.11,762.41,758.05,763.46,66.41,-865.23,519.53,-0.94,2.61,0.68,-20.66
296,767.17,766.16,762.38,758.07,763.44,84.96,-879.88,521.00,-0.75,3.95,0.02,-21.57
331,767.14,766.17,762.40,758.08,763.45,70.80,-867.68,522.46,-1.16,2.36,1.18,-21.37
365,767.05,766.24,762.37,758.15,763.45,66.89,-875.49,514.16,-0.63,1.08,1.47,-23.33
399,766.98,766.19,762.38,758.13,763.42,74.71,-862.30,522.95,0.78,1.41,0.24,-22.42
433,766.96,766.16,762.42,758.16,763.42,75.20,-870.12,535.64,0.18,1.91,1.35,-21.35
467,766.88,766.26,762.41,758.12,763.42,73.24,-878.91,520.51,-2.57,0.15,-1.27,-21.63
501,766.64,766.18,762.37,758.11,763.33,75.68,-863.28,522.95,1.01,2.47,1.25,-21.05
535,766.67,766.16,762.42,758.10,763.34,66.89,-874.02,502.93,1.15,-1.24,-1.62,-19.57
570,766.69,766.15,762.42,758.15,763.35,78.61,-868.16,527.34,0.37,-0.44,0.57,-20.04
604,766.57,766.16,762.41,758.10,763.31,76.66,-878.42,513.67,0.63,-0.20,1.82,-19.48
638,766.54,766.11,762.41,758.12,763.29,71.29,-856.93,523.93,0.26,1.81,0.50,-19.22
672,766.57,766.03,762.36,758.11,763.27,72.27,-873.05,519.04,-1.03,4.15,-1.76,-19.86
706,766.56,766.07,762.38,758.10,763.28,80.57,-874.02,520.02,-0.04,0.48,0.52,-19.34
740,766.54,766.14,762.36,758.09,763.28,80.08,-870.61,512.21,2.12,-1.37,-3.30,-20.27
774,766.55,766.01,762.30,758.10,763.24,80.57,-875.98,520.02,0.91,-0.18,-1.42,-20.76
809,766.60,765.94,762.34,758.05,763.23,84.47,-860.35,514.16,0.91,-0.94,1.40,-18.84
843,766.72,765.95,762.22,757.99,763.22,68.36,-862.79,530.27,0.15,1.34,-0.21,-21.26
877,766.74,765.81,762.22,757.94,763.18,71.78,-878.91,516.11,0.83,-0.31,-0.44,-19.59
913,766.79,765.88,762.16,757.93,763.19,79.59,-870.61,515.62,-1.27,2.34,0.40,-21.82
947,766.78,765.77,762.21,757.99,763.19,74.71,-881.84,512.70,2.23,2.21,-0.01,-20.41
981,766.77,765.89,762.19,757.99,763.21,77.64,-861.82,521.97,2.18,0.27,2.07,-21.75
1015,766.67,765.89,762.16,758.03,763.19,73.24,-865.72,527.83,2.14,2.52,0.00,-22.68
1049,766.56,765.89,762.28,758.01,763.18,76.17,-866.70,532.23,0.24,-0.19,1.44,-19.28
1083,766.39,765.92,762.28,758.00,763.15,77.64,-862.79,521.00,-1.42,-0.20,2.30,-18.78
1117,766.18,766.02,762.28,757.98,763.11,74.22,-881.35,518.55,-0.21,2.53,2.41,-18.44
1152,765.83,766.21,762.32,758.13,763.12,81.05,-871.09,508.30,1.98,1.84,-0.17,-19.91
1186,765.46,766.50,762.34,758.20,763.13,81.05,-871.58,513.67,2.33,0.65,1.58,-21.57
1220,765.18,766.47,762.41,758.33,763.10,65.43,-867.68,527.34,-0.03,-2.69,2.46,-20.39
1254,765.03,766.57,762.44,758.35,763.10,77.64,-869.63,504.39,0.56,1.53,2.15,-20.37
1288,765.03,766.60,762.48,758.28,763.10,74.22,-872.56,513.18,-0.21,-0.07,1.60,-18.59
1322,765.05,766.66,762.48,758.35,763.14,66.41,-874.51,534.18,3.57,0.82,2.05,-20.05
1356,765.09,766.62,762.54,758.34,763.15,71.78,-864.26,519.04,-2.33,1.27,0.61,-18.33
1391,765.15,766.60,762.52,758.36,763.16,77.15,-876.46,510.25,0.92,0.92,1.31,-19.10
1425,765.25,766.59,762.51,758.37,763.18,72.27,-867.19,520.02,-0.35,1.50,3.05,-19.65
1458,765.29,766.56,762.43,758.28,763.14,85.45,-881.84,522.46,-0.11,1.70,2.12,-20.29
1492,765.38,766.51,762.38,758.21,763.12,70.80,-857.91,524.41,-0.01,1.66,-0.51,-20.68
1525,765.41,766.63,762.38,758.35,763.19,83.01,-874.51,534.18,0.17,-0.45,-1.39,-23.42
1559,765.54,766.70,762.31,758.30,763.21,61.52,-867.19,520.02,0.01,2.74,-0.56,-25.75
1593,765.50,766.66,762.40,758.39,763.24,75.20,-862.30,529.30,1.21,-0.26,-0.72,-24.31
1626,765.48,766.66,762.39,758.37,763.23,78.61,-862.79,529.79,0.69,2.20,1.71,-24.08
1661,765.53,766.64,762.41,758.45,763.26,64.94,-872.07,516.11,0.47,1.89,-1.99,-24.90
1695,765.55,766.75,762.35,758.35,763.25,70.80,-863.77,517.58,1.74,2.14,3.65,-25.75
1728,765.51,766.77,762.48,758.39,763.29,85.94,-861.33,526.37,-0.47,3.11,0.99,-23.20
1762,765.48,766.84,762.41,758.38,763.28,68.85,-883.30,521.00,0.34,3.04,2.77,-25.37
1796,765.33,766.97,762.48,758.41,763.30,77.15,-868.16,518.55,-0.37,0.49,0.37,-24.39
1830,765.29,767.01,762.54,758.42,763.32,76.66,-865.72,534.67,0.96,2.30,1.32,-23.30
1865,765.27,767.00,762.47,758.50,763.31,81.54,-867.19,521.48,0.64,1.63,1.31,-26.15
1899,765.34,767.01,762.49,758.46,763.33,59.57,-866.70,516.11,1.43,1.43,-2.04,-25.37
1934,765.35,767.06,762.47,758.44,763.33,70.80,-865.72,507.32,1.01,1.62,1.07,-25.91
1968,765.36,767.06,762.48,758.53,763.36,73.73,-870.61,527.83,1.00,0.65,0.99,-26.90
2002,765.31,767.07,762.53,758.48,763.35,78.12,-887.70,514.65,1.13,0.52,1.66,-25.04
2036,765.18,767.15,762.55,758.62,763.38,70.80,-870.12,521.00,2.80,1.21,1.44,-26.65
2070,765.18,767.12,762.55,758.55,763.35,67.87,-879.39,527.34,0.15,-0.37,1.34,-25.54
2104,765.11,767.19,762.64,758.52,763.37,68.85,-873.05,517.58,-0.04,0.59,-0.92,-23.02
2138,765.05,767.13,762.65,758.59,763.36,59.57,-854.00,513.18,1.88,-0.44,4.64,-23.18
2173,765.01,767.20,762.64,758.65,763.37,63.48,-869.14,528.81,-0.11,0.80,-0.82,-24.79
2207,764.94,767.23,762.68,758.57,763.36,71.78,-875.49,522.95,0.11,1.89,1.20,-22.46
2241,764.78,767.33,762.75,758.64,763.38,73.24,-872.56,525.88,-0.33,-1.43,2.51,-22.13
2275,764.66,767.40,762.85,758.66,763.39,80.08,-862.30,525.39,-0.48,1.39,-0.08,-20.02
2309,764.63,767.47,762.83,758.64,763.39,65.92,-876.46,510.25,0.86,1.33,-0.05,-20.80
2343,764.46,767.48,762.76,758.74,763.36,59.08,-890.62,515.14,-0.82,1.28,1.88,-23.26
2378,764.33,767.50,762.89,758.75,763.37,75.20,-883.79,512.21,-0.37,0.81,1.58,-20.14
2412,764.24,767.54,762.90,758.77,763.36,64.94,-865.23,518.55,-0.92,2.12,1.54,-20.08
2446,764.18,767.59,762.98,758.87,763.40,63.48,-868.65,506.84,-0.11,0.67,2.32,-19.79
2480,764.13,767.63,762.99,758.77,763.38,72.75,-867.19,520.02,1.97,1.96,2.07,-18.29
2514,763.96,767.63,762.97,758.79,763.34,68.36,-883.30,512.70,0.63,2.12,2.10,-18.42
2548,763.90,767.67,762.97,758.83,763.34,81.05,-870.12,521.48,-0.46,0.99,3.61,-19.16
2582,763.83,767.75,763.02,758.80,763.35,67.38,-864.26,529.79,0.21,3.21,0.18,-17.93
2616,763.65,767.80,763.10,758.92,763.37,79.59,-877.93,515.62,1.62,1.87,1.90,-17.42
2650,763.59,767.77,763.10,758.84,763.32,77.64,-881.84,521.97,2.05,2.15,-1.82,-15.84
2684,763.40,767.91,763.13,758.91,763.34,62.50,-877.93,521.48,-0.43,2.70,0.85,-16.49
2719,763.16,767.96,763.22,758.89,763.31,80.08,-875.98,507.81,-1.63,2.92,1.08,-13.57
2753,763.02,768.06,763.28,758.94,763.33,72.27,-890.62,521.97,2.64,2.73,0.80,-13.11
2787,762.82,768.19,763.37,758.99,763.34,71.29,-872.07,530.76,0.46,0.61,0.31,-11.86
2823,762.64,768.27,763.39,759.03,763.33,52.25,-870.12,522.46,-0.74,0.92,0.22,-12.20
2857,762.46,768.36,763.46,759.07,763.34,82.03,-882.32,516.11,0.72,2.31,-1.55,-11.12
2891,762.31,768.45,763.56,759.08,763.35,72.27,-884.28,526.86,-0.13,-0.85,0.39,-8.88
2925,762.02,768.66,763.61,759.07,763.34,63.96,-868.16,529.79,0.57,1.33,1.86,-8.28
2959,761.77,768.67,763.76,759.27,763.37,63.96,-875.98,532.71,-2.29,2.90,1.15,-6.63
2993,761.68,768.80,763.76,759.29,763.38,57.62,-872.56,523.93,-0.98,0.65,1.57,-7.52
3028,761.66,768.82,763.83,759.28,763.40,64.45,-867.68,513.18,3.57,1.42,0.18,-5.90
3062,761.76,768.92,763.86,759.24,763.44,64.45,-877.93,527.34,-1.15,4.76,-1.14,-5.68
3096,761.76,768.71,763.87,759.26,763.40,60.06,-868.65,522.46,0.38,1.64,-1.69,-4.19
3130,761.91,768.70,763.79,759.22,763.41,60.06,-871.09,527.83,-1.38,2.22,0.89,-6.03
3163,762.02,768.60,763.73,759.15,763.38,70.31,-868.65,519.04,-0.49,0.99,-0.65,-6.08
3197,762.23,768.48,763.67,759.12,763.37,75.20,-870.61,527.83,-1.90,-0.02,-0.28,-6.81
3230,762.48,768.35,763.67,759.07,763.39,70.31,-872.56,532.23,-1.40,2.67,-1.44,-5.75
3264,762.70,768.29,763.51,759.02,763.38,73.24,-872.07,531.25,-0.30,0.11,0.30,-9.40
3297,762.95,768.18,763.48,758.89,763.37,57.13,-867.68,520.51,0.54,1.83,2.02,-8.13
3332,763.17,768.04,763.49,758.86,763.39,76.66,-863.28,521.00,0.52,-1.31,0.02,-7.10
3366,763.47,767.90,763.37,758.80,763.38,74.71,-862.79,514.16,-2.59,0.85,-0.44,-9.01
3399,763.51,767.83,763.34,758.76,763.36,80.57,-869.14,512.70,-0.18,0.56,-1.43,-8.79
3433,763.57,767.85,763.33,758.67,763.36,62.50,-878.91,517.58,0.67,1.43,0.59,-8.22
3467,763.55,767.87,763.36,758.77,763.39,73.24,-878.42,530.27,0.02,3.12,2.22,-9.00
3501,763.45,767.92,763.34,758.72,763.36,62.99,-865.72,514.65,-0.34,1.34,-1.26,-8.81
3535,763.41,768.00,763.34,758.70,763.36,58.11,-860.35,520.51,0.34,1.63,4.51,-8.78
3569,763.31,768.00,763.36,758.87,763.38,62.99,-866.21,521.00,1.31,1.21,0.40,-10.66
3603,763.21,767.98,763.35,758.85,763.35,69.82,-864.26,529.79,-1.31,2.55,1.23,-10.07
3637,763.06,768.08,763.43,758.83,763.35,70.80,-860.84,527.83,0.30,0.89,0.98,-8.03
3671,762.95,768.10,763.45,758.86,763.34,79.59,-871.09,516.60,-0.38,1.09,-0.76,-7.86
3705,762.88,768.14,763.48,758.93,763.36,79.10,-874.51,502.44,0.25,2.11,0.94,-8.23
3740,762.84,768.14,763.62,758.96,763.39,62.01,-866.21,526.37,-0.26,3.92,-1.40,-5.04
3775,762.76,768.18,763.53,758.90,763.34,59.08,-875.98,525.39,1.31,-0.24,-0.90,-6.27
3810,762.72,768.20,763.55,758.97,763.36,75.68,-875.49,532.23,-1.73,0.78,-2.02,-7.16
3844,762.69,768.20,763.53,758.93,763.34,73.24,-874.02,527.34,0.71,0.40,0.37,-6.77
3878,762.76,768.20,763.52,758.88,763.34,66.89,-857.91,518.55,-2.15,0.95,1.18,-6.55
3912,762.74,768.25,763.58,758.93,763.38,58.11,-878.42,517.58,-0.34,0.37,2.22,-6.13
3946,762.65,768.24,763.53,758.86,763.32,74.22,-871.09,512.70,0.56,2.12,2.85,-5.93
3980,762.69,768.21,763.54,758.94,763.34,72.27,-860.84,511.72,-1.47,0.74,0.12,-6.82
4014,762.73,768.20,763.58,758.98,763.37,67.87,-878.91,524.90,-0.16,1.63,0.73,-6.23
4049,762.68,768.21,763.55,758.98,763.36,70.80,-874.51,516.11,0.81,0.55,1.66,-6.97
4083,762.73,768.23,763.59,759.01,763.39,66.41,-879.39,530.27,1.76,2.22,-0.85,-6.67
4117,762.73,768.26,763.59,759.07,763.41,66.89,-880.86,504.88,1.73,2.78,1.60,-7.80
4151,762.70,768.21,763.63,759.03,763.39,81.05,-871.09,533.69,1.27,0.18,1.98,-5.93
4185,762.49,768.23,763.65,759.04,763.35,71.78,-867.68,526.86,-0.64,1.05,2.81,-5.01
4219,762.47,768.30,763.64,758.99,763.35,68.36,-868.16,514.65,0.21,0.67,-0.20,-4.95
4253,762.48,768.36,763.66,758.99,763.37,73.24,-883.30,527.34,0.53,2.50,-2.08,-5.09
4288,762.38,768.24,763.67,759.08,763.34,63.96,-913.57,500.49,9.63,10.42,1.82,-4.83
4322,762.32,768.35,763.71,759.07,763.36,48.83,-869.14,536.62,10.83,7.49,4.99,-4.31
4356,762.27,768.27,763.77,759.08,763.35,76.66,-832.52,525.88,-7.42,1.37,-0.10,-2.28
4390,762.13,768.34,763.75,759.11,763.33,94.73,-860.84,504.88,0.08,-6.50,-0.36,-3.16
4424,762.04,768.35,763.79,759.16,763.34,60.06,-890.62,531.25,-8.60,-6.87,1.16,-2.76
4458,762.07,768.33,763.77,759.24,763.35,62.01,-891.11,518.07,-9.91,-4.66,-0.22,-4.17
4492,761.95,768.38,763.77,759.28,763.35,66.41,-880.37,529.30,-4.24,0.62,-0.31,-4.75
4527,761.88,768.34,763.73,759.15,763.27,69.34,-857.42,525.88,0.06,1.24,-1.73,-3.46
4561,761.87,768.38,763.80,759.24,763.32,77.15,-857.91,514.16,0.24,3.77,0.24,-3.05
4595,761.78,768.32,763.83,759.15,763.27,75.68,-872.56,513.18,1.65,1.05,-0.81,-0.36
4629,761.92,768.29,763.82,759.20,763.31,75.68,-862.30,541.99,0.39,-2.67,1.14,-1.48
4663,761.96,768.25,763.77,759.23,763.30,89.84,-843.75,518.07,-0.15,0.85,-1.31,-3.00
4697,762.14,768.13,763.68,759.14,763.27,-15.14,-862.79,492.19,0.21,-3.27,-0.43,-3.59
4733,762.15,767.93,763.59,759.06,763.18,50.78,-734.86,589.84,-6.27,-1.98,-1.37,-3.03
4767,762.33,767.90,763.52,758.97,763.18,49.32,-852.05,536.62,0.00,1.68,-0.57,-3.95
4800,762.46,767.87,763.50,758.90,763.18,82.52,-882.81,518.55,-4.70,-3.02,1.50,-3.73
4834,762.62,767.77,763.32,758.91,763.16,58.11,-891.60,518.55,-0.43,2.95,-0.52,-7.85
4868,762.78,767.70,763.32,758.81,763.15,69.34,-885.74,524.90,1.57,3.49,0.69,-6.53
4901,762.91,767.62,763.26,758.68,763.12,69.34,-887.21,515.62,1.51,4.79,-0.41,-6.08
4935,763.08,767.54,763.17,758.71,763.12,75.68,-875.98,527.83,4.64,11.83,-1.73,-8.47
4969,763.28,767.42,763.16,758.74,763.15,6.84,-874.51,483.89,5.31,0.70,2.07,-9.03
5003,763.35,767.33,763.11,758.63,763.10,37.60,-806.64,547.36,-0.11,3.55,0.08,-7.95
5037,763.42,767.30,763.00,758.58,763.07,49.80,-822.27,549.32,-2.63,0.98,-0.09,-10.25
5071,763.52,767.30,763.01,758.56,763.10,78.12,-865.72,526.86,-3.20,-1.31,2.59,-9.82
5104,763.61,767.19,763.01,758.59,763.10,73.73,-878.42,518.55,0.25,-2.00,-0.13,-9.89
5138,763.86,767.13,762.97,758.52,763.12,78.61,-871.58,512.70,0.12,0.25,-2.47,-10.11
5172,764.07,767.07,762.90,758.46,763.12,66.41,-859.86,528.81,-0.39,0.35,-0.63,-11.16
5206,764.16,766.99,762.82,758.47,763.11,69.34,-881.84,533.69,1.53,1.17,0.15,-13.19
5240,764.32,766.88,762.79,758.39,763.09,69.82,-876.46,533.69,-0.82,3.80,2.56,-12.30
5274,764.49,766.85,762.79,758.39,763.13,57.13,-866.70,527.34,-0.68,0.71,2.49,-12.71
5309,764.72,766.76,762.63,758.27,763.10,63.48,-863.77,530.27,0.00,0.98,3.83,-15.00
5343,764.83,766.72,762.66,758.38,763.15,81.54,-861.82,520.51,-0.47,0.66,0.18,-15.90
5377,765.00,766.68,762.62,758.24,763.13,73.73,-862.79,526.37,0.16,0.24,-0.79,-15.04
5411,765.13,766.69,762.64,758.26,763.18,69.82,-866.70,536.13,1.57,0.72,0.37,-15.42
5445,765.25,766.55,762.64,758.15,763.15,77.64,-846.68,515.14,-0.31,2.94,0.03,-13.06
5479,765.30,766.59,762.58,758.24,763.18,77.64,-872.56,527.83,-2.36,-0.82,1.90,-16.45
5513,765.25,766.55,762.56,758.19,763.13,62.01,-877.44,524.41,0.96,0.30,0.82,-15.68
5548,765.39,766.56,762.57,758.14,763.16,76.66,-872.07,524.90,0.40,1.43,0.60,-15.18
5582,765.55,766.52,762.53,758.16,763.19,83.98,-864.75,521.97,1.13,0.17,-0.85,-16.51
5616,765.70,766.49,762.46,758.11,763.19,72.27,-865.23,533.69,-3.06,-1.53,-0.02,-18.03
5650,765.87,766.45,762.43,758.15,763.22,72.27,-866.21,520.02,1.78,-0.08,1.60,-19.48
5686,765.94,766.44,762.46,757.96,763.20,64.94,-863.28,517.09,-0.11,0.08,-1.41,-16.29
5720,766.09,766.44,762.46,758.07,763.26,70.31,-879.88,515.14,0.39,1.57,0.08,-18.16
5754,765.99,766.42,762.47,758.02,763.23,83.50,-884.77,510.74,-0.40,3.62,-0.36,-16.68
5788,765.88,766.53,762.45,758.04,763.22,75.68,-889.65,521.97,-0.94,1.90,4.48,-18.03
5822,765.74,766.57,762.59,758.08,763.24,77.15,-852.05,517.58,-0.35,0.73,0.56,-15.02
5857,765.90,766.64,762.54,758.04,763.28,72.75,-872.07,521.48,2.05,2.19,0.53,-16.96
5891,766.01,766.81,762.62,758.07,763.38,73.24,-866.70,517.58,-0.13,1.72,-0.20,-17.07
5925,766.15,766.70,762.59,758.01,763.36,76.66,-875.00,526.37,1.50,2.21,3.55,-16.54
5959,766.31,766.67,762.58,757.99,763.39,80.57,-851.07,527.34,1.82,0.73,-1.27,-16.65
5993,766.81,766.62,762.41,757.85,763.42,71.78,-866.21,524.90,0.25,0.07,-0.49,-20.26
6027,767.35,766.44,762.38,757.73,763.47,83.98,-863.77,516.60,-2.78,2.16,1.50,-19.63
6061,767.84,766.22,762.27,757.64,763.49,75.20,-867.68,513.18,-4.74,0.15,0.31,-20.98
6096,768.58,765.94,762.11,757.54,763.54,74.22,-870.12,521.00,-3.45,1.85,-0.76,-23.92
6130,769.32,765.66,761.91,757.36,763.56,77.64,-867.19,540.53,-2.85,-0.16,-0.43,-26.39
6164,769.96,765.36,761.65,757.24,763.55,80.08,-870.12,513.18,-1.66,1.66,-1.61,-31.02
6198,770.51,765.14,761.37,757.14,763.54,76.66,-864.26,516.60,-3.35,0.05,-0.94,-36.64
6232,771.07,765.08,761.23,757.00,763.60,66.41,-861.82,518.55,-1.96,-1.25,-1.49,-39.42
6266,771.64,765.00,761.17,756.97,763.69,83.98,-884.77,497.07,-4.13,2.28,-0.06,-41.67
6300,772.05,764.87,761.13,756.91,763.74,83.50,-879.88,508.30,-1.53,0.42,1.79,-42.29
6335,772.30,764.90,761.07,756.90,763.79,78.12,-887.70,503.91,1.57,1.80,-0.29,-44.74
6369,772.62,764.86,760.99,756.85,763.83,68.85,-872.07,500.98,-0.18,1.80,-1.89,-46.68
6403,772.60,764.93,761.03,756.95,763.88,85.94,-882.81,505.37,3.24,0.14,1.70,-47.55
6436,772.33,764.97,761.04,756.99,763.83,80.57,-877.93,516.60,-1.22,-0.38,1.32,-47.35
6470,771.60,765.15,761.08,756.98,763.70,83.98,-888.67,518.07,0.40,-0.14,-1.58,-45.39
6504,771.02,765.25,761.15,756.99,763.60,76.17,-875.98,504.39,2.05,2.57,0.56,-42.37
6537,770.11,765.58,761.29,757.09,763.52,81.05,-882.81,502.44,0.99,1.92,1.66,-39.81
6571,769.10,765.95,761.44,757.25,763.44,72.27,-874.02,520.02,1.42,1.44,-0.40,-37.95
6604,767.94,766.40,761.61,757.48,763.36,71.78,-875.00,510.25,4.08,2.48,1.60,-36.83
6640,767.09,766.74,761.81,757.62,763.32,66.41,-880.86,516.11,-0.65,4.60,2.50,-33.84
6674,766.49,766.99,761.95,757.72,763.29,72.75,-876.46,514.65,1.47,0.58,1.95,-31.59
6708,766.23,767.16,762.10,757.84,763.33,63.48,-877.93,506.35,2.57,-0.60,2.02,-30.20
6742,766.05,767.25,762.17,757.90,763.34,76.66,-870.61,521.00,-1.02,-0.32,1.19,-29.30
6776,765.99,767.32,762.17,757.91,763.35,73.73,-857.42,505.86,2.83,-0.95,0.85,-29.73
6809,766.14,767.38,762.21,757.91,763.41,75.68,-871.09,522.46,0.65,1.85,0.86,-29.96
6843,766.32,767.32,762.20,757.91,763.44,79.10,-877.93,517.09,0.08,0.76,-1.14,-30.23
6877,766.62,767.31,762.18,757.84,763.49,77.15,-865.23,513.18,-0.12,-0.27,0.52,-30.71
6912,766.83,767.30,762.10,757.82,763.51,76.66,-877.44,519.04,-0.65,-0.70,-1.49,-33.09
6946,767.10,767.25,762.15,757.79,763.57,67.87,-878.91,514.16,-0.15,1.88,-0.89,-31.83
6980,767.27,767.33,762.11,757.89,763.65,73.24,-871.09,513.18,-0.19,2.90,1.06,-35.38
7014,767.30,767.49,762.17,757.88,763.71,71.29,-877.44,507.32,0.92,0.69,2.60,-35.29
7048,767.34,767.49,762.12,757.92,763.72,83.50,-883.30,512.21,1.55,2.95,-0.76,-37.24
7082,767.46,767.44,762.16,758.00,763.77,86.91,-879.39,522.46,1.31,-0.50,-1.74,-37.32
7116,767.75,767.46,762.14,757.91,763.81,64.94,-878.42,521.97,1.67,3.44,0.97,-37.60
7151,767.97,767.42,762.12,757.87,763.84,79.59,-865.23,511.23,-1.89,1.81,1.83,-38.18
7185,768.22,767.40,762.08,757.86,763.89,84.96,-869.14,517.58,0.57,0.57,-0.18,-39.70
7219,768.45,767.28,762.06,757.90,763.93,82.03,-868.65,503.91,0.01,1.47,2.74,-40.58
7253,768.83,767.30,762.07,757.91,764.03,54.69,-862.30,526.37,1.15,1.14,-0.31,-41.84
7287,769.09,767.23,762.03,757.83,764.04,74.71,-874.02,514.65,0.28,3.11,-0.27,-42.20
7321,769.18,767.20,762.05,757.74,764.04,78.61,-874.51,521.48,-0.93,0.78,-0.78,-40.33
7355,769.16,767.15,761.99,757.70,764.00,67.87,-880.86,505.37,1.28,-1.50,-0.08,-40.73
7390,769.23,767.12,761.93,757.74,764.00,70.80,-881.35,517.58,0.86,2.24,1.83,-42.86
7424,769.43,766.87,761.91,757.64,763.96,79.10,-873.05,525.39,0.48,-0.94,0.98,-40.50
7458,770.00,766.41,761.80,757.57,763.94,75.20,-870.12,525.88,-1.18,-0.23,0.21,-40.52
7492,770.40,765.93,761.65,757.41,763.85,87.40,-855.96,522.46,0.33,2.34,-1.66,-39.38
7526,770.62,765.48,761.49,757.24,763.71,89.36,-883.79,520.02,0.70,0.51,-1.60,-38.20
7560,770.54,765.18,761.40,757.15,763.57,78.12,-886.23,505.37,1.11,1.53,-3.83,-36.38
7596,770.56,764.78,761.27,757.14,763.44,73.73,-868.65,507.81,1.15,2.50,0.66,-36.25
7630,770.63,764.52,761.19,757.15,763.37,84.96,-878.42,512.21,0.75,-0.66,-1.20,-36.63
7664,770.75,764.33,761.13,757.12,763.33,81.54,-874.51,509.28,0.08,1.40,1.95,-36.48
7699,770.93,764.35,761.17,757.03,763.37,88.87,-880.37,515.14,0.82,1.73,2.24,-35.06
7733,771.59,764.40,761.04,757.11,763.53,80.57,-870.61,516.11,1.89,2.39,0.17,-42.03
7767,772.93,764.44,761.00,757.08,763.86,71.78,-875.00,518.07,-0.08,1.44,2.24,-47.48
7801,775.05,764.64,760.89,757.09,764.42,79.10,-874.02,513.18,3.73,2.78,-0.40,-59.22
7835,778.08,764.98,760.95,757.24,765.31,88.38,-870.61,513.67,2.11,0.89,-4.30,-73.22
7869,782.15,765.46,761.11,757.43,766.54,64.94,-885.25,518.55,2.23,0.53,-2.50,-89.77
7903,786.91,766.36,761.19,757.56,768.00,90.82,-862.79,532.23,1.31,0.14,0.56,-113.31
7938,791.17,767.27,761.34,757.87,769.41,75.20,-862.30,532.23,3.89,2.34,0.79,-136.06
7972,794.52,768.35,761.42,758.04,770.58,88.38,-863.28,527.34,0.27,-0.29,3.27,-156.66
8006,797.31,769.00,761.42,758.15,771.47,76.17,-878.42,517.09,1.93,1.47,2.48,-172.97
8040,798.90,769.51,761.30,758.07,771.95,78.12,-864.75,523.44,-2.46,-0.69,1.18,-184.37
8074,799.71,769.81,761.19,757.93,772.16,84.96,-867.68,522.46,-3.15,0.11,0.55,-190.45
8107,799.77,770.23,761.12,757.88,772.25,90.33,-878.42,523.93,-4.44,-1.21,1.50,-194.84
8141,799.49,770.81,761.03,757.74,772.27,78.61,-898.93,523.93,-5.60,1.58,1.80,-198.62
8174,798.87,771.33,760.92,757.76,772.22,67.38,-873.54,512.21,-2.98,-1.28,1.11,-203.70
8208,798.21,771.91,760.92,757.71,772.19,81.54,-870.12,516.11,-4.19,-1.95,1.99,-205.40
8241,797.53,772.29,760.78,757.67,772.07,83.01,-873.05,520.02,-5.43,-0.38,0.64,-209.25
8276,796.33,772.21,760.66,757.44,771.66,68.36,-878.42,496.09,-10.76,-1.09,1.27,-203.87
8310,793.71,771.63,760.30,757.15,770.70,65.92,-869.63,502.44,-13.05,-1.42,3.95,-194.85
8343,787.72,770.01,759.66,756.73,768.53,83.98,-908.69,472.17,-19.00,-4.33,1.18,-171.28
8377,777.18,766.85,758.65,756.24,764.73,86.91,-941.89,444.34,-15.57,1.73,2.00,-127.64
8411,765.71,763.15,757.59,755.69,760.53,61.04,-899.90,482.42,-22.05,5.13,1.95,-76.93
8445,756.82,759.91,756.63,755.38,757.18,45.41,-916.99,459.47,-22.50,13.63,-6.55,-39.74
8479,750.37,757.53,755.94,755.16,754.75,-381.84,-958.50,644.53,39.58,25.28,4.50,-12.57
8513,747.24,756.36,755.60,755.00,753.55,-1167.97,-1334.96,154.79,-38.46,-204.75,64.38,1.53
8549,745.92,755.77,755.69,754.90,753.07,-546.39,-1216.80,-41.99,22.60,-250.14,87.51,14.55
8583,745.40,755.64,755.67,754.92,752.91,-111.33,-1198.73,-171.87,39.23,-209.18,115.47,16.46
8617,745.16,755.53,755.57,754.94,752.80,5.86,-829.10,14.65,-0.80,-167.48,119.50,15.41
8651,745.07,755.41,755.53,754.89,752.73,146.48,-1121.58,217.77,-29.18,-162.54,104.74,16.31
8686,744.92,755.44,755.57,754.98,752.72,146.97,-641.11,242.68,53.13,-148.95,89.50,16.36
8720,744.76,755.42,755.58,755.00,752.69,178.71,-874.51,402.83,34.12,-193.95,98.47,17.12
8754,744.69,755.42,755.67,755.06,752.71,386.23,-814.94,359.86,41.32,-195.47,107.07,18.63
8788,744.58,755.47,755.77,755.13,752.74,558.11,-1063.48,259.77,-10.22,-193.03,80.63,19.94
8822,744.51,755.85,756.13,755.28,752.94,751.46,-1032.71,195.80,-11.46,-157.92,68.37,23.96
8856,744.42,757.62,756.61,755.66,753.58,1268.55,-949.22,133.30,-19.64,-99.98,30.29,16.47
8890,744.29,760.30,757.69,756.36,754.66,532.23,-885.74,485.35,124.16,6.03,32.66,12.12
8925,744.15,763.11,759.49,756.90,755.91,74.71,-950.68,510.25,-20.40,14.44,24.50,26.89
8959,743.98,765.67,761.40,757.26,757.08,123.54,-1082.03,362.79,-45.44,10.37,10.14,49.33
8993,744.03,766.90,763.35,757.78,758.01,-3.91,-979.49,333.50,1.78,22.93,16.07,80.13
9027,743.96,767.08,764.79,758.19,758.51,-3.42,-875.00,421.39,2.03,-7.00,3.86,108.79
9061,743.95,767.12,765.16,758.50,758.68,39.06,-880.86,500.98,5.35,2.95,-4.57,113.16
9095,743.90,765.88,764.10,758.21,758.02,22.46,-939.45,416.99,-4.11,1.02,-3.38,101.17
9129,743.91,762.94,761.75,757.27,756.47,61.04,-959.96,445.31,-17.40,-1.30,-0.92,79.90
9164,743.90,759.42,758.91,756.21,754.61,28.81,-891.11,547.85,-40.87,12.83,4.36,53.16
9198,743.92,757.15,756.95,755.55,753.39,71.29,-789.06,554.20,-111.22,-27.97,-1.34,32.10
9232,743.84,756.20,756.42,755.21,752.92,138.18,-1102.54,493.16,-212.31,-73.95,-5.97,31.78
9266,743.85,756.17,756.03,755.12,752.79,325.68,-958.98,650.88,101.05,-80.85,-34.71,23.69
9300,743.85,755.99,755.80,755.06,752.67,584.96,-985.84,470.21,34.98,-151.53,-25.83,20.12
9334,743.84,755.96,755.66,755.08,752.64,651.37,-928.71,341.80,51.56,-137.29,-9.31,16.61
9368,743.86,755.89,755.61,755.00,752.59,636.23,-867.19,383.79,13.47,-142.12,-24.92,17.04
9403,743.79,755.91,755.56,754.98,752.56,610.35,-877.93,487.30,15.82,-130.54,-35.89,16.35
9437,743.76,755.75,755.54,755.09,752.53,547.36,-774.90,512.70,36.91,-94.11,-31.45,15.59
9471,743.79,755.55,755.48,755.01,752.45,496.58,-775.88,434.08,46.47,-60.94,-23.00,16.77
9507,743.77,755.37,755.42,754.99,752.39,394.04,-675.78,351.56,28.02,-23.60,-20.09,17.02
9541,743.78,755.20,755.36,754.97,752.33,310.55,-717.77,370.12,12.56,6.27,-22.39,17.22
9575,743.77,755.02,755.28,755.01,752.27,211.91,-753.42,371.09,4.69,28.94,-18.31,15.98
9609,743.80,754.88,755.21,754.92,752.20,122.56,-882.32,333.50,21.22,41.44,-27.89,16.62
9643,743.80,754.83,755.16,754.94,752.18,84.96,-853.52,265.14,35.15,47.73,-41.18,15.44
9676,743.76,754.68,755.15,754.94,752.13,58.11,-873.54,259.77,41.00,48.95,-38.22,16.66
9710,743.72,754.67,755.12,754.97,752.12,19.04,-796.87,249.51,48.24,55.13,-32.21,15.61
9743,743.68,754.71,755.09,754.93,752.10,-6.35,-827.15,263.67,8.49,33.43,-42.92,15.27
9777,743.76,754.82,755.13,754.89,752.15,-116.70,-866.70,237.30,-5.35,4.93,-41.43,15.84
9811,743.67,754.90,755.16,754.89,752.15,-218.26,-853.52,156.25,-4.55,-18.11,-1.54,16.10
9845,747.45,754.99,755.19,754.81,753.11,-1881.84,-2000.00,1521.97,-137.60,-42.40,168.18,4.43
9879,757.71,755.66,755.47,754.79,755.91,992.68,56.64,-406.25,-96.03,80.01,98.91,-29.00
9913,770.65,756.62,755.71,755.14,759.53,148.93,-1843.26,595.70,74.04,73.69,134.66,-80.35
9946,775.78,756.87,755.85,755.21,760.93,-47.36,-948.73,686.04,17.12,40.84,90.46,-97.40
9980,787.96,760.34,756.43,755.31,765.01,903.81,-943.36,-918.46,145.97,12.00,49.05,-153.93
10014,792.99,765.42,758.65,756.82,768.47,358.89,-1397.95,50.29,-72.11,-38.17,24.59,-178.90
10048,793.95,770.35,762.09,759.68,771.52,182.62,-1112.30,441.41,-33.04,-22.57,17.15,-178.23
10082,793.89,772.84,764.70,762.67,773.53,139.65,-966.31,519.04,-9.88,-6.31,7.60,-177.12
10116,791.30,774.91,766.72,765.17,774.53,125.49,-890.62,568.85,6.66,1.79,4.97,-171.12
10150,787.68,776.39,768.30,767.06,774.86,74.71,-856.93,561.04,-4.98,4.24,4.47,-158.95
10184,783.92,776.57,768.92,767.78,774.30,83.98,-850.59,573.73,-12.21,1.95,1.75,-142.63
10219,779.21,776.93,768.91,767.63,773.17,81.54,-839.84,558.11,-13.33,1.67,3.68,-127.55
10253,772.43,777.97,768.82,767.39,771.65,95.21,-852.54,553.71,-17.63,1.63,5.63,-111.37
10287,765.74,779.79,768.75,766.95,770.31,59.57,-845.21,553.22,-24.11,1.31,9.03,-98.11
10321,760.87,781.41,768.46,766.26,769.25,71.29,-888.18,512.70,-18.60,1.18,7.56,-91.69
10355,758.54,782.60,768.54,766.09,768.94,41.50,-887.70,498.54,-5.71,4.34,4.24,-88.76
10389,757.10,783.92,769.04,766.73,769.20,56.15,-855.96,539.55,1.22,4.20,2.95,-91.31
10423,756.24,785.37,769.75,767.59,769.74,59.08,-861.82,526.37,1.34,4.29,5.38,-94.96
10459,755.17,787.31,770.77,768.63,770.47,53.71,-875.49,514.65,2.95,5.02,4.92,-96.52
10493,753.34,789.07,772.05,769.70,771.04,62.01,-877.44,516.60,2.02,7.30,7.39,-88.33
10528,750.88,790.83,774.08,771.10,771.72,68.36,-863.28,539.55,6.73,11.52,5.51,-64.16
10562,748.15,793.13,776.84,772.78,772.72,55.18,-888.18,538.09,2.10,8.40,11.80,-29.18
10596,745.82,795.62,781.11,774.71,774.31,15.63,-866.21,532.23,7.11,12.62,11.43,36.72
10630,744.68,798.93,786.26,777.26,776.78,-2.93,-867.68,531.25,5.67,6.69,12.34,105.02
10664,744.39,801.87,789.18,779.62,778.77,180.18,-917.97,668.95,-63.98,1.66,24.72,120.35
10698,744.16,800.09,791.01,780.02,778.82,11.23,-952.15,569.82,-82.93,79.63,64.78,175.19
10732,744.11,792.42,792.01,778.43,776.74,113.77,-1149.41,527.83,-101.60,90.24,104.63,285.28
10767,744.14,780.39,792.36,776.09,773.24,80.57,-1165.53,438.96,-122.38,53.54,144.92,424.89
10801,744.04,769.28,791.83,772.23,769.34,21.00,-1581.54,474.61,-94.21,34.41,231.95,557.87
10835,743.83,761.60,787.17,767.31,764.98,-151.37,-1742.19,588.87,-55.66,56.46,250.13,576.48
10869,743.57,757.38,783.02,760.92,761.22,17.58,-2000.00,319.34,5.27,10.24,250.13,601.93
10903,743.51,755.78,758.74,756.42,753.61,393.07,-1569.82,354.49,188.05,70.32,247.57,76.31
10937,743.71,755.27,756.05,755.22,752.56,541.02,-852.05,937.50,-14.10,41.88,112.15,30.22
10971,743.55,755.10,755.85,755.07,752.39,600.59,-287.60,37.11,125.01,-27.47,-115.78,29.54
11006,743.46,755.04,755.70,755.12,752.33,514.65,-302.25,-20.02,69.89,7.41,-141.60,25.79
11040,743.48,755.03,755.60,755.05,752.29,365.72,-417.48,33.69,28.35,11.40,-150.86,24.31
11074,743.45,755.00,755.50,754.98,752.23,367.19,-1048.83,165.53,-2.65,-1.69,-234.93,23.32
11108,743.41,755.04,755.42,754.93,752.20,88.38,-1024.90,187.01,21.05,4.27,-250.14,21.83
11142,743.34,755.10,755.45,754.97,752.21,-12.70,-1238.77,303.71,-14.23,-29.45,-250.14,21.65
11176,743.31,755.10,755.48,754.89,752.20,95.70,-1510.25,347.17,-6.50,-33.18,-250.14,23.77
11210,743.38,755.09,755.76,754.96,752.29,109.86,-1695.80,314.94,-7.37,-15.84,-250.14,29.53
11243,743.21,755.09,755.87,754.84,752.25,-279.79,-2000.00,240.23,-33.14,33.37,-250.14,34.69
11277,743.28,755.09,755.93,754.89,752.30,-1021.00,-1948.24,151.37,5.89,71.04,-225.24,35.18
11311,743.24,755.04,756.00,754.74,752.26,-1365.23,-1777.34,-29.79,32.79,91.63,-160.43,39.64
11344,743.48,755.01,756.11,754.80,752.35,-2000.00,-577.64,-38.57,18.50,53.28,-93.99,40.88
11378,747.72,755.06,756.03,754.75,753.39,-2000.00,-1271.48,179.20,-23.34,77.79,92.63,24.70
11414,769.00,755.97,756.19,754.98,759.04,143.07,-2000.00,-942.87,-12.52,12.61,187.54,-54.98
11447,787.90,758.40,756.43,755.15,764.47,-306.15,-907.23,949.71,67.63,180.11,165.21,-136.04
11481,791.49,762.87,758.60,755.15,767.03,1259.77,-173.83,291.50,167.54,26.12,48.80,-129.94
11515,792.40,768.76,761.51,757.51,770.04,85.45,-1192.38,443.85,26.95,-12.91,16.40,-142.68
11549,790.75,774.05,763.90,759.66,772.09,9.77,-779.30,592.77,3.23,-1.24,13.23,-151.58
11583,787.13,777.84,765.88,761.43,773.07,51.27,-801.27,576.17,18.80,6.32,8.89,-146.14
11617,780.54,780.48,766.95,762.63,772.65,61.04,-820.80,572.75,1.02,5.16,12.00,-135.74
11651,773.69,782.26,767.06,763.22,771.56,83.01,-871.58,519.04,-9.12,3.83,6.21,-132.42
11685,768.02,782.96,767.11,763.61,770.42,80.08,-861.33,534.18,-7.82,4.88,7.27,-123.14
11719,763.73,783.24,767.43,764.08,769.62,76.66,-872.56,527.34,-4.24,5.69,1.79,-109.47
11753,760.67,784.26,768.58,765.23,769.69,99.12,-861.33,544.92,-3.34,3.58,1.78,-95.55
11788,757.71,786.49,770.91,766.92,770.51,68.36,-831.05,521.00,-4.32,1.24,5.47,-70.07
11822,754.84,789.45,773.91,768.85,771.76,67.87,-894.04,507.81,-0.12,4.31,7.11,-37.72
11856,752.01,792.16,777.57,770.61,773.08,45.90,-870.12,521.00,2.36,4.56,8.86,15.64
11890,749.39,794.37,780.53,772.09,774.09,48.83,-858.89,542.97,1.90,8.35,9.20,58.67
11924,747.04,796.39,782.73,773.01,774.79,59.08,-868.16,514.65,-0.67,5.31,6.84,91.91
11958,745.50,798.59,785.13,773.50,775.68,38.57,-874.02,519.53,-3.31,5.32,10.67,132.07
11992,744.69,800.51,786.85,773.73,776.45,28.32,-904.30,501.46,-9.62,2.90,9.88,158.79
12027,744.37,801.59,787.62,774.09,776.92,31.74,-892.09,482.91,-1.90,2.13,9.20,165.36
12061,744.21,801.63,788.54,775.00,777.35,84.47,-915.53,546.87,-3.76,26.23,14.62,174.90
12095,744.16,800.99,789.11,776.21,777.62,19.04,-860.84,529.79,-31.70,24.53,25.56,176.58
12129,744.08,799.27,789.70,777.01,777.51,35.16,-893.55,532.71,-43.37,42.83,35.65,193.80
12163,743.94,794.32,790.43,777.07,776.44,28.81,-1003.42,479.49,-59.63,51.02,55.37,251.03
12197,743.90,786.24,790.79,776.20,774.28,-22.95,-1042.48,511.72,-71.36,47.45,79.24,338.02
12231,743.79,774.78,790.42,773.68,770.66,33.69,-1307.13,499.02,-99.46,46.37,123.94,458.20
12266,743.78,764.60,788.66,768.39,766.36,29.79,-1694.34,450.68,-106.95,17.02,197.03,573.87
12300,743.60,759.08,781.63,763.11,761.86,-310.55,-1642.58,506.84,-75.49,21.67,242.97,521.35
12334,743.52,756.91,779.13,758.34,759.48,-237.79,-2000.00,474.61,34.58,25.94,250.13,546.90
12370,743.69,756.08,759.64,755.77,753.79,152.34,-1086.91,299.32,78.11,5.08,241.86,105.33
12404,743.65,755.58,757.00,755.08,752.83,657.71,-1406.25,1206.54,-121.78,-95.07,51.78,53.93
12438,743.42,755.22,756.46,754.98,752.52,687.50,-343.26,98.63,-0.57,-112.45,-135.63,45.43
12472,743.46,755.14,756.05,754.97,752.40,513.67,0.98,76.66,15.18,-51.12,-118.53,36.05
12506,743.40,755.06,755.87,754.88,752.30,545.41,-523.93,305.18,-86.73,-56.26,-164.64,33.61
12540,743.38,755.08,755.87,754.85,752.30,453.61,-1012.70,499.51,-18.76,-34.05,-243.47,33.92
12575,743.32,755.02,755.89,754.86,752.27,252.93,-1228.52,592.77,-25.69,-45.62,-250.14,35.01
12609,743.29,755.03,756.06,754.82,752.30,124.02,-1290.53,806.15,-65.54,-58.26,-250.14,39.82
12643,743.25,755.07,756.22,754.95,752.37,47.85,-2000.00,939.45,-71.08,-29.95,-234.06,41.80
12677,743.21,754.95,756.31,754.80,752.32,-643.55,-2000.00,610.84,70.24,49.24,-193.13,47.21
12711,743.20,754.87,756.08,754.88,752.26,-917.97,-1477.54,333.98,47.63,46.07,-119.40,41.06
12745,743.19,754.83,755.83,754.89,752.19,-1193.36,-1106.93,130.37,47.72,30.23,-62.70,35.07
12779,743.23,754.68,755.70,754.79,752.10,-1269.53,-756.35,260.25,-86.31,-69.10,-41.39,34.25
12812,743.21,754.68,755.56,754.81,752.06,-693.36,-1083.50,413.57,-22.51,-68.03,-32.87,30.58
12846,743.29,754.75,755.47,754.77,752.07,-340.82,-805.18,295.41,49.61,-3.61,-19.34,28.18
12880,743.19,754.73,755.47,754.94,752.08,-11.23,-564.94,261.23,2.73,26.85,7.69,26.21
12913,743.24,754.76,755.36,754.83,752.05,298.83,-887.21,191.41,-9.95,52.93,7.64,24.69
12947,743.17,754.77,755.40,754.88,752.05,214.36,-818.36,307.62,-15.44,58.69,-12.53,25.07
12981,743.30,754.83,755.38,754.75,752.07,-82.03,-913.09,452.15,-24.53,4.58,-16.04,25.56
13015,746.60,754.90,755.32,754.73,752.89,1781.74,-428.22,336.43,159.24,-142.56,111.43,12.48
13049,760.91,755.57,755.39,754.74,756.65,403.32,-1291.50,64.94,13.93,20.53,132.79,-40.39
13083,779.54,757.83,755.89,755.01,762.07,-534.18,-2000.00,870.61,39.68,57.00,144.60,-114.09
13116,778.80,759.13,756.59,754.91,762.36,549.32,-858.40,-236.82,-89.24,-73.10,11.92,-102.85
13150,777.41,762.79,758.60,755.96,763.69,67.87,-796.39,523.93,-120.79,-62.95,12.45,-93.15
13184,775.09,767.37,761.55,757.81,765.45,64.94,-815.43,523.44,-27.21,-27.21,14.26,-75.55
13219,775.23,771.29,765.24,760.26,768.01,65.92,-834.47,562.01,-3.02,-6.59,7.04,-51.50
13253,774.24,774.98,769.82,763.23,770.57,71.78,-844.73,558.59,-4.60,-1.85,6.39,-7.53
13287,771.30,777.66,772.93,765.60,771.87,57.13,-827.64,596.68,-4.64,0.53,8.92,23.90
13323,767.96,779.41,774.88,767.11,772.34,61.04,-872.56,547.85,-0.19,0.95,3.22,47.49
13357,765.51,780.26,775.91,768.02,772.42,67.38,-850.59,548.34,0.19,1.89,3.91,61.60
13391,763.63,781.18,776.42,768.63,772.47,67.38,-850.59,563.48,-1.24,2.17,3.02,64.30
13425,762.52,782.08,777.07,769.01,772.67,82.52,-854.49,559.57,-6.14,1.13,3.32,71.50
13459,762.00,783.21,777.62,769.39,773.05,69.34,-847.17,546.87,-3.52,2.90,2.82,72.29
13493,762.27,783.91,777.92,769.73,773.46,63.48,-854.00,553.22,1.03,0.51,-1.56,68.28
13528,762.88,784.01,777.89,770.04,773.71,60.06,-868.16,554.69,2.32,1.73,1.14,59.99
13562,763.54,783.79,777.56,770.12,773.75,74.22,-840.33,561.04,1.51,2.63,-2.27,50.19
13596,765.18,783.22,776.75,769.80,773.74,57.62,-833.01,566.89,1.43,0.93,0.44,33.70
13630,768.62,782.02,775.21,768.49,773.59,78.61,-858.89,550.78,-4.77,-2.01,0.21,12.46
13664,772.65,780.56,773.53,766.94,773.42,77.64,-850.10,568.85,0.44,-0.65,-2.74,-8.95
13698,776.41,779.20,772.19,765.84,773.41,76.66,-869.63,534.67,1.44,2.59,-2.58,-28.01
13732,778.92,778.21,770.93,764.93,773.25,97.66,-837.89,544.92,6.22,1.83,-1.28,-46.58
13767,778.94,778.16,770.75,764.56,773.10,89.84,-857.91,530.76,1.00,2.69,0.21,-45.42
13801,778.60,778.03,770.66,764.48,772.94,77.64,-846.19,543.46,-2.04,0.45,1.37,-44.17
13835,778.09,777.88,770.52,764.22,772.68,81.05,-842.29,549.32,-2.85,-0.34,2.43,-40.83
13869,777.81,777.69,770.53,763.97,772.50,66.89,-851.56,553.71,-0.13,-1.05,2.09,-34.48
13903,777.55,778.08,770.57,763.94,772.54,73.73,-825.20,553.22,-3.68,0.08,0.73,-35.42
13937,776.81,778.29,770.74,763.69,772.38,79.10,-870.61,541.50,-2.80,-1.47,2.88,-26.65
13971,775.80,778.36,770.88,763.62,772.16,67.38,-861.33,522.95,-0.16,1.41,1.10,-19.22
14005,774.55,777.86,770.89,763.53,771.71,76.17,-854.49,542.97,0.69,2.61,1.21,-9.29
14040,771.80,776.88,770.67,763.20,770.64,62.99,-864.26,542.97,2.05,3.98,-1.10,7.42
14074,764.82,774.83,770.18,762.40,768.06,101.07,-899.90,513.67,-4.62,3.24,2.27,47.23
14108,754.92,770.52,768.08,760.83,763.59,68.85,-929.20,478.52,-14.15,3.80,1.40,86.54
14142,747.87,765.54,764.06,758.60,759.02,48.83,-865.72,520.02,2.09,15.88,0.92,83.53
14176,744.92,761.97,760.68,756.92,756.12,46.39,-833.50,557.62,-12.64,3.83,8.56,62.68
14210,744.35,759.01,758.37,755.78,754.38,169.92,-988.28,437.50,-83.43,-60.69,5.87,47.74
14245,744.23,757.07,757.17,755.34,753.45,214.84,-1108.40,373.05,-32.19,-30.43,49.65,40.17
14280,744.15,756.39,756.43,755.08,753.01,453.12,-942.38,473.14,-7.63,-35.61,21.93,31.35
14314,743.95,755.96,756.09,755.04,752.76,311.04,-893.07,512.70,45.31,-38.76,-26.03,27.58
14349,743.90,755.67,755.86,755.04,752.62,42.48,-707.03,303.22,55.66,-5.83,-2.24,24.43
14382,743.81,755.44,755.67,754.96,752.47,-87.40,-567.38,360.84,-20.95,11.89,37.55,23.03
14416,743.77,755.37,755.85,754.96,752.49,-149.90,-922.36,530.27,-81.24,26.09,53.77,28.04
14449,743.79,755.30,755.69,755.02,752.45,48.83,-205.08,-171.87,141.83,54.77,-7.30,23.83
14483,743.69,755.29,755.60,755.09,752.42,94.24,-1014.65,683.11,29.79,30.05,-20.14,20.98
14517,743.70,755.23,755.54,754.96,752.36,-242.68,-795.90,554.20,-2.78,17.03,-3.60,21.91
14550,743.68,755.70,755.82,755.05,752.56,31.74,-719.24,288.09,-25.98,-25.73,-1.88,23.72
14584,743.54,756.23,756.11,755.23,752.78,503.42,-810.06,246.58,14.97,0.56,-22.90,24.51
14618,743.69,757.34,756.89,755.61,753.38,-33.20,-852.54,354.49,27.64,-3.25,-17.76,28.93
14652,744.64,759.39,758.02,756.39,754.61,586.91,-388.18,296.87,7.79,-2.56,-12.31,25.87
14686,747.93,761.90,759.78,757.58,756.80,31.74,-899.41,400.88,42.93,-28.19,3.49,20.85
14720,751.03,764.31,761.29,758.76,758.85,-15.63,-802.25,529.79,35.10,3.87,0.11,11.13
14753,753.31,767.11,762.34,759.45,760.55,83.50,-807.62,563.48,16.62,12.71,7.25,-3.15
14788,757.75,769.79,763.51,760.11,762.79,112.79,-906.25,527.34,17.93,6.82,4.45,-20.44
14822,764.95,772.22,764.97,761.31,765.86,116.70,-904.30,523.93,18.92,-5.35,0.37,-45.89
14856,768.95,774.32,766.30,762.60,768.04,106.93,-882.81,552.25,8.47,-2.96,1.94,-62.38
14890,769.55,775.41,766.94,763.40,768.83,66.41,-862.79,529.30,3.05,1.22,2.47,-69.00
14924,768.67,775.48,767.12,763.58,768.71,78.61,-860.84,526.86,-0.24,0.27,3.01,-64.67
14958,767.74,774.95,766.94,763.41,768.26,83.01,-866.70,532.23,0.06,2.87,0.40,-59.39
14992,767.96,775.41,766.91,763.10,768.35,81.54,-848.63,541.02,-8.84,-4.50,2.76,-59.75
15027,767.87,776.01,767.06,762.96,768.48,90.82,-893.07,514.65,-2.74,-1.42,2.48,-58.52
15061,766.48,776.05,767.20,762.99,768.18,101.56,-887.21,523.93,-0.61,0.92,-0.29,-50.97
15095,763.38,775.14,767.30,763.01,767.21,83.98,-886.72,519.04,3.53,6.37,3.42,-30.96
15129,759.71,774.01,767.45,762.88,766.01,71.29,-867.68,539.55,-2.49,3.80,2.28,-3.73
15163,755.92,772.56,767.36,762.36,764.55,63.48,-853.03,531.25,0.38,2.65,1.55,26.36
15197,753.02,770.95,767.12,761.65,763.19,56.15,-862.79,525.88,-3.27,4.13,2.71,53.77
15233,750.97,769.65,766.81,761.30,762.18,80.08,-851.56,530.27,-0.98,1.88,4.18,68.58
15267,749.53,768.96,766.64,760.88,761.50,77.15,-858.89,525.39,-1.67,2.55,3.35,81.10
15301,748.48,768.43,766.68,760.78,761.09,59.57,-842.77,539.06,0.93,4.18,1.66,91.47
15336,747.75,768.21,766.73,760.78,760.87,77.15,-846.19,535.64,0.82,0.45,0.69,97.08
15370,747.28,767.81,766.73,760.72,760.63,62.50,-856.93,522.46,1.27,4.76,0.18,102.65
15404,747.01,767.73,766.57,760.64,760.49,65.92,-863.28,529.30,-0.02,0.84,-0.37,101.32
15438,746.90,767.73,766.51,760.55,760.42,66.41,-863.77,537.11,-0.81,2.21,1.59,101.71
15472,746.96,767.71,766.52,760.53,760.43,63.96,-854.00,544.43,0.75,1.27,1.07,102.10
15506,747.11,768.05,766.70,760.70,760.64,73.73,-869.63,543.46,1.08,0.76,-0.83,100.89
15540,747.37,768.77,767.12,761.18,761.11,48.83,-853.03,538.09,1.46,0.89,-0.15,97.66
15575,747.69,769.36,767.48,761.59,761.53,76.66,-882.81,517.09,3.05,-0.74,-0.53,94.71
15609,748.05,770.22,768.20,762.14,762.15,83.98,-878.42,530.27,1.28,0.51,2.24,96.36
15643,748.12,770.78,768.66,762.65,762.56,72.27,-876.46,535.16,0.76,-0.82,1.85,95.56
15677,748.08,771.31,769.00,763.05,762.86,84.47,-861.33,533.69,-1.06,0.27,3.32,94.23
15711,748.33,771.74,769.66,763.42,763.29,68.85,-867.68,546.39,2.90,1.90,-0.40,100.90
15745,748.79,771.99,770.09,763.99,763.72,71.78,-870.12,534.18,-0.14,1.79,0.65,99.57
15779,748.61,772.12,770.32,764.15,763.80,66.89,-858.89,527.34,3.66,0.85,2.00,102.52
15814,748.22,772.02,770.38,764.19,763.70,74.71,-866.70,542.97,-2.02,2.32,5.26,105.61
15848,747.94,771.72,770.42,763.95,763.51,65.43,-856.93,538.09,-1.87,-0.21,0.54,113.39
15882,747.75,771.60,770.32,763.80,763.37,75.68,-856.93,555.66,0.53,3.15,2.62,114.54
15916,747.63,771.46,770.27,763.61,763.24,72.27,-876.46,529.79,-3.30,-0.22,3.00,117.89
15950,747.74,771.42,770.19,763.50,763.22,57.62,-843.26,523.93,-0.11,1.73,-0.69,117.39
15984,747.81,771.39,770.00,763.37,763.14,63.48,-876.95,545.41,0.77,1.27,0.66,114.49
16017,747.85,771.40,769.93,763.32,763.13,72.75,-860.84,547.36,2.08,0.66,3.74,113.22
16051,748.04,771.42,769.84,763.24,763.14,71.78,-873.05,537.60,0.08,-0.37,-0.26,111.30
16085,748.23,771.53,769.70,763.29,763.19,60.06,-862.79,531.25,1.63,1.09,-0.64,105.57
16118,748.43,771.58,769.68,763.16,763.21,65.92,-875.98,525.39,2.66,0.43,2.55,106.09
16152,748.59,771.60,769.56,763.08,763.21,75.68,-851.56,522.46,1.78,2.53,0.70,103.70
16188,748.81,771.58,769.47,763.02,763.22,69.82,-852.54,539.55,-0.53,0.15,-0.42,101.59
16221,748.96,771.48,769.37,762.90,763.18,69.34,-858.89,543.46,0.41,-1.39,-1.40,101.26
16255,749.58,771.27,769.05,762.69,763.15,62.01,-868.65,528.32,1.62,1.25,-3.50,95.78
16289,750.29,771.05,768.61,762.38,763.08,67.38,-854.98,541.02,1.48,2.04,0.29,88.76
16323,751.38,770.65,768.12,762.00,763.04,57.13,-860.84,535.64,1.43,-0.80,-3.37,81.51
16357,752.49,770.22,767.46,761.58,762.94,64.45,-863.28,528.32,0.68,-1.44,-2.69,71.04
16391,753.63,769.87,766.77,761.16,762.86,89.84,-860.35,537.11,0.92,-1.06,-0.53,58.82
16425,755.05,769.45,766.12,760.68,762.82,77.64,-851.07,545.90,0.21,-0.89,-0.76,48.24
16459,756.61,769.02,765.66,760.23,762.88,77.64,-850.10,554.69,0.52,-0.75,-0.82,41.33
16493,757.97,768.81,765.37,759.91,763.01,81.05,-861.33,537.60,0.94,1.89,0.17,35.84
16527,759.20,768.63,765.12,759.74,763.17,93.75,-867.19,544.92,-2.53,0.84,0.05,29.41
16561,759.99,768.58,765.13,759.65,763.34,81.05,-855.96,539.06,0.03,1.48,-0.61,28.70
16595,760.30,768.62,765.04,759.60,763.39,91.31,-871.58,530.76,1.53,3.71,1.49,25.97
16630,760.56,768.62,765.20,759.68,763.52,75.20,-863.28,541.99,1.36,1.12,-3.33,27.82
16664,760.60,768.47,765.09,759.68,763.46,92.77,-864.75,522.46,-0.43,0.23,-0.03,25.96
16698,760.30,768.43,765.09,759.66,763.37,82.03,-852.05,538.57,0.05,2.28,-1.02,27.68
16732,760.04,768.45,765.08,759.74,763.33,90.33,-858.40,537.60,2.02,-1.25,0.95,27.14
16766,759.73,768.59,765.17,759.83,763.33,89.84,-857.42,535.16,1.31,2.37,1.83,27.96
16800,759.48,768.62,765.22,759.93,763.31,73.73,-858.89,532.71,2.37,0.70,0.95,28.24
16834,759.03,768.70,765.32,760.00,763.26,88.38,-867.68,542.48,0.60,2.32,-0.40,30.54
16869,758.26,768.70,765.34,760.07,763.09,70.80,-867.68,550.29,-0.73,1.95,1.45,32.85
16903,757.62,768.79,765.42,760.06,762.97,106.45,-850.59,543.95,0.82,0.44,1.46,36.25
16937,757.34,769.02,765.44,760.14,762.98,86.43,-846.19,534.18,-1.58,2.44,2.31,34.96
16971,757.39,769.22,765.46,760.16,763.06,72.75,-853.03,546.87,-1.46,-0.77,4.42,33.17
17005,757.85,769.37,765.47,760.14,763.21,81.54,-860.35,538.57,-2.97,0.23,-0.49,31.09
17039,758.49,769.44,765.50,760.23,763.41,82.52,-871.09,529.30,0.93,1.09,-1.21,27.68
17073,758.75,769.46,765.40,760.14,763.44,93.26,-876.46,542.97,2.44,-1.95,-0.47,25.40
17108,759.00,769.33,765.35,760.16,763.46,86.43,-850.10,548.83,2.58,2.61,-0.24,24.08
17143,759.35,769.25,765.32,760.00,763.48,76.66,-852.54,545.41,-0.85,-0.34,1.31,25.20
17178,760.06,769.06,765.16,759.93,763.55,90.33,-861.82,539.55,0.53,-0.40,-1.01,21.14
17212,760.87,768.84,765.01,759.83,763.64,89.84,-845.21,533.69,1.08,2.55,-2.08,18.04
17246,761.75,768.58,764.90,759.73,763.74,84.96,-842.29,543.95,1.51,1.12,-3.69,15.80
17280,762.59,768.33,764.72,759.63,763.82,70.31,-854.49,532.23,0.05,0.48,-0.05,11.74
17314,762.99,768.26,764.58,759.53,763.84,102.05,-870.61,532.71,0.66,2.43,-3.21,9.12
17348,762.89,768.24,764.61,759.73,763.87,89.36,-865.23,537.11,2.14,2.68,0.87,7.37
17382,762.61,768.14,764.60,759.67,763.75,93.26,-875.98,534.67,0.59,3.06,0.63,9.82
17417,762.39,768.14,764.71,759.69,763.73,77.64,-852.05,550.29,1.87,2.51,-0.54,12.92
17451,762.33,768.06,764.63,759.70,763.68,89.84,-864.75,543.46,1.09,0.71,-0.42,11.56
17485,762.09,767.99,764.67,759.74,763.62,76.66,-857.42,546.39,-0.56,1.47,-1.64,13.47
17519,761.96,767.87,764.59,759.64,763.52,90.82,-858.89,549.80,-1.58,1.30,1.62,14.20
17553,761.72,767.70,764.55,759.56,763.38,91.80,-869.63,541.99,-2.61,1.94,1.09,16.71
17587,761.45,767.48,764.38,759.43,763.18,77.15,-860.35,540.53,-0.13,3.31,-0.27,17.08
17621,761.72,767.21,764.17,759.29,763.10,80.57,-857.42,535.16,-0.30,-1.06,0.17,15.32
17654,762.34,767.00,764.10,759.10,763.13,80.08,-852.05,540.53,0.12,1.76,-1.57,15.74
17688,763.02,766.73,763.89,758.96,763.15,84.47,-844.73,541.02,1.58,-0.92,-1.13,12.42
17722,763.61,766.56,763.71,758.80,763.17,88.38,-842.77,547.85,1.12,-1.97,-0.52,9.53
17755,764.29,766.59,763.61,758.80,763.32,75.68,-845.70,533.20,-0.01,0.21,0.35,4.71
17789,764.74,766.52,763.56,758.70,763.38,84.96,-853.52,536.62,-0.72,-0.14,0.40,3.68
17823,765.16,766.52,763.56,758.80,763.51,94.24,-860.35,531.74,-2.26,-0.12,-1.72,0.76
17857,765.58,766.49,763.51,758.74,763.58,96.68,-865.23,545.90,-2.08,1.60,-1.55,-0.74
17891,765.83,766.51,763.53,758.82,763.67,103.52,-867.68,524.90,2.49,0.04,1.72,-2.23
17924,765.65,766.50,763.54,758.66,763.59,94.24,-857.91,541.99,-0.84,0.67,2.72,0.92
17958,765.07,766.55,763.55,758.65,763.45,87.40,-858.89,533.69,0.96,-0.29,3.71,2.84
17992,764.49,766.65,763.62,758.78,763.39,90.33,-866.70,539.55,0.44,2.99,3.05,4.10
18026,763.79,766.62,763.67,758.76,763.21,83.98,-862.30,516.60,1.76,1.37,1.56,8.15
18060,763.23,766.69,763.73,758.83,763.12,81.54,-854.49,542.48,0.76,2.30,1.40,10.01
18096,762.78,766.77,763.73,758.91,763.05,82.52,-857.42,541.50,-0.23,0.57,2.05,9.73
18130,762.49,766.96,763.82,759.08,763.09,92.29,-850.59,543.46,0.98,1.23,0.05,8.94
18164,762.29,766.94,763.83,759.17,763.06,83.50,-854.98,529.30,1.89,2.63,0.92,8.65
18198,762.17,766.94,763.87,759.23,763.05,80.08,-866.21,543.46,-1.21,2.69,0.44,9.33
18233,762.31,766.78,763.86,759.16,763.03,86.43,-864.75,537.60,-1.40,1.21,0.80,10.71
18267,762.50,766.65,763.77,759.05,762.99,91.80,-854.49,539.06,-1.21,0.85,1.26,10.57
18301,762.80,766.49,763.59,758.88,762.94,90.82,-855.96,538.09,-0.90,0.67,-0.37,8.88
18335,763.32,766.33,763.47,758.78,762.98,91.80,-858.40,537.11,0.11,-0.15,-2.21,6.78
18369,763.76,766.09,763.35,758.60,762.95,91.31,-856.45,544.92,1.78,1.35,-0.28,6.80
18403,764.05,766.03,763.20,758.44,762.93,83.98,-854.49,533.69,0.95,0.45,-2.69,4.90
18437,764.35,765.95,763.06,758.47,762.96,90.33,-854.00,538.57,1.85,1.52,0.64,0.70
18471,764.49,765.93,763.04,758.45,762.98,84.96,-860.35,539.55,2.69,1.71,0.08,0.17
18506,764.65,765.93,762.97,758.46,763.00,86.43,-849.61,541.50,0.95,2.28,-0.07,-2.34
18540,764.77,766.01,762.98,758.44,763.05,80.57,-872.07,543.46,1.31,-0.60,1.40,-2.83
18574,764.78,765.99,762.99,758.43,763.05,89.84,-851.56,540.04,0.76,3.27,0.15,-2.38
18608,764.65,766.02,762.98,758.51,763.04,97.17,-859.37,537.60,-0.30,1.52,-0.60,-3.53
18642,764.53,766.01,763.00,758.58,763.03,85.94,-856.45,521.97,-0.53,1.21,1.60,-3.44
18676,764.47,766.07,762.99,758.54,763.02,76.17,-861.33,541.99,0.25,1.12,-0.47,-3.55
18711,764.59,766.02,763.02,758.47,763.02,91.80,-858.89,529.30,0.31,1.10,-0.15,-1.79
18745,764.69,765.89,763.04,758.40,763.01,97.66,-858.89,532.23,0.79,-0.16,1.08,0.58
18779,764.76,765.88,762.99,758.54,763.04,88.87,-871.09,540.04,0.69,-0.99,2.02,-2.91
18813,765.00,765.87,762.89,758.41,763.04,99.12,-857.42,528.32,0.82,0.63,-0.85,-4.36
18847,765.20,765.76,762.84,758.36,763.04,80.08,-861.82,545.41,1.90,1.15,1.02,-4.75
18881,765.60,765.63,762.75,758.30,763.07,96.68,-863.77,539.06,0.04,2.17,0.81,-6.40
18915,766.03,765.35,762.66,758.19,763.06,92.77,-865.23,545.41,0.76,-0.50,1.20,-6.13
18950,766.52,765.22,762.56,758.05,763.09,92.29,-857.42,538.09,0.04,-0.12,-0.90,-7.19
18984,767.05,764.93,762.45,758.05,763.12,85.45,-869.63,541.50,-0.28,3.40,0.63,-9.44
19018,767.41,764.81,762.32,757.92,763.12,95.21,-854.49,539.06,-0.06,-0.61,-0.80,-10.92
19054,767.83,764.68,762.25,757.87,763.16,99.61,-871.58,536.13,0.02,0.29,1.08,-12.49
19088,768.19,764.75,762.24,757.91,763.27,104.49,-855.47,526.37,1.13,0.55,-0.90,-14.94
19122,768.44,764.64,762.21,757.86,763.29,92.77,-862.30,537.11,0.03,0.06,-0.19,-14.91
19156,768.77,764.52,762.19,757.82,763.32,83.98,-861.33,536.62,0.64,3.02,0.40,-15.31
19190,769.05,764.42,762.06,757.80,763.33,95.21,-862.30,538.57,0.66,-0.42,-0.47,-18.19
19224,769.18,764.43,762.07,757.78,763.37,96.68,-862.79,541.50,-0.98,1.44,0.77,-18.27
19258,769.40,764.38,762.02,757.74,763.39,94.24,-868.65,540.53,2.03,1.65,-0.11,-19.25
19292,769.46,764.33,762.06,757.79,763.41,83.01,-865.72,541.99,-0.13,4.61,1.58,-18.67
19326,769.59,764.41,761.93,757.76,763.42,96.19,-851.56,536.13,0.12,1.12,2.80,-22.69
19359,769.64,764.36,761.94,757.77,763.43,84.47,-852.54,525.39,-1.02,2.60,0.56,-22.18
19393,769.55,764.29,761.95,757.72,763.38,88.87,-854.49,528.32,0.44,2.05,1.14,-20.54
19426,769.44,764.23,761.92,757.79,763.35,95.70,-867.19,531.74,0.18,1.98,1.16,-21.40
19460,769.43,764.26,761.93,757.83,763.36,78.12,-848.63,524.90,1.13,2.34,0.63,-21.93
19494,769.47,764.36,761.97,757.81,763.40,87.89,-848.14,546.39,1.02,-0.53,0.73,-21.72
19528,768.98,764.39,761.96,757.86,763.30,96.68,-847.66,532.71,2.63,0.94,-0.37,-21.19
19562,768.80,764.43,762.04,757.87,763.29,89.36,-851.07,536.13,1.15,2.50,1.12,-18.94
19596,768.63,764.55,762.12,757.98,763.32,94.24,-865.72,536.62,-0.85,1.82,2.14,-18.99
19630,768.34,764.69,762.14,758.01,763.29,98.63,-864.75,543.46,3.62,2.17,-0.61,-18.98
19663,768.13,764.75,762.19,758.19,763.31,109.37,-849.61,539.06,-0.15,-1.98,1.47,-20.32
19697,768.10,764.85,762.28,758.25,763.37,81.05,-854.49,540.53,-1.50,2.20,1.03,-19.72
19731,767.69,764.85,762.38,758.35,763.32,89.84,-860.35,534.18,0.26,3.76,-1.22,-17.19
19766,767.39,764.96,762.38,758.33,763.27,94.24,-853.52,535.64,1.49,1.69,-1.73,-16.68
19800,767.12,765.00,762.42,758.46,763.25,100.10,-863.77,552.73,0.50,-1.02,1.68,-16.98
19834,766.96,765.10,762.48,758.55,763.27,92.77,-862.30,532.23,-2.05,2.89,1.01,-17.05
19868,766.79,765.25,762.49,758.53,763.27,91.31,-867.19,550.29,-0.94,1.59,0.16,-17.12
19902,766.68,765.21,762.54,758.66,763.27,76.17,-862.79,542.48,1.28,1.51,1.31,-17.12
19936,766.40,765.25,762.53,758.57,763.19,98.63,-853.03,535.16,1.75,2.22,-0.76,-15.38
19970,766.25,765.29,762.52,758.62,763.17,83.01,-858.40,544.43,1.36,1.50,1.43,-16.31
20006,765.97,765.35,762.60,758.67,763.15,87.89,-857.42,539.55,1.72,3.03,0.92,-14.39
20040,766.01,765.30,762.53,758.61,763.11,81.05,-844.73,549.32,0.83,-0.35,0.86,-15.16
20074,765.94,765.29,762.53,758.67,763.11,92.77,-860.84,547.85,-0.97,0.82,2.12,-15.56
20108,765.96,765.40,762.57,758.61,763.14,91.80,-843.26,539.55,-2.55,0.56,0.55,-14.79
20143,765.87,765.34,762.56,758.68,763.11,91.31,-856.93,542.97,0.05,3.56,0.37,-15.15
20177,765.84,765.43,762.65,758.65,763.14,103.03,-861.82,538.09,-0.98,0.14,0.90,-13.28
20211,765.75,765.41,762.63,758.70,763.12,97.17,-851.07,541.99,-0.29,1.03,1.16,-13.92
20245,765.67,765.57,762.66,758.71,763.15,90.33,-863.28,538.09,-0.96,1.53,-0.15,-14.32
20279,765.67,765.46,762.69,758.83,763.16,86.91,-866.70,545.90,0.02,1.12,-2.31,-14.44
20313,765.65,765.40,762.68,758.82,763.14,82.52,-860.84,545.41,-0.15,-0.53,0.94,-13.90
20347,765.77,765.49,762.64,758.75,763.16,94.24,-864.26,538.57,-2.24,0.60,1.69,-15.16
20381,765.86,765.41,762.62,758.78,763.17,90.82,-861.33,534.18,-1.00,1.68,0.37,-15.72
20416,765.93,765.38,762.58,758.70,763.15,78.12,-844.73,553.71,0.05,-0.92,2.98,-15.71
20450,766.08,765.37,762.54,758.62,763.15,90.82,-851.56,554.69,-0.15,2.49,-0.79,-15.84
20484,766.10,765.34,762.58,758.60,763.15,86.43,-851.07,537.60,-0.73,1.43,0.05,-14.20
20518,766.32,765.29,762.47,758.62,763.17,94.24,-859.37,535.16,0.39,0.74,0.34,-17.59
20552,766.51,765.19,762.53,758.47,763.17,91.31,-860.84,548.83,-0.36,1.10,0.73,-13.88
20586,766.65,765.18,762.51,758.47,763.20,88.87,-860.84,543.46,0.96,-0.20,-0.76,-14.80
20620,766.73,765.16,762.45,758.44,763.19,93.75,-856.45,548.34,-0.55,2.31,1.66,-16.05
20654,766.76,765.15,762.48,758.46,763.21,88.38,-869.14,539.55,1.75,0.73,0.08,-15.54
20688,766.69,765.24,762.45,758.44,763.21,94.24,-869.14,530.76,-1.06,0.90,-0.76,-16.50
20723,766.65,765.15,762.47,758.56,763.20,81.05,-857.42,539.06,0.79,-0.31,-0.42,-16.84
20757,766.53,765.31,762.44,758.51,763.20,93.26,-858.40,522.95,0.05,0.82,0.53,-17.64
20791,766.36,765.38,762.49,758.53,763.19,93.26,-860.84,535.16,0.40,0.98,0.18,-16.71
20825,766.14,765.43,762.60,758.60,763.19,104.49,-860.35,530.27,1.11,1.39,-0.80,-14.69
20859,765.78,765.57,762.62,758.71,763.17,93.75,-849.12,548.83,0.46,3.08,1.34,-15.70
20893,765.59,765.79,762.63,758.78,763.20,87.40,-839.36,550.78,1.08,3.51,1.95,-17.61
20926,765.33,766.01,762.62,758.83,763.20,83.01,-836.43,545.90,0.93,0.34,0.31,-19.47
20961,765.15,766.29,762.61,758.88,763.24,85.45,-858.40,548.83,-2.27,3.85,1.59,-22.16
20995,764.84,766.76,762.69,759.05,763.33,85.45,-847.66,533.20,-2.49,2.55,2.66,-25.19
21029,764.63,767.04,762.72,759.00,763.35,87.40,-863.77,539.55,-0.65,2.11,3.24,-25.45
21062,764.67,767.17,762.74,759.12,763.43,96.19,-868.16,530.27,-1.13,-2.79,0.77,-27.80
21096,764.59,767.20,762.75,759.15,763.42,81.54,-861.82,528.81,0.11,2.30,-1.34,-28.06
21130,764.56,767.24,762.71,759.14,763.41,89.84,-853.52,540.53,-0.77,3.84,-0.66,-29.05
21164,764.32,767.23,762.78,759.07,763.35,91.80,-858.40,520.51,-0.33,-1.15,1.51,-25.47
21198,764.15,767.22,762.75,759.09,763.30,80.57,-867.19,540.53,-2.66,1.95,2.43,-25.80
21232,764.29,767.08,762.70,758.82,763.22,78.12,-864.26,537.60,-4.12,2.37,0.98,-22.28
21265,764.98,766.82,762.49,758.55,763.21,81.05,-844.24,555.18,-6.12,-1.21,-0.67,-24.02
21299,765.24,766.13,762.04,758.08,762.87,89.36,-870.61,517.58,-6.19,-2.51,1.03,-23.52
21333,765.71,765.73,761.67,757.51,762.66,71.78,-831.05,528.32,-11.02,-1.56,-0.05,-22.75
21367,766.16,765.43,761.25,757.10,762.48,88.38,-873.54,508.79,-4.26,-2.18,3.76,-26.21
21401,767.12,765.15,761.02,756.80,762.52,79.10,-868.65,519.04,-5.90,-0.43,-0.63,-28.70
21436,768.09,765.06,761.07,756.55,762.69,118.65,-856.93,510.25,-4.80,0.26,2.67,-26.42
21470,768.60,765.06,760.92,756.39,762.74,99.12,-880.86,514.16,-9.34,-2.63,2.18,-29.38
21504,768.67,765.22,760.65,756.26,762.70,93.75,-919.43,479.00,-14.73,-4.14,4.27,-35.99
21538,768.77,765.27,760.31,756.13,762.62,71.29,-870.61,479.00,-15.24,-1.97,1.95,-43.19
21572,768.21,765.22,760.21,756.08,762.43,98.14,-875.98,505.37,-9.77,-3.04,1.08,-42.59
21606,768.41,765.80,759.85,756.00,762.52,74.22,-888.67,484.86,-18.76,-2.64,2.03,-55.62
21640,767.93,766.10,759.72,755.88,762.41,75.68,-946.29,459.47,-27.71,-7.53,5.84,-57.89
21674,767.81,766.45,759.53,755.75,762.39,96.68,-869.63,458.01,-11.45,-2.37,4.27,-63.11
21709,768.10,766.80,759.55,755.74,762.55,78.61,-910.64,435.55,-8.21,-0.74,1.24,-66.47
21743,768.37,767.70,759.67,755.76,762.88,105.47,-933.59,451.17,-2.21,1.43,2.55,-71.64
21777,768.07,768.34,759.74,755.81,762.99,65.92,-884.28,493.16,5.40,1.95,1.11,-75.01
21811,768.65,769.16,759.96,755.83,763.40,71.78,-887.21,455.57,7.63,5.03,4.05,-78.20
21845,768.54,769.76,760.15,755.83,763.57,77.15,-906.74,464.84,-2.37,-0.44,2.62,-77.90
21879,768.53,770.23,760.33,755.91,763.75,67.38,-897.95,443.85,4.45,-0.97,3.84,-78.32
21915,768.71,771.33,760.75,755.88,764.17,67.87,-920.90,436.04,-0.73,-1.34,4.98,-76.83
21949,768.39,771.93,760.83,755.95,764.27,73.24,-928.22,451.17,3.80,2.62,3.15,-79.72
21983,767.93,772.19,760.98,756.08,764.30,82.03,-937.01,441.89,5.22,3.44,2.75,-78.24
22017,767.76,772.34,761.30,756.01,764.35,92.77,-900.88,470.21,5.98,1.60,1.75,-69.93
22051,767.97,771.91,761.52,756.07,764.37,72.27,-912.11,461.91,9.71,2.10,-0.63,-62.49
22086,767.90,771.00,761.74,756.12,764.19,82.52,-886.72,475.59,12.92,5.77,-0.30,-50.29
22120,768.20,770.59,761.82,756.07,764.17,83.01,-916.99,459.47,11.07,7.18,-1.47,-45.34
22154,767.70,770.44,761.94,756.13,764.05,75.68,-897.46,493.16,10.39,6.39,1.58,-40.41
22188,767.60,770.43,762.16,756.17,764.09,55.18,-872.56,497.07,14.49,5.40,0.19,-34.92
22222,767.77,770.40,762.28,756.11,764.14,74.22,-883.30,481.93,7.51,0.29,2.34,-31.50
22256,767.59,770.39,762.53,756.26,764.19,63.96,-887.70,481.93,3.82,-0.24,1.27,-26.63
22290,767.33,770.52,762.73,756.20,764.19,67.87,-868.65,503.91,11.69,0.21,3.10,-21.01
22324,767.36,770.53,762.79,756.32,764.25,71.78,-904.79,494.14,8.75,4.99,1.69,-21.66
22359,767.04,770.64,763.16,756.29,764.28,78.61,-875.49,499.51,5.14,1.56,0.56,-11.70
22393,766.42,770.62,763.58,756.50,764.28,60.55,-875.00,508.79,9.21,3.57,1.56,-1.94
22427,765.65,770.45,764.15,756.72,764.25,67.87,-863.77,524.41,2.72,4.08,-0.05,12.96
22461,764.99,770.38,764.46,756.81,764.16,63.48,-868.16,507.32,6.73,3.96,0.78,22.21
22495,764.38,770.51,764.80,756.76,764.11,54.20,-876.46,507.32,-1.17,1.07,2.04,32.52
22529,763.88,770.55,765.01,756.74,764.04,69.34,-869.14,503.91,-2.43,1.27,4.82,39.55
22562,763.40,770.59,765.25,756.74,764.00,63.96,-886.23,513.18,-2.22,-0.24,1.96,46.70
22596,763.27,770.74,765.37,756.58,763.99,62.01,-886.23,512.70,0.92,1.95,2.54,51.15
22629,763.18,770.83,765.22,756.67,763.97,57.13,-894.04,490.23,0.77,1.85,1.27,45.81
22663,763.03,770.94,765.14,756.56,763.92,73.24,-895.02,493.65,-1.87,0.49,2.25,45.00
22696,763.05,771.07,765.13,756.59,763.96,75.68,-869.14,493.16,-1.82,-0.44,1.18,43.19
22731,763.00,771.20,765.00,756.68,763.97,53.71,-878.91,513.18,1.02,0.66,1.03,37.73
22764,763.22,771.15,765.02,756.70,764.02,63.48,-889.65,480.96,2.16,1.38,0.52,37.62
22798,763.47,771.18,765.02,756.72,764.10,82.52,-888.67,486.33,-1.83,1.02,0.38,36.25
22832,764.12,771.22,765.05,756.76,764.29,61.04,-877.93,517.58,2.59,-0.02,-2.17,34.02
22868,764.42,771.26,765.03,756.80,764.38,66.89,-894.53,504.88,3.08,0.99,1.40,31.58
22901,764.79,771.08,765.02,756.83,764.43,62.99,-881.84,504.39,-1.49,1.44,1.67,31.00
22935,764.85,770.97,764.89,756.81,764.38,64.45,-875.49,495.12,-1.91,0.85,-1.81,28.59
22969,764.60,770.94,764.78,756.87,764.30,75.20,-882.81,475.59,-5.86,0.21,0.70,26.24
23003,764.48,770.74,764.70,756.87,764.20,55.66,-896.00,503.42,-4.42,0.85,2.07,26.30
23038,764.35,770.51,764.59,756.84,764.07,77.64,-888.67,494.14,-1.69,2.53,-1.27,26.17
23072,764.21,770.51,764.57,756.83,764.03,71.78,-880.86,495.61,-2.76,3.13,0.12,26.30
23106,764.22,770.54,764.51,756.92,764.05,63.96,-888.18,495.12,-2.27,-0.48,0.15,23.18
23140,764.26,770.71,764.42,756.95,764.08,47.36,-881.84,499.02,-0.60,1.95,0.47,19.02
23174,764.23,770.78,764.34,756.92,764.07,57.62,-889.65,481.93,0.42,1.92,-1.07,17.12
23208,764.13,770.77,764.43,756.96,764.07,64.94,-892.09,483.40,-3.95,2.56,-0.45,19.16
23242,763.98,770.79,764.43,757.00,764.05,56.15,-888.67,483.40,-1.73,-0.71,2.88,19.03
23276,763.83,770.81,764.59,757.08,764.08,62.99,-892.09,488.77,1.79,1.50,-0.91,21.97
23310,763.81,770.74,764.59,757.21,764.09,79.59,-879.39,491.21,1.85,2.15,0.69,20.87
23345,763.57,770.69,764.66,757.09,764.00,87.89,-903.81,467.77,1.95,0.79,-0.46,25.45
23379,763.37,770.71,764.77,757.15,764.00,68.85,-901.86,478.03,-1.93,-0.73,1.61,27.76
23413,762.93,770.51,764.74,757.12,763.82,81.05,-893.07,482.91,-1.03,1.43,2.17,30.56
23447,762.77,770.30,764.74,757.10,763.73,71.29,-887.70,501.46,-1.12,1.73,-0.04,33.13
23481,762.97,770.10,764.51,756.95,763.63,81.54,-893.07,482.42,-2.35,2.73,-0.22,30.57
23515,763.23,769.86,764.41,756.82,763.58,76.17,-890.62,480.96,0.28,-0.65,-3.38,31.02
23549,763.06,769.60,764.26,756.78,763.43,80.57,-897.46,459.47,-1.21,2.55,-1.08,30.57
23583,763.06,769.35,764.32,756.88,763.40,72.27,-898.44,480.96,0.74,0.63,-0.29,32.55
23618,763.14,769.05,764.48,756.82,763.37,86.91,-917.97,471.68,0.77,0.40,-2.85,39.55
23652,763.10,768.94,764.65,756.78,763.37,82.52,-887.70,493.16,4.90,0.47,0.34,45.32
23686,762.97,768.76,764.83,756.93,763.37,71.78,-886.72,472.66,4.53,3.89,-1.50,49.48
23720,762.84,768.52,765.00,756.97,763.33,75.68,-893.55,485.35,4.10,-1.33,-1.05,55.65
23754,762.98,768.27,765.00,757.04,763.32,71.29,-900.88,495.12,1.02,0.41,-6.39,56.07
23788,763.11,768.02,765.12,757.09,763.34,90.82,-872.56,481.45,1.86,3.39,1.33,59.98
23824,763.13,767.78,765.18,757.15,763.31,86.43,-887.70,479.98,2.69,-1.08,-3.35,62.42
23858,762.91,767.78,765.52,757.15,763.34,72.27,-895.02,494.14,0.26,1.08,-3.10,71.68
23892,762.81,767.61,765.48,757.29,763.30,80.57,-894.53,509.28,5.07,3.48,-1.28,70.41
23926,762.27,767.68,765.75,757.31,763.25,88.87,-897.95,482.42,2.88,2.26,3.20,78.16
23960,762.20,767.82,765.91,757.36,763.32,71.78,-856.93,509.28,2.05,1.07,-0.89,80.34
23994,762.27,768.07,766.29,757.47,763.53,76.66,-877.93,504.88,4.31,0.75,0.31,85.96
24029,762.39,768.23,766.56,757.46,763.66,59.08,-876.95,514.65,1.25,0.45,-1.22,91.17
24063,762.14,768.46,766.61,757.59,763.70,70.31,-862.79,512.70,-1.11,0.55,-0.02,89.52
24097,761.99,768.80,766.78,757.61,763.80,75.68,-881.84,506.35,-3.29,-0.17,0.05,91.28
24131,761.59,769.04,766.94,757.77,763.83,66.89,-876.46,506.35,-0.11,-0.89,-1.52,92.28
24165,761.29,769.38,767.15,757.78,763.90,65.43,-885.25,522.46,-1.31,1.98,1.32,95.61
24198,760.90,769.67,767.22,757.87,763.92,64.94,-884.28,511.72,-1.32,0.99,2.72,95.20
24232,760.55,769.97,767.50,757.93,763.99,84.47,-877.44,506.84,0.68,2.93,1.53,100.03
24265,760.44,770.22,767.58,757.96,764.05,88.38,-871.09,519.04,2.05,1.10,2.76,99.93
24299,760.47,770.53,767.73,758.02,764.18,76.17,-862.79,516.60,-3.30,-0.62,2.20,100.23
24332,760.82,770.49,767.57,757.92,764.20,74.71,-890.14,506.84,-3.18,0.24,-0.89,96.77
24367,761.21,770.37,767.50,757.91,764.25,69.82,-874.51,499.51,0.36,1.85,-0.80,94.99
24400,761.48,770.13,767.44,757.84,764.22,72.27,-881.84,499.51,3.57,1.56,-0.80,95.44
24434,761.24,769.95,767.25,757.71,764.03,80.08,-879.39,507.81,1.88,2.15,1.99,94.79
24468,760.85,769.96,767.25,757.75,763.95,56.15,-882.32,509.28,-2.79,-0.15,1.42,95.53
24502,761.01,769.68,767.15,757.70,763.89,89.36,-879.88,511.23,-4.43,1.43,1.63,95.50
24536,761.72,769.45,766.91,757.54,763.90,71.78,-882.81,507.32,-1.49,-0.48,-1.03,91.29
24569,762.59,769.07,766.61,757.61,763.97,77.64,-880.37,509.28,0.58,0.51,-1.72,82.83
24604,763.20,768.85,766.31,757.49,763.96,71.29,-872.56,511.23,0.66,0.23,-3.70,76.91
24638,763.61,768.49,766.23,757.30,763.91,60.06,-875.49,515.14,-0.72,-1.14,0.08,79.10
24672,764.07,768.22,766.19,757.20,763.92,74.71,-878.42,509.28,-0.83,3.40,-0.26,80.19
24706,764.41,767.83,766.21,757.27,763.93,72.27,-886.23,502.93,0.69,-0.32,-0.56,81.46
24740,764.58,767.50,766.39,757.19,763.91,86.91,-886.72,510.25,5.39,1.77,1.35,89.34
24776,764.79,767.00,766.97,757.11,763.96,65.92,-863.28,512.70,5.73,1.53,-1.14,108.19
24810,764.82,766.83,767.67,757.18,764.13,78.61,-862.30,515.14,1.95,3.34,-0.82,125.88
24844,764.83,766.74,768.82,757.06,764.36,67.38,-879.39,512.21,1.95,0.73,-0.17,156.80
24878,764.66,766.58,769.91,757.11,764.56,82.03,-881.35,506.84,4.40,3.53,1.47,185.30
24912,764.18,766.67,771.02,757.24,764.78,78.12,-872.07,515.62,1.80,1.92,-0.48,212.03
24946,763.60,766.73,771.40,757.28,764.75,79.10,-861.82,521.97,-0.12,3.71,-1.36,222.36
24981,763.31,766.97,771.61,757.46,764.84,70.31,-872.07,510.74,3.68,2.19,1.56,223.89
25015,763.20,767.21,771.73,757.57,764.93,73.24,-870.12,531.25,3.53,0.00,2.22,223.86
25049,763.05,767.44,771.60,757.58,764.92,70.80,-879.39,515.14,1.05,3.25,3.47,219.11
25083,762.82,767.59,771.63,757.67,764.93,85.94,-885.25,511.23,1.02,2.78,0.37,218.11
25117,762.32,767.68,771.81,757.70,764.88,77.15,-870.61,527.34,-1.03,-1.28,0.69,223.02
25151,762.11,767.72,771.89,757.74,764.87,59.08,-861.33,514.65,-1.88,-0.80,1.15,224.73
25185,762.11,767.75,771.90,757.72,764.87,76.66,-869.63,500.49,-1.35,-0.69,-0.24,225.09
25219,762.16,767.62,771.85,757.65,764.82,69.82,-874.51,514.16,-3.75,0.88,-1.12,225.74
25254,762.13,767.31,771.72,757.72,764.72,85.45,-885.74,518.55,1.70,1.80,-0.81,224.16
25288,762.20,766.89,771.44,757.62,764.54,73.24,-863.77,527.83,-1.15,0.82,-0.02,221.71
25322,762.20,766.38,770.94,757.42,764.24,75.68,-889.16,518.55,0.06,0.57,-2.94,216.29
25356,762.72,765.50,770.07,757.20,763.87,68.85,-857.91,534.18,-3.50,-1.32,-3.92,203.30
25390,763.03,764.58,769.02,756.90,763.39,80.57,-880.37,501.46,-2.94,2.68,-0.52,187.75
25424,763.54,764.05,768.73,756.76,763.27,81.54,-851.07,524.90,0.24,0.00,-3.21,185.21
25458,763.95,763.68,768.21,756.60,763.11,77.64,-894.53,502.93,-6.78,-1.21,-0.35,176.12
25492,763.93,763.24,767.74,756.53,762.86,78.12,-871.09,499.51,-5.51,-2.40,0.78,169.06
25527,765.53,763.56,767.35,756.37,763.20,86.91,-843.75,523.44,-6.81,-2.50,1.69,153.67
25561,766.09,763.47,767.00,756.28,763.21,107.91,-907.23,475.59,-7.34,-2.66,-0.59,145.15
25594,767.11,763.60,766.76,756.19,763.42,80.57,-859.86,522.95,3.96,0.24,3.37,135.77
25628,769.95,763.86,766.42,756.13,764.09,57.62,-843.75,535.64,8.24,-0.06,3.46,116.38
25663,771.34,763.95,765.41,755.88,764.15,85.94,-922.85,511.23,11.65,1.42,-2.14,89.33
25697,773.55,763.85,764.23,755.48,764.28,85.45,-887.70,502.93,-8.82,-3.11,-0.85,58.97
25733,775.61,763.79,763.72,755.38,764.63,68.36,-851.56,545.90,12.85,5.54,-0.24,41.32
25766,777.96,763.65,763.45,755.41,765.12,79.59,-886.72,485.84,-2.73,1.57,-5.41,27.15
25800,780.68,763.70,763.41,755.57,765.84,87.40,-836.91,584.47,6.76,1.79,-1.50,14.18
25833,781.99,763.75,763.14,755.57,766.11,109.86,-869.14,519.53,1.67,0.85,-1.73,2.47
25867,783.39,763.69,762.99,755.50,766.39,69.34,-878.42,512.21,-3.47,1.93,1.52,-4.48
25900,784.73,763.91,762.80,755.42,766.72,90.82,-873.54,496.09,0.57,0.38,0.52,-14.43
25934,785.04,764.46,762.79,755.46,766.94,115.23,-909.18,495.12,-0.39,-0.37,0.56,-20.82
25968,784.93,764.50,762.75,755.49,766.92,83.50,-866.21,525.88,8.53,4.20,-0.92,-22.08
26002,785.27,764.85,762.79,755.52,767.11,69.34,-858.40,521.48,2.16,1.56,1.65,-25.54
26036,784.65,765.25,762.81,755.51,767.06,85.94,-834.47,548.34,1.59,-2.66,0.50,-26.15
26070,784.27,765.39,762.83,755.65,767.04,62.50,-863.28,516.60,1.96,-1.08,0.71,-27.44
26104,784.04,765.59,762.71,755.61,766.99,83.50,-867.68,529.79,3.53,2.46,0.38,-30.65
26137,783.56,765.60,762.66,755.53,766.84,75.20,-906.74,471.19,4.46,3.86,0.65,-28.97
26171,783.32,765.25,762.46,755.58,766.65,84.96,-868.65,523.44,4.48,6.55,-0.83,-31.30
26205,782.99,765.26,762.41,755.48,766.53,94.24,-850.59,519.04,0.92,0.94,-0.64,-30.03
26239,782.33,765.34,762.29,755.57,766.38,85.94,-905.27,480.96,-1.80,0.74,0.39,-32.69
26274,781.85,765.05,762.12,755.61,766.16,106.93,-929.20,469.24,-5.65,3.43,-1.32,-33.33
26308,781.18,764.87,762.10,755.54,765.92,103.52,-903.81,489.75,5.69,3.19,0.55,-29.28
26342,779.82,765.09,762.18,755.46,765.64,105.47,-914.06,498.05,3.35,5.99,4.16,-23.00
26376,777.83,765.23,762.34,755.65,765.26,83.01,-871.09,522.95,1.19,3.76,1.35,-16.28
26410,776.26,765.25,762.51,755.76,764.94,71.29,-865.23,518.55,-1.15,1.37,0.05,-8.51
26444,775.23,765.41,762.58,755.87,764.77,84.96,-900.88,490.23,-7.90,-1.00,1.38,-5.96
26478,774.27,765.60,762.77,755.94,764.64,77.15,-891.60,510.25,-1.67,1.40,3.60,-0.51
26512,773.72,765.69,762.96,756.11,764.62,83.01,-885.74,481.93,-2.77,1.58,0.98,2.77
26547,773.89,765.62,762.92,756.03,764.62,96.19,-888.67,506.84,-3.36,0.03,-0.21,3.12
26581,774.17,765.77,762.85,755.95,764.69,81.54,-875.49,508.30,2.02,1.79,-0.06,0.31
26615,774.46,765.65,762.81,755.99,764.73,75.68,-860.84,511.23,-1.29,0.21,-1.66,-1.29
26649,775.00,765.52,762.73,755.92,764.79,74.22,-871.58,510.74,-1.54,-1.31,-1.48,-3.29
26683,775.59,765.45,762.66,755.80,764.87,82.03,-874.51,506.84,0.20,-0.31,-0.11,-4.58
26719,776.27,765.33,762.60,755.72,764.98,73.24,-868.65,496.09,-2.67,-1.80,-0.34,-6.27
26753,777.01,765.39,762.41,755.64,765.11,91.31,-867.68,488.77,-4.02,1.47,-2.51,-12.68
26787,777.73,765.28,762.45,755.61,765.27,65.92,-859.37,511.23,0.44,-0.36,0.25,-12.80
26821,778.26,765.19,762.45,755.58,765.37,82.03,-882.32,516.11,0.15,2.76,-2.66,-13.62
26855,778.71,765.07,762.44,755.50,765.43,104.00,-890.62,504.39,-1.76,-0.18,-1.58,-13.29
26889,778.97,764.97,762.40,755.40,765.44,89.36,-873.54,504.88,2.74,3.60,-2.09,-12.88
26924,779.01,764.79,762.28,755.39,765.37,90.82,-894.04,481.93,4.81,4.00,-2.06,-14.42
26958,778.98,764.48,762.17,755.35,765.24,82.03,-859.86,510.74,3.27,2.49,-4.16,-14.07
26992,779.11,764.44,762.05,755.37,765.24,102.05,-880.86,508.30,-3.73,3.14,-1.38,-17.28
27026,779.29,764.27,761.94,755.33,765.21,94.24,-884.28,501.46,-4.65,-1.74,-1.50,-18.92
27060,779.86,764.33,761.88,755.26,765.33,88.87,-890.14,490.72,-3.14,-1.02,2.44,-21.66
27094,780.26,764.24,761.81,755.32,765.41,99.12,-901.86,484.37,-4.92,1.76,-3.93,-24.91
27128,780.95,764.12,761.72,755.26,765.51,90.33,-893.55,484.86,-1.38,0.41,-1.65,-27.86
27162,781.39,764.23,761.59,755.30,765.63,75.20,-898.44,490.72,6.45,3.19,-2.44,-34.02
27197,781.89,764.37,761.58,755.31,765.79,84.96,-889.65,511.72,3.00,1.82,2.24,-37.17
27231,782.45,764.19,761.59,755.31,765.88,88.38,-869.63,492.19,0.05,0.38,-2.89,-37.38
27265,782.74,764.16,761.51,755.27,765.92,93.26,-893.07,490.23,2.70,1.44,-1.11,-39.66
27299,782.93,764.16,761.55,755.32,765.99,95.21,-909.67,490.23,3.26,3.27,-1.66,-40.10
27333,782.53,764.21,761.56,755.38,765.92,91.80,-883.30,497.07,2.92,4.76,-0.40,-39.84
27367,781.71,764.18,761.69,755.38,765.74,88.87,-882.81,487.79,3.47,5.32,0.27,-33.13
27401,781.40,764.13,761.67,755.49,765.67,84.47,-879.88,495.61,-2.32,-0.13,2.08,-34.05
27434,780.47,764.08,761.72,755.50,765.44,97.66,-869.14,487.79,-2.78,3.88,0.11,-29.27
27468,779.21,764.23,761.78,755.58,765.20,87.89,-908.69,482.42,-2.11,2.46,-0.28,-25.80
27501,778.17,764.23,761.85,755.73,764.99,80.57,-885.74,478.03,-2.38,1.01,2.74,-22.87
27535,776.95,764.37,762.03,755.79,764.78,91.80,-869.63,498.54,3.76,3.08,4.56,-16.08
27568,776.47,764.52,762.20,755.85,764.76,81.05,-903.81,505.86,-0.69,2.27,1.88,-12.40
27603,776.16,764.60,762.34,755.95,764.76,88.87,-903.81,485.35,-2.65,2.94,0.66,-9.91
27638,776.09,764.68,762.43,755.94,764.79,83.98,-886.72,489.26,3.24,2.66,1.44,-7.89
27672,775.99,764.53,762.68,755.99,764.80,93.26,-888.18,480.47,0.44,3.56,-0.03,-0.95
27706,775.71,764.45,763.01,756.03,764.80,82.03,-880.86,486.82,0.27,-0.21,-0.82,8.35
27740,775.69,764.38,763.46,756.14,764.92,75.20,-910.16,478.03,2.36,2.38,-1.23,18.55
27773,775.50,764.19,763.80,756.19,764.92,83.50,-905.27,471.68,2.85,2.47,0.49,28.67
27807,775.33,764.03,764.16,756.21,764.93,87.89,-892.09,495.12,4.92,1.49,-3.57,38.96
27841,775.00,763.86,764.57,756.32,764.94,89.36,-900.88,492.19,4.08,3.31,0.54,50.17
27875,774.49,763.68,764.67,756.39,764.81,96.68,-887.21,502.44,-0.55,3.85,0.20,54.84
27910,774.22,763.63,764.94,756.40,764.80,90.33,-868.16,498.05,3.28,2.47,-0.69,62.65
27944,774.31,763.60,765.07,756.43,764.85,90.82,-889.65,521.48,1.89,0.68,2.02,65.48
27978,774.71,763.54,765.20,756.43,764.97,87.89,-866.70,503.42,4.82,3.24,-0.06,67.64
28012,775.17,763.64,765.44,756.43,765.17,78.61,-881.35,499.02,3.67,1.34,-2.95,71.44
28046,775.65,763.77,765.58,756.39,765.35,84.96,-870.61,514.65,3.33,2.66,3.14,72.82
28080,775.73,763.95,765.65,756.40,765.43,92.77,-881.35,520.51,-0.79,0.92,3.04,72.77
28114,775.42,764.04,765.75,756.42,765.41,89.36,-890.14,510.25,2.71,1.77,2.63,75.14
28148,775.21,764.26,765.76,756.47,765.43,76.17,-896.97,496.09,-0.53,3.06,0.12,73.68
28183,775.05,764.38,765.79,756.49,765.43,83.01,-868.65,509.28,-1.79,1.96,2.96,73.68
28217,774.75,764.65,765.94,756.50,765.46,85.94,-877.93,507.81,-2.37,3.17,0.70,76.09
28251,774.35,765.07,766.00,756.63,765.51,80.08,-871.09,505.86,2.49,2.05,2.43,73.67
28285,773.37,765.35,766.15,756.72,765.40,73.24,-868.65,517.58,-0.37,3.49,2.98,77.29
28319,772.22,765.70,766.13,756.74,765.20,82.03,-866.21,511.72,-0.85,-0.40,3.08,77.63
28353,771.98,765.87,766.31,756.70,765.22,67.87,-881.35,511.23,0.17,0.17,2.60,82.11
28387,771.90,766.07,766.29,756.68,765.23,67.87,-872.07,515.62,1.11,0.04,1.01,80.50
28421,772.12,765.95,766.18,756.66,765.23,72.75,-879.39,519.53,-0.17,0.91,-2.09,78.38
28455,772.16,766.02,766.22,756.68,765.27,92.77,-878.42,513.18,-0.02,1.12,-1.08,78.30
28490,772.07,766.02,766.17,756.69,765.24,68.36,-880.37,492.68,-0.91,3.31,-1.04,77.24
28524,772.04,765.97,766.15,756.57,765.18,93.75,-881.84,505.37,-0.21,0.94,-2.24,79.15
28558,771.66,766.07,766.23,756.63,765.15,82.03,-891.11,503.42,1.55,3.79,0.76,80.82
28594,770.97,766.06,766.31,756.75,765.02,85.45,-875.49,513.18,-1.99,1.57,2.37,83.51
28628,770.28,766.14,766.35,756.77,764.89,79.59,-865.72,509.28,1.05,2.79,1.96,85.86
28662,769.67,766.23,766.52,756.78,764.80,85.45,-875.49,509.28,1.57,2.81,0.96,91.20
28696,769.08,766.28,766.71,756.87,764.74,82.03,-884.28,493.16,2.49,1.87,1.77,96.38
28730,768.52,766.51,766.82,756.94,764.70,75.20,-875.00,511.72,-0.65,3.59,0.21,97.94
28764,768.22,766.67,766.98,757.04,764.73,75.68,-878.91,516.60,-1.49,-0.26,0.52,100.30
28798,767.81,766.73,767.14,757.03,764.68,86.43,-887.70,507.32,0.98,0.98,0.29,105.48
28833,767.48,766.78,767.15,757.07,764.62,87.40,-872.56,507.32,0.33,2.50,0.58,105.83
28867,767.20,766.74,767.14,757.02,764.52,70.31,-863.28,501.95,1.15,3.60,-0.66,107.61
28901,767.24,766.66,767.11,756.97,764.49,73.24,-874.51,505.86,2.33,1.64,0.56,108.03
28935,767.47,766.55,767.03,756.94,764.50,74.71,-865.23,511.72,-0.60,3.12,1.40,106.55
28969,767.74,766.51,766.91,756.86,764.51,79.10,-878.91,521.48,-1.44,0.00,-1.02,104.15
29003,768.05,766.42,766.80,756.86,764.53,78.12,-878.42,506.35,0.40,4.28,-1.47,101.13
29037,768.44,766.35,766.71,756.86,764.59,77.64,-876.46,501.95,-1.03,0.58,0.00,98.02
29070,768.70,766.24,766.65,756.76,764.59,69.34,-877.44,504.88,1.94,0.87,2.44,98.07
29104,768.89,766.23,766.58,756.70,764.60,73.24,-884.77,494.14,-0.58,0.08,-0.50,96.57
29138,769.20,766.33,766.53,756.74,764.70,85.94,-883.79,509.28,0.51,3.19,1.89,92.95
29171,769.21,766.45,766.43,756.66,764.69,70.31,-866.70,504.39,-1.76,2.90,-1.63,90.45
29205,768.77,766.72,766.63,756.77,764.72,78.12,-886.72,511.72,1.24,-0.05,-0.96,93.24
29239,768.22,767.01,766.95,756.89,764.77,87.40,-895.02,507.81,1.64,0.95,3.16,98.90
29273,767.13,767.28,767.30,757.09,764.70,94.24,-896.97,503.91,0.07,3.56,1.62,106.50
29307,766.27,767.53,767.80,757.24,764.71,76.17,-876.46,524.90,2.89,5.85,-0.02,117.58
29340,765.62,767.80,768.18,757.42,764.75,64.45,-847.66,512.21,2.15,2.62,0.98,124.42
29374,765.24,767.75,768.49,757.54,764.76,68.36,-876.95,512.21,0.49,1.39,2.88,132.03
29408,765.14,767.51,768.37,757.55,764.64,69.34,-887.70,512.70,0.08,1.66,2.39,131.27
29442,765.65,767.05,768.18,757.39,764.57,62.01,-884.77,514.16,-0.89,1.69,-0.50,130.80
29476,765.87,766.68,768.04,757.33,764.48,83.98,-894.53,516.11,4.85,2.29,-0.48,130.31
29510,765.99,765.83,767.73,757.27,764.21,86.43,-873.05,509.77,2.28,2.63,-3.06,129.96
29546,766.60,764.26,767.27,756.94,763.77,83.01,-870.61,527.34,-0.64,-1.53,-7.06,133.93
29580,766.75,763.20,766.92,756.55,763.36,48.83,-829.59,517.09,-1.55,-0.76,-0.87,138.94
29614,767.36,762.72,766.50,756.31,763.22,67.38,-873.05,486.82,-1.48,-1.70,-0.40,133.61
29649,767.48,762.16,765.98,756.07,762.92,91.80,-865.23,525.39,1.00,-1.11,-1.15,128.31
29683,768.88,761.78,765.55,755.94,763.04,92.77,-844.73,510.25,11.64,2.79,1.44,117.80
29717,770.76,761.97,765.31,755.95,763.50,99.12,-896.48,500.00,0.44,-1.25,-1.37,103.73
29751,770.70,761.90,764.96,755.77,763.33,97.17,-911.62,483.40,-2.27,0.86,-0.52,98.56
29785,772.34,762.25,764.61,755.76,763.74,86.43,-852.54,528.81,4.38,1.00,0.83,81.36
29819,774.91,763.12,764.49,755.67,764.55,85.94,-900.39,482.42,-6.80,-4.98,3.51,63.98
29853,776.28,763.28,763.96,755.52,764.76,81.54,-865.23,505.86,0.53,-0.69,-0.69,47.13
29888,777.88,763.77,763.47,755.39,765.13,80.57,-835.45,540.04,10.06,3.64,0.90,27.35
29922,779.28,764.15,763.50,755.43,765.59,75.20,-891.60,493.65,7.47,3.45,3.40,19.43
29956,779.49,764.09,763.23,755.38,765.55,84.96,-918.46,498.05,3.86,4.98,-2.94,13.27
29990,780.05,764.11,763.15,755.31,765.65,108.40,-873.54,518.07,4.61,-0.11,-1.73,10.36
30024,780.95,764.53,763.30,755.32,766.03,73.73,-897.46,501.95,4.09,-2.48,1.09,7.27
30058,780.64,764.44,763.17,755.23,765.87,84.96,-853.03,533.69,-1.27,-0.01,-2.61,7.23
30092,780.85,764.24,762.94,755.23,765.81,71.29,-824.22,556.64,1.87,2.59,-1.70,2.50
30127,780.42,764.45,762.98,755.19,765.76,79.59,-870.12,508.30,-3.66,0.79,2.92,3.71
30161,779.48,764.56,763.02,755.20,765.56,101.07,-915.04,500.00,-4.56,-0.95,1.23,7.05
30195,778.83,764.53,763.05,755.27,765.42,98.63,-878.91,520.02,0.70,1.02,2.37,9.18
30229,778.61,765.01,763.11,755.32,765.51,94.73,-854.00,528.32,1.79,2.12,3.17,6.97
30263,778.06,765.31,763.34,755.47,765.55,73.24,-874.51,513.18,3.15,2.31,1.72,10.01
30296,777.83,765.34,763.32,755.45,765.49,87.89,-888.67,514.65,-4.56,2.26,1.18,10.20
30330,777.80,765.61,763.36,755.47,765.56,100.59,-890.62,494.63,-2.79,-1.52,3.53,8.71
30364,777.68,765.92,763.49,755.47,765.64,93.26,-914.55,482.42,-2.31,0.59,-3.31,9.94
30399,777.69,765.57,763.41,755.57,765.56,80.57,-892.58,492.19,-0.21,2.05,-3.15,9.49
30433,777.96,765.47,763.32,755.50,765.56,76.17,-850.10,536.13,5.60,0.48,-0.37,8.00
30467,777.81,765.50,763.35,755.48,765.54,91.31,-879.88,513.67,0.33,1.52,1.10,9.37
30503,777.72,765.46,763.29,755.49,765.49,89.84,-889.65,498.54,-4.17,0.15,2.00,8.47
30537,777.75,765.60,763.19,755.42,765.49,85.94,-862.30,535.64,-1.23,2.13,-0.48,5.68
30571,777.35,765.56,763.23,755.45,765.40,72.75,-880.86,501.95,2.30,1.92,1.30,7.84
30605,777.22,765.56,763.12,755.38,765.32,87.89,-880.37,518.07,0.79,0.61,1.17,6.59
30639,777.02,765.41,763.09,755.40,765.23,74.22,-863.28,518.55,4.27,4.47,-2.98,7.53
30673,776.94,765.41,763.07,755.45,765.22,79.10,-865.72,529.30,1.74,-0.02,1.10,6.34
30706,776.75,765.29,763.07,755.36,765.12,83.01,-884.77,516.60,-3.29,3.98,0.54,9.39
30740,776.58,765.12,763.04,755.40,765.03,86.91,-875.98,523.93,3.58,2.23,-0.50,10.15
30774,776.65,765.01,762.94,755.50,765.02,85.94,-859.37,534.18,4.79,1.44,-2.19,6.62
30807,776.59,764.89,763.03,755.44,764.99,77.15,-878.42,528.81,4.49,1.91,0.67,11.04
30841,776.73,764.89,763.01,755.46,765.02,88.87,-855.47,521.00,-1.42,-0.37,-0.38,9.76
30875,776.79,764.91,763.19,755.46,765.09,79.59,-876.95,519.04,1.17,0.70,-1.34,13.81
30909,777.15,764.74,763.05,755.45,765.10,68.85,-875.98,501.46,2.23,1.69,-2.20,10.53
30943,777.66,764.53,763.04,755.43,765.17,88.87,-874.02,508.30,0.98,3.11,-0.51,10.47
30976,778.22,764.51,763.05,755.41,765.30,81.54,-869.14,513.18,-2.46,-0.18,-2.07,9.59
31010,778.86,764.56,763.07,755.45,765.48,86.91,-871.58,507.81,-3.42,1.21,-0.13,6.76
31044,779.40,764.57,762.99,755.40,765.59,89.84,-887.70,511.23,-0.53,1.98,-0.05,3.50
31078,779.60,764.54,762.97,755.43,765.63,90.33,-899.90,488.28,-2.28,2.47,-0.70,2.26
31112,779.85,764.47,762.92,755.49,765.68,86.43,-883.30,521.48,-0.07,2.00,-1.02,-0.19
31146,779.94,764.48,762.96,755.47,765.71,96.19,-891.11,507.32,-0.98,2.17,-2.22,0.52
31180,779.46,764.47,762.99,755.44,765.59,93.75,-893.07,511.72,-3.05,-1.11,-2.94,3.35
31214,778.63,764.54,763.00,755.53,765.43,90.82,-892.09,490.72,-1.52,2.11,1.17,4.81
31249,777.43,764.53,763.12,755.66,765.19,67.87,-878.91,501.95,-0.57,2.45,3.44,10.11
31283,776.50,764.36,763.05,755.71,764.90,100.10,-888.67,524.41,-4.26,3.63,-0.15,12.05
31317,775.88,764.45,763.04,755.76,764.78,91.80,-881.35,509.77,-2.82,2.52,0.78,12.35
31351,776.14,764.95,763.24,755.91,765.06,84.47,-885.25,497.56,-1.62,-1.39,3.47,10.35
31385,776.60,765.38,763.36,755.98,765.33,88.87,-883.30,500.98,4.49,0.05,1.85,7.31
31421,776.62,765.53,763.50,756.02,765.42,77.64,-892.09,501.46,2.21,2.87,1.69,8.95
31455,776.68,765.60,763.59,756.12,765.50,84.47,-864.75,497.56,-1.21,3.27,-0.21,9.04
31489,776.66,765.73,763.83,756.06,765.57,83.50,-875.98,503.91,0.34,2.98,0.45,14.92
31523,776.77,765.60,763.84,756.08,765.57,82.03,-883.79,510.74,1.36,0.46,0.74,15.58
31558,776.85,765.52,763.85,756.10,765.58,86.91,-875.00,492.68,1.80,2.89,-0.89,15.69
31592,777.09,765.30,763.75,756.01,765.54,78.12,-874.02,498.54,-0.03,2.44,-0.05,15.65
31626,777.66,765.18,763.66,755.92,765.61,82.03,-875.49,507.81,-1.61,0.18,-1.76,13.79
31660,778.13,765.08,763.52,755.84,765.64,80.08,-866.70,516.11,-2.76,0.82,1.20,10.54
31694,777.78,765.03,763.36,755.79,765.49,103.52,-897.95,490.23,-5.86,2.44,-0.04,8.99
31728,777.34,765.19,763.35,755.78,765.41,70.31,-901.86,485.84,-2.48,-1.36,3.73,9.11
31762,777.19,765.33,763.42,755.73,765.42,79.59,-895.51,484.86,3.36,1.20,1.83,10.78
31797,777.15,765.12,763.42,755.73,765.35,75.20,-873.54,495.61,3.95,1.18,0.47,12.62
31831,776.99,764.80,763.56,755.82,765.29,80.57,-893.55,495.61,6.96,4.84,-0.67,17.96
31865,776.81,764.30,763.42,755.87,765.10,83.50,-883.79,501.46,5.87,3.24,-1.24,18.42
31899,776.84,763.84,763.42,755.88,764.99,86.43,-866.21,508.30,6.31,2.46,-3.24,21.76
31933,777.17,763.57,763.44,755.81,765.00,102.05,-867.68,517.58,3.09,3.24,-2.18,24.46
31967,776.92,763.23,763.39,755.84,764.84,84.47,-865.72,530.76,2.86,4.85,0.31,26.17
32001,776.67,763.20,763.53,755.88,764.82,71.29,-875.98,518.55,-1.33,-0.04,3.62,30.36
32036,776.53,763.10,763.64,755.80,764.77,92.29,-897.95,500.98,1.47,2.56,-0.16,35.42
32070,776.23,762.85,763.58,755.81,764.62,104.00,-886.23,497.56,0.12,2.14,-0.15,36.90
32104,775.64,762.77,763.86,755.85,764.53,74.22,-889.65,499.51,5.78,1.20,0.37,46.14
32138,774.80,762.81,764.19,755.99,764.44,103.52,-892.09,511.23,7.73,5.65,-0.53,54.73
32172,774.25,762.93,764.68,756.02,764.47,73.73,-870.61,509.77,4.63,4.15,0.50,67.19
32206,773.85,763.19,764.95,756.22,764.55,85.94,-863.77,524.90,2.04,2.42,1.77,70.51
32240,773.35,763.67,765.33,756.28,764.66,91.80,-879.39,500.98,-3.01,0.76,2.46,76.75
32275,772.87,764.26,765.69,756.34,764.79,84.47,-879.88,502.44,-0.11,-0.20,4.36,81.89
32308,772.38,764.75,765.87,756.44,764.86,70.31,-869.14,515.14,-0.24,4.38,4.62,82.64
32342,772.04,765.12,766.10,756.50,764.94,78.61,-870.61,528.81,2.31,0.84,1.71,85.65
32377,771.76,765.53,766.17,756.54,765.00,77.15,-866.21,517.58,-0.24,2.64,1.11,84.41
32411,771.21,765.96,766.34,756.63,765.04,88.87,-881.84,498.05,1.04,1.11,1.76,85.85
32444,770.39,766.57,766.71,756.72,765.10,86.91,-880.86,514.65,-1.69,3.69,3.82,91.59
32478,769.28,767.16,767.02,756.83,765.07,83.01,-886.23,513.18,-2.60,3.35,6.52,96.83
32511,768.27,767.57,767.25,756.82,764.98,82.03,-875.00,509.77,-2.57,0.53,3.88,103.00
32546,767.51,767.94,767.51,756.95,764.98,76.66,-882.32,488.77,1.18,3.78,2.70,106.98
32580,766.38,768.26,767.84,756.99,764.87,79.10,-883.79,502.44,-0.89,1.89,1.07,115.98
32613,765.71,768.64,767.90,757.03,764.82,66.89,-881.84,503.42,2.53,2.66,2.21,116.15
32647,765.13,768.82,768.03,757.02,764.75,62.99,-874.51,508.79,-0.26,0.63,1.62,120.04
32681,765.03,769.14,768.11,757.05,764.83,69.82,-879.88,525.39,-2.31,1.53,3.65,119.48
32715,764.65,769.19,768.07,757.08,764.75,74.22,-900.39,504.88,-0.78,1.23,1.10,119.00
32749,764.54,769.24,768.10,757.01,764.72,73.24,-876.95,504.88,3.11,0.60,0.35,120.54
32783,764.36,769.34,768.12,757.04,764.72,80.57,-881.84,504.88,-0.26,1.69,1.11,120.53
32817,763.68,769.54,768.27,757.09,764.65,85.94,-877.93,504.88,0.24,2.36,3.58,124.32
32851,762.99,769.76,768.50,757.11,764.59,67.38,-883.79,500.00,2.69,2.27,-0.69,130.33
32886,762.23,769.99,768.72,757.20,764.53,74.71,-865.72,499.51,0.72,1.78,1.25,135.34
32920,761.44,770.16,768.87,757.18,764.41,67.87,-882.81,500.98,0.44,2.11,2.93,140.51
32954,760.82,770.33,768.97,757.22,764.34,50.29,-875.00,507.32,-2.49,0.47,1.11,143.16
32988,760.49,770.47,769.03,757.36,764.34,73.73,-882.81,512.21,-0.23,3.80,-0.92,142.64
33022,760.05,770.72,769.20,757.36,764.33,75.20,-875.49,516.11,-0.31,1.15,1.13,146.54
33056,759.59,771.05,769.48,757.52,764.41,64.94,-903.32,492.68,-0.89,0.60,1.12,149.96
33090,758.90,771.41,769.68,757.45,764.36,59.08,-875.98,505.86,-0.40,3.15,-0.77,155.47
33125,758.30,771.56,769.83,757.62,764.33,82.52,-884.77,511.23,-2.79,1.27,-0.07,157.54
33159,757.62,771.74,770.16,757.65,764.29,60.06,-893.07,510.25,-0.56,0.93,3.05,166.24
33193,757.15,772.00,770.33,757.66,764.29,60.06,-876.46,510.74,-0.74,0.81,3.12,169.78
33227,756.91,772.28,770.53,757.75,764.37,65.43,-871.09,505.37,0.43,1.89,-0.15,172.09
33261,756.81,772.44,770.59,757.73,764.39,70.31,-869.63,502.93,-1.26,0.80,0.66,172.96
33295,756.80,772.68,770.79,757.77,764.51,78.12,-881.35,512.21,-1.30,3.28,0.08,175.64
33331,756.72,772.81,770.96,757.89,764.60,78.12,-891.11,507.32,0.92,2.15,1.54,177.25
33365,756.69,773.00,771.09,757.92,764.68,64.45,-877.44,511.23,-0.74,-0.23,0.51,178.62
33399,756.71,773.21,771.24,758.01,764.79,65.43,-878.42,491.70,1.77,0.81,2.15,179.04
33433,756.84,773.34,771.40,758.03,764.90,68.36,-887.70,501.46,0.63,0.73,-0.61,181.41
33467,756.81,773.38,771.60,758.11,764.98,63.96,-877.93,509.77,0.05,1.35,-0.19,184.92
33502,756.89,773.34,771.74,758.11,765.02,61.04,-898.93,517.58,3.27,1.15,2.31,188.55
33536,757.22,773.33,771.80,758.16,765.13,70.31,-883.30,516.11,2.18,-0.20,-3.15,188.21
33570,757.65,773.07,771.78,758.15,765.16,62.01,-888.67,503.42,4.40,0.92,-0.53,188.46
33604,758.10,772.82,771.66,758.07,765.16,62.01,-868.65,520.51,2.06,-1.34,0.19,187.01
33638,758.63,772.47,771.39,758.00,765.12,66.41,-887.21,498.05,2.34,2.15,-3.28,182.53
33672,759.14,771.88,771.16,757.85,765.01,78.12,-878.42,516.11,-0.66,-2.22,0.56,181.77
33706,760.15,771.25,770.75,757.71,764.97,72.27,-874.51,509.28,-0.32,-0.38,-0.56,175.34
33741,761.01,770.81,770.56,757.50,764.97,75.20,-886.23,507.32,-0.10,0.60,0.12,174.22
33775,761.52,769.94,770.05,757.34,764.71,89.36,-868.16,516.60,-3.83,-1.44,-2.04,169.05
33809,762.71,768.70,769.17,756.99,764.39,68.36,-875.98,534.67,-2.14,1.78,-2.42,158.13
33843,762.70,767.80,768.65,756.74,763.97,85.94,-891.11,502.44,1.65,1.92,-2.04,156.37
33877,762.46,767.06,768.55,756.71,763.70,71.29,-892.09,508.30,1.97,-0.18,-0.11,161.02
33911,763.23,765.88,767.99,756.54,763.41,68.85,-861.33,513.67,-2.05,1.13,-3.80,156.15
33945,763.64,765.07,767.28,756.37,763.09,69.82,-864.75,531.74,2.76,0.85,-0.95,146.28
33979,764.75,764.87,766.57,756.15,763.09,81.05,-875.00,511.72,-4.50,-0.68,-2.99,129.48
34012,766.41,765.04,766.32,756.08,763.46,55.66,-880.86,521.48,-3.67,2.34,1.18,117.13
34046,767.24,765.02,765.84,756.03,763.53,100.10,-901.86,497.56,1.16,-1.38,1.53,103.56
34079,768.89,764.98,765.52,756.01,763.85,67.38,-848.14,507.32,-1.43,-0.27,-1.46,90.30
34113,771.43,765.05,765.28,755.94,764.43,83.01,-870.12,496.58,1.16,0.37,1.49,76.08
34147,771.53,764.91,764.81,755.88,764.28,86.43,-901.86,499.51,3.02,0.70,1.33,66.05
34181,772.13,764.95,763.96,755.73,764.19,63.96,-859.86,512.21,0.08,2.47,1.56,44.90
34215,773.65,765.15,763.45,755.59,764.46,81.05,-844.24,527.34,6.76,3.98,0.31,27.35
34249,775.42,765.25,763.08,755.54,764.82,73.73,-875.98,474.12,-4.44,-0.25,-0.51,11.93
34284,777.00,765.35,762.65,755.34,765.09,117.68,-911.62,468.75,-7.85,-1.47,-0.67,-2.15
34318,777.98,765.56,762.51,755.42,765.37,85.94,-874.02,510.25,-5.19,-1.74,-0.05,-11.87
34352,778.83,765.74,762.31,755.35,765.56,86.43,-885.25,475.10,-7.55,-6.11,-0.88,-19.95
34386,779.81,765.72,762.17,755.29,765.75,71.29,-862.79,507.32,-2.02,0.15,-0.13,-25.84
34420,781.19,765.45,762.00,755.25,765.97,68.85,-867.68,514.16,17.32,5.42,-0.34,-32.08
34454,782.54,765.07,762.12,755.12,766.21,77.64,-879.88,505.86,7.67,7.98,-0.71,-28.83
34488,783.25,764.35,762.04,755.03,766.17,77.15,-907.71,461.43,-0.37,3.50,-6.39,-26.28
34522,785.06,763.72,761.77,754.96,766.38,84.47,-816.41,567.38,3.75,5.97,-3.59,-32.93
34557,786.74,763.43,761.71,754.99,766.72,78.61,-866.70,517.09,5.19,4.15,-3.89,-38.37
34591,787.90,762.81,761.63,754.91,766.81,78.12,-907.23,460.94,1.59,0.86,-6.84,-38.26
34625,790.40,762.13,761.24,754.96,767.18,95.21,-887.70,505.37,-8.01,-0.18,-6.40,-51.72
34659,791.50,761.66,761.02,754.91,767.27,129.39,-940.43,436.04,-6.23,-0.93,-3.35,-56.59
34693,792.10,761.41,760.95,754.92,767.34,120.61,-932.62,459.96,-5.60,0.73,0.17,-58.45
34727,792.37,761.08,760.74,754.95,767.28,130.86,-885.25,471.19,-3.87,-0.14,-1.80,-62.25
34761,791.56,761.19,760.73,754.91,767.10,126.46,-893.55,472.66,4.57,1.41,0.69,-60.15
34796,790.84,761.16,760.67,754.92,766.90,103.03,-870.61,494.14,-3.27,-0.68,0.10,-59.14
34830,790.17,761.04,760.64,754.91,766.69,80.08,-851.56,547.85,10.96,7.15,1.77,-56.34
34864,789.12,761.27,760.65,754.84,766.47,128.42,-874.51,494.14,7.11,2.77,2.79,-53.51
34898,788.64,761.24,760.58,754.83,766.32,90.82,-837.40,519.04,-3.76,1.76,-0.21,-52.97
34932,788.36,761.25,760.52,754.90,766.26,94.24,-876.95,512.21,-4.18,3.05,-1.78,-54.66
34966,788.38,761.29,760.44,754.92,766.26,111.33,-901.86,490.72,-2.93,2.61,0.69,-57.37
35000,788.53,761.33,760.39,754.91,766.29,94.73,-914.55,479.00,-7.32,-1.10,-2.23,-59.34
35035,788.52,761.23,760.44,754.88,766.27,113.77,-921.39,479.98,1.54,4.32,1.63,-56.76
35069,788.61,761.18,760.31,754.92,766.25,116.70,-910.16,459.47,-1.93,2.56,-0.95,-60.41
35103,788.56,761.05,760.28,754.84,766.18,89.84,-871.58,527.34,1.40,1.79,0.61,-58.85
35137,788.47,761.10,760.18,754.86,766.15,104.98,-894.53,479.98,-1.93,-0.69,0.69,-61.79
35171,788.33,761.14,760.18,754.90,766.14,111.82,-884.28,487.30,-1.37,1.98,0.61,-62.26
35205,788.28,761.16,760.16,754.88,766.12,106.45,-891.60,470.70,-2.24,1.78,1.79,-62.41
35241,788.23,761.18,760.15,754.97,766.13,106.45,-906.74,479.98,5.35,1.80,1.10,-64.05
35275,788.08,761.26,760.16,754.87,766.09,111.82,-903.81,481.45,-0.58,3.47,-0.79,-62.54
35309,787.95,761.23,760.17,754.86,766.05,95.21,-889.65,510.25,3.07,-0.40,1.98,-61.46
35344,787.78,761.25,760.13,754.80,765.99,128.91,-885.25,492.19,-1.23,1.92,3.42,-60.92
35378,787.54,761.17,760.13,754.88,765.93,103.52,-871.58,505.37,3.34,5.69,0.53,-60.69
35412,787.55,761.27,760.08,754.90,765.95,100.10,-880.37,491.70,-0.11,1.63,1.76,-63.12
35446,787.98,761.41,760.19,754.92,766.12,86.91,-849.12,516.11,-0.56,-2.44,2.28,-63.13
35480,788.37,761.41,760.30,754.83,766.23,110.35,-896.00,489.75,-1.77,-1.40,2.84,-60.50
35514,788.90,761.67,760.32,754.91,766.45,92.29,-870.12,501.95,-5.68,-0.92,3.05,-64.97
35548,789.55,761.78,760.35,754.81,766.62,97.17,-904.79,488.28,-4.12,-2.49,2.39,-66.15
35581,790.14,761.73,760.28,754.82,766.74,108.40,-892.09,482.42,-2.03,-0.08,-0.71,-69.57
35615,790.42,761.69,760.30,754.86,766.82,101.56,-899.41,488.77,3.05,3.81,-2.79,-70.25
35649,790.64,761.60,760.28,754.81,766.83,88.87,-893.55,480.47,2.79,5.34,-1.63,-70.00
35682,790.81,761.50,760.28,754.89,766.87,96.19,-894.53,507.81,-1.60,2.44,-0.22,-70.94
35716,790.74,761.23,760.20,754.81,766.74,93.26,-875.00,506.84,-1.78,1.28,-1.49,-69.52
35750,790.37,761.32,760.18,754.84,766.68,117.19,-878.91,472.66,2.56,0.41,1.79,-69.71
35784,790.22,761.26,760.11,754.80,766.60,94.73,-866.70,513.67,-1.69,2.86,0.89,-70.09
35818,789.95,761.19,760.09,754.81,766.51,106.45,-874.02,477.05,-1.36,-1.82,2.55,-69.18
35852,789.66,761.06,760.05,754.74,766.38,96.68,-825.68,518.55,-2.06,-0.37,-0.50,-67.05
35885,789.21,760.98,759.98,754.83,766.25,118.65,-898.93,484.86,-3.96,0.90,0.41,-68.01
35919,788.81,760.97,760.00,754.81,766.15,104.49,-892.58,488.77,-3.01,0.32,2.04,-65.66
35953,788.16,761.04,759.99,754.83,766.00,127.93,-888.67,479.49,-4.47,2.66,3.50,-64.53
35987,788.17,761.16,760.07,754.81,766.05,70.31,-902.83,508.79,8.08,3.18,1.87,-63.31
36021,787.46,761.25,760.08,754.80,765.90,105.96,-894.04,472.66,5.47,3.23,2.04,-61.15
36056,786.55,761.38,760.12,754.81,765.71,105.96,-914.55,465.82,6.55,4.34,2.83,-58.28
36090,786.28,761.43,760.21,754.81,765.68,79.10,-876.95,542.48,19.60,10.08,4.71,-55.46
36124,785.83,761.16,760.03,754.79,765.45,116.21,-902.34,462.89,-1.73,4.76,1.25,-55.79
36158,785.72,761.08,759.82,754.84,765.36,120.61,-900.39,459.96,-11.92,-0.75,-3.45,-61.00
36194,785.69,761.37,760.04,754.79,765.47,100.59,-867.19,498.54,17.71,3.39,3.37,-56.83
36228,785.79,761.14,760.08,754.80,765.45,71.29,-875.49,494.14,4.14,0.49,-2.15,-54.44
36262,785.58,761.08,760.05,754.80,765.38,107.91,-856.45,511.23,4.17,2.32,-1.63,-54.17
36296,785.49,761.33,760.16,754.85,765.46,85.94,-826.17,521.00,0.21,-0.36,-1.20,-53.75
36330,785.32,761.15,760.12,754.82,765.35,76.66,-777.83,535.64,-13.11,-2.24,-2.74,-52.37
36364,785.13,761.23,760.24,754.85,765.36,94.73,-882.81,459.47,3.50,-4.05,1.16,-49.74
36399,784.92,761.18,760.45,754.82,765.34,129.39,-920.41,462.40,-8.95,-1.83,-1.86,-43.00
36433,784.42,761.32,760.70,754.89,765.33,88.38,-883.79,501.95,-6.59,-1.65,0.39,-37.00
36467,784.16,761.34,761.06,754.91,765.37,100.59,-862.79,541.02,8.19,2.05,4.17,-27.85
36501,784.00,761.38,761.20,754.99,765.39,92.77,-875.98,500.98,8.76,2.42,3.66,-25.24
36535,783.42,761.69,761.55,755.00,765.42,80.57,-867.19,509.28,-0.23,1.35,3.33,-17.30
36569,782.31,762.06,762.31,755.23,765.48,79.10,-870.61,511.23,0.26,-0.88,5.44,-0.75
36603,781.31,762.22,762.70,755.37,765.40,98.14,-890.14,499.02,0.66,2.22,0.26,9.02
36638,780.75,762.41,762.94,755.51,765.40,90.82,-895.51,506.84,0.63,0.00,1.37,13.35
36672,780.59,762.68,763.26,755.63,765.54,103.52,-877.44,521.48,-1.21,0.12,2.42,17.96
36706,780.35,763.22,763.74,755.82,765.78,82.03,-882.81,513.67,-0.82,-0.29,4.76,23.60
36740,779.92,763.65,764.09,756.00,765.92,91.80,-888.67,498.05,-4.37,-0.55,2.57,27.61
36774,778.87,764.01,764.15,755.99,765.75,86.91,-877.44,503.91,-1.70,1.36,2.20,30.03
36808,777.84,764.32,764.15,756.21,765.63,92.29,-886.23,514.65,1.05,3.67,2.21,27.72
36843,777.01,764.67,764.47,756.34,765.62,92.29,-872.56,503.42,2.37,1.35,1.54,33.99
36877,776.20,764.93,764.81,756.40,765.59,78.12,-880.86,513.67,1.90,1.24,1.51,42.27
36911,775.79,765.26,765.22,756.56,765.71,93.26,-864.26,517.58,0.50,3.21,1.95,49.05
36945,775.59,765.26,765.43,756.58,765.71,74.71,-871.09,517.58,1.24,3.18,3.07,54.56
36979,775.51,765.23,765.50,756.55,765.70,84.47,-864.75,507.81,1.05,0.47,-0.40,57.10
37013,775.28,765.08,765.39,756.48,765.55,97.17,-877.44,504.88,-0.20,0.22,-0.02,57.52
37047,775.36,764.87,765.24,756.38,765.46,78.12,-880.37,522.95,3.13,-0.40,1.60,56.53
37082,775.41,764.83,765.10,756.32,765.42,87.40,-864.75,514.65,-0.79,-0.95,0.63,54.07
37116,775.45,764.66,764.94,756.27,765.33,83.50,-884.28,499.51,-0.47,-0.59,2.11,52.20
37151,775.72,764.55,764.83,756.13,765.31,77.15,-884.28,518.07,1.69,2.75,-3.85,51.41
37185,775.68,764.62,764.76,756.13,765.30,69.82,-885.25,502.44,0.10,-0.40,0.95,49.18
37219,775.84,764.66,764.68,756.12,765.32,85.94,-865.72,521.97,2.51,1.47,0.43,46.57
37252,775.82,764.80,764.74,756.18,765.38,71.29,-868.16,512.70,-0.23,1.92,1.55,46.02
37286,775.87,765.03,764.91,756.26,765.52,76.66,-862.30,515.14,1.20,0.84,3.34,47.01
37319,775.42,765.16,765.01,756.20,765.45,84.96,-874.51,508.79,0.34,3.31,0.22,51.02
37353,774.68,765.32,765.22,756.21,765.36,80.57,-871.58,509.77,1.92,1.86,-0.81,57.22
37387,773.76,765.46,765.33,756.34,765.22,74.22,-871.58,513.18,1.32,4.75,2.20,60.11
37421,772.59,765.62,765.51,756.37,765.02,88.38,-878.42,504.39,-1.20,1.27,2.73,67.00
37455,771.74,765.89,765.68,756.38,764.92,78.61,-879.39,507.81,-0.74,1.92,1.24,71.85
37489,770.99,766.15,765.93,756.61,764.92,67.38,-874.51,521.97,-1.46,2.95,4.41,75.30
37523,770.55,766.41,766.14,756.63,764.93,80.08,-875.49,512.70,0.54,1.59,1.06,79.40
37556,770.17,766.71,766.46,756.65,765.00,72.27,-884.28,520.02,1.96,-0.54,2.59,86.21
37590,769.53,766.87,766.59,756.67,764.91,72.75,-881.35,503.42,2.89,-0.59,2.24,90.00
37624,768.86,766.98,766.74,756.78,764.84,74.71,-872.56,510.74,2.00,1.10,-1.91,93.52
37658,768.31,767.06,766.82,756.73,764.73,63.96,-870.12,516.11,-0.44,1.60,-0.08,97.35
37693,767.98,767.15,766.79,756.74,764.66,74.71,-881.84,517.58,-0.91,-0.66,-0.55,96.96
37727,767.96,767.18,766.78,756.87,764.70,72.27,-875.49,500.49,0.32,2.48,0.69,94.65
37761,768.20,767.18,766.82,756.79,764.75,71.29,-877.93,503.91,-0.87,1.02,1.73,96.02
37795,768.58,767.09,766.67,756.78,764.78,68.85,-878.42,510.74,-2.94,2.15,-0.38,91.86
37829,768.79,766.90,766.77,756.70,764.79,59.57,-880.37,517.58,-2.34,2.53,1.74,96.18
37863,769.06,766.93,766.61,756.73,764.83,82.03,-877.44,516.11,0.79,3.74,0.84,90.82
37898,769.14,766.87,766.58,756.73,764.83,86.43,-885.74,508.79,2.18,0.98,0.45,90.30
37932,769.22,766.88,766.59,756.70,764.85,79.10,-874.02,509.28,-1.18,0.23,0.81,90.62
37966,769.32,766.89,766.60,756.71,764.88,66.41,-877.44,505.37,0.02,0.89,1.52,90.22
38000,769.32,766.94,766.62,756.68,764.89,80.57,-879.39,505.37,-0.36,0.86,1.05,90.65
38034,769.46,766.87,766.62,756.71,764.92,73.73,-882.32,517.09,1.63,1.29,-0.59,90.17
38068,769.73,767.00,766.64,756.67,765.01,71.78,-874.02,521.48,-0.48,0.50,1.89,89.46
38104,769.67,767.00,766.62,756.70,765.00,86.91,-862.79,492.68,-1.98,-2.30,1.02,88.66
38138,769.31,767.05,766.70,756.67,764.93,86.43,-881.84,500.98,2.34,0.76,0.03,92.14
38172,768.78,767.12,766.83,756.67,764.85,76.17,-880.37,508.79,2.43,2.78,-1.45,96.58
38206,768.36,766.99,766.88,756.75,764.75,76.17,-873.05,509.77,2.01,2.57,0.73,98.98
38241,767.96,767.14,766.98,756.81,764.72,90.33,-875.49,517.09,1.28,1.66,-1.41,100.85
38275,767.58,767.21,767.05,756.88,764.68,72.27,-880.86,511.23,-0.92,0.48,0.50,102.28
38309,767.19,767.29,767.10,756.85,764.61,82.03,-883.79,499.02,-2.84,1.93,-0.53,104.69
38343,767.23,767.40,767.15,756.87,764.66,80.57,-867.68,522.95,-1.00,1.34,-0.85,104.52
38377,767.41,767.34,767.02,756.90,764.67,75.68,-882.32,509.77,0.62,-0.16,2.11,100.61
38411,767.56,767.30,766.97,756.80,764.66,68.36,-871.09,515.62,0.71,1.00,-1.52,100.79
38445,767.84,766.93,766.66,756.72,764.54,75.68,-872.56,493.65,0.36,0.99,-3.27,96.36
38480,767.24,766.32,766.13,756.61,764.07,92.29,-901.86,504.39,-2.22,2.55,-1.53,91.61
38514,766.93,765.11,765.30,756.37,763.43,75.20,-860.84,504.39,-3.00,1.81,-0.79,85.35
38548,768.11,764.13,764.69,756.13,763.26,71.78,-879.39,506.35,5.42,0.29,-3.25,77.35
38582,771.34,763.37,764.05,755.79,763.64,76.66,-875.98,509.28,13.78,1.10,-3.40,61.53
38616,775.17,762.73,763.71,755.46,764.27,87.89,-879.88,546.87,13.84,4.07,-5.53,49.81
38650,777.48,762.03,762.91,755.17,764.40,108.89,-877.44,531.25,13.48,4.24,-3.71,31.91
38684,779.79,761.79,762.09,755.06,764.69,107.91,-892.09,510.25,-9.96,-1.19,-7.89,7.08
38719,781.02,761.21,761.39,755.13,764.69,98.63,-903.32,521.48,0.84,3.70,-7.85,-10.89
38753,781.99,761.06,760.95,755.05,764.76,120.12,-913.57,475.59,-3.88,3.76,-5.24,-22.83
38787,784.20,761.05,760.97,755.05,765.32,98.14,-770.02,582.52,15.09,6.96,-1.24,-30.09
38821,786.43,761.34,761.08,755.08,765.98,96.68,-861.82,524.90,1.18,1.71,1.33,-37.50
38854,788.38,761.45,761.10,754.99,766.48,100.10,-902.83,489.26,-4.82,-2.38,1.35,-43.45
38888,791.26,761.30,761.05,754.97,767.14,93.26,-850.10,521.48,-11.04,-1.83,-3.16,-52.96
38921,792.01,761.32,761.01,754.90,767.31,117.19,-845.21,524.90,2.37,0.16,-0.58,-55.58
38955,791.51,761.49,761.02,754.89,767.23,102.54,-861.33,500.49,-2.84,-2.53,1.69,-54.87
38989,791.17,761.54,761.07,754.96,767.18,86.43,-882.81,493.65,-2.89,-0.09,0.24,-53.99
39023,791.19,761.54,761.01,754.91,767.16,88.87,-916.02,481.93,3.01,5.08,-2.90,-54.79
39058,789.65,761.52,760.99,754.98,766.78,117.68,-875.49,514.16,2.23,-0.13,-0.11,-50.68
39092,788.52,761.40,760.89,754.92,766.43,53.22,-758.30,605.47,1.21,4.08,-0.87,-47.62
39126,787.15,761.67,761.11,754.93,766.22,116.21,-930.18,491.21,12.03,0.84,5.71,-39.76
39160,786.32,761.76,761.25,754.93,766.06,82.03,-873.54,508.79,-8.40,-1.55,1.21,-34.18
39194,786.03,761.84,761.34,754.84,766.01,94.24,-870.12,526.86,6.56,0.54,2.68,-30.26
39227,785.91,762.25,761.58,754.94,766.17,109.37,-877.44,498.05,3.95,-1.59,4.46,-28.63
39262,785.54,762.46,761.74,754.89,766.15,97.17,-850.10,541.02,2.34,-2.60,1.55,-24.28
39296,785.46,762.71,761.92,754.98,766.27,79.59,-832.52,551.27,7.19,3.01,0.90,-22.72
39330,785.60,763.23,761.99,755.03,766.46,88.87,-847.66,509.28,0.81,2.69,2.75,-26.34
39364,785.21,763.41,762.12,755.03,766.44,102.54,-870.12,538.57,-2.30,1.09,1.68,-23.32
39398,784.45,763.48,762.24,755.07,766.31,103.03,-884.28,525.39,3.85,1.34,-0.02,-18.90
39432,784.18,763.64,762.30,755.11,766.31,92.29,-854.00,527.34,4.44,2.75,2.25,-18.42
39466,784.03,763.65,762.41,755.14,766.31,67.38,-855.96,541.99,1.77,0.85,-0.92,-15.61
39501,783.84,763.64,762.41,755.13,766.26,83.98,-847.17,541.99,-0.48,0.43,-1.27,-14.66
39535,783.08,763.75,762.63,755.17,766.16,87.89,-841.31,539.06,-0.21,2.51,1.75,-8.11
39569,782.59,763.71,762.71,755.20,766.05,87.89,-846.19,535.16,-1.87,-0.34,0.53,-4.40
39603,781.77,763.57,762.70,755.17,765.80,92.29,-868.65,538.09,-3.32,2.28,-0.71,-0.34
39637,781.17,763.52,762.67,755.23,765.65,76.66,-846.68,522.46,0.07,2.03,0.96,0.34
39671,780.61,763.53,762.64,755.17,765.49,77.64,-838.87,536.13,-1.17,2.83,-0.03,2.28
39705,779.89,763.59,762.65,755.18,765.33,90.82,-847.66,535.16,0.01,2.74,-0.53,4.40
39740,779.13,763.60,762.57,755.20,765.12,84.96,-865.72,542.97,1.31,-0.48,1.63,4.58
39774,779.02,763.60,762.69,755.24,765.14,77.64,-855.96,520.51,-3.23,-0.75,0.67,7.55
39808,779.15,763.61,762.62,755.24,765.15,83.50,-865.23,538.09,-0.21,0.73,-0.18,5.19
39842,779.66,763.60,762.61,755.24,765.28,75.68,-860.84,532.71,-0.19,-0.99,0.55,3.17
39876,780.39,763.52,762.67,755.13,765.43,90.82,-855.47,527.83,0.27,-0.85,1.95,4.56
39910,781.13,763.44,762.56,755.15,765.57,69.34,-862.30,535.64,0.22,2.30,-1.57,-0.51
39944,781.69,763.45,762.58,755.07,765.70,85.45,-873.05,528.32,1.06,0.05,-0.46,-0.73
39979,782.32,763.50,762.59,755.08,765.87,87.89,-877.44,513.18,-0.86,3.22,-2.18,-3.29
40014,782.72,763.47,762.58,755.08,765.96,68.36,-867.19,525.39,0.35,-0.54,-1.31,-4.48
40049,783.34,763.28,762.46,755.06,766.04,90.33,-866.70,534.18,-3.10,1.85,-1.92,-7.88
40083,783.85,763.25,762.38,755.06,766.13,89.84,-875.49,516.11,-2.66,-0.03,-2.34,-11.43
40117,784.48,763.24,762.24,755.04,766.25,86.91,-861.82,530.27,-7.15,-1.13,-3.70,-16.50
40151,784.75,763.18,762.12,755.01,766.27,90.82,-889.65,494.14,-7.95,-1.44,0.35,-19.59
40185,784.77,763.17,762.08,755.02,766.26,103.03,-914.06,488.28,-7.05,-0.59,-0.21,-20.68
40219,784.56,763.22,762.09,754.93,766.20,84.96,-867.68,514.16,-2.63,0.14,1.41,-18.72
40253,784.03,763.05,762.03,755.03,766.04,91.80,-886.72,511.72,-3.19,1.11,-0.15,-18.50
40288,783.73,763.07,761.98,754.95,765.93,96.19,-857.42,516.11,-0.50,4.38,-0.16,-17.93
40322,783.92,763.03,761.91,754.96,765.96,69.82,-860.84,523.44,-1.88,0.72,1.40,-19.98
40356,783.70,762.96,761.76,754.92,765.84,85.94,-871.09,504.88,-7.07,-0.91,0.50,-21.77
40389,783.47,762.98,761.69,754.94,765.77,94.24,-880.37,499.02,-3.66,0.66,0.55,-23.27
40422,783.26,762.99,761.69,754.96,765.73,108.40,-904.79,481.45,-5.64,-2.28,-0.31,-22.92
40456,783.11,763.24,761.73,755.01,765.77,99.12,-889.16,501.46,-2.95,-2.49,3.04,-24.22
40490,783.43,763.66,761.79,755.00,765.97,85.45,-885.74,501.95,3.29,1.40,1.53,-26.95
40523,783.30,763.67,761.88,755.11,765.99,78.61,-865.23,522.46,0.54,2.98,2.47,-25.90
40557,782.83,763.55,761.88,755.15,765.85,100.10,-907.71,477.54,-2.82,2.48,-0.39,-23.88
40590,782.50,763.61,762.04,755.22,765.84,97.66,-891.11,486.82,1.13,0.48,0.78,-20.32
40625,782.42,763.60,762.11,755.29,765.85,97.66,-872.56,506.35,-8.62,1.50,-1.41,-19.34
40658,782.16,763.37,762.06,755.31,765.72,96.19,-854.00,492.68,-2.39,-0.76,0.95,-18.20
40692,781.58,763.39,762.14,755.31,765.61,101.07,-891.60,489.26,-1.30,-2.20,-0.75,-14.26
40726,781.27,763.38,762.23,755.41,765.57,86.43,-891.60,498.05,-1.20,-0.88,2.07,-12.53
40760,781.10,763.31,762.44,755.44,765.57,85.94,-881.84,489.75,1.63,2.14,0.27,-6.52
40794,780.94,763.14,762.47,755.49,765.51,95.21,-889.65,502.44,3.51,1.86,0.77,-4.59
40828,780.81,762.98,762.50,755.46,765.43,87.40,-870.61,481.93,0.49,0.77,-1.90,-1.67
40862,780.66,763.03,762.56,755.50,765.44,82.52,-877.93,497.56,0.23,0.59,2.92,-0.68
40896,780.48,763.11,762.66,755.55,765.45,87.40,-882.81,490.23,3.38,-0.68,-1.22,1.17
40930,780.25,763.19,762.74,755.60,765.44,83.01,-864.26,498.05,0.80,1.55,1.84,2.47
40966,779.84,763.07,762.85,755.59,765.34,81.54,-868.16,497.56,-1.97,0.01,0.00,7.68
41000,779.62,763.16,763.04,755.70,765.38,85.94,-869.14,489.26,2.09,0.34,-1.18,10.81
41034,779.72,763.18,763.37,755.72,765.50,91.31,-884.28,513.67,-0.08,0.65,1.50,18.37
41068,778.94,763.11,763.63,755.76,765.36,78.61,-859.37,522.46,0.70,-1.85,2.33,27.60
41102,777.62,763.02,763.72,755.75,765.03,70.31,-884.77,492.68,-3.15,-0.72,0.44,35.22
41137,776.40,762.93,763.68,755.76,764.69,75.20,-875.00,506.84,-2.50,2.06,0.31,38.91
41171,776.21,763.18,763.74,755.85,764.74,83.50,-855.47,500.49,-3.11,1.21,2.73,37.56
41205,776.54,763.49,764.10,755.94,765.02,81.05,-872.56,508.30,5.92,0.49,0.82,41.59
41239,776.90,763.78,764.43,755.97,765.27,81.54,-875.00,508.30,4.40,2.15,-0.73,45.94
41273,777.08,764.08,764.84,756.01,765.50,89.36,-871.09,503.42,1.79,1.54,1.40,52.62
41307,776.81,764.51,765.13,756.16,765.65,90.33,-879.88,505.86,1.63,0.86,0.55,55.06
41341,776.39,764.98,765.41,756.21,765.75,90.33,-883.79,502.44,-2.10,-1.62,4.89,58.79
41376,775.63,765.44,765.47,756.30,765.71,82.52,-881.35,513.67,-1.66,0.99,1.37,57.91
41410,774.86,765.87,765.55,756.28,765.64,75.68,-873.05,486.33,0.67,-0.11,3.79,59.38
41444,774.04,766.02,765.74,756.36,765.54,67.87,-885.74,489.26,1.98,-2.77,1.65,64.60
41478,773.14,766.37,765.93,756.37,765.45,73.73,-890.14,498.54,4.55,4.00,0.35,69.54
41512,772.01,766.66,766.17,756.39,765.31,71.78,-877.44,513.18,-0.73,2.18,3.06,76.81
41546,771.03,767.06,766.31,756.49,765.22,73.24,-875.98,499.51,-1.31,-0.44,1.31,78.88
41580,769.89,767.23,766.52,756.58,765.06,86.43,-886.72,500.49,1.18,0.15,4.31,85.53
41614,769.13,767.57,766.78,756.61,765.02,78.12,-881.35,496.58,1.10,1.22,0.53,91.14
41649,768.63,767.90,767.14,756.71,765.10,71.78,-886.72,496.58,0.36,0.61,1.12,97.79
41683,767.73,768.26,767.53,756.86,765.10,79.10,-876.46,506.84,0.82,3.79,1.78,105.51
41717,767.30,768.48,767.80,756.93,765.13,74.71,-882.32,513.18,2.99,2.51,0.29,111.08
41751,766.75,768.53,768.02,756.95,765.06,77.15,-889.65,497.56,0.72,1.83,1.90,117.55
41785,766.34,768.47,768.13,756.99,764.98,70.80,-869.63,504.88,-0.09,1.71,-0.77,121.87
41819,766.10,768.29,768.07,756.90,764.84,69.82,-884.28,503.91,-2.74,4.46,0.85,123.90
41854,766.00,768.37,768.11,756.99,764.87,70.80,-899.90,504.88,0.30,2.39,-1.54,123.24
41888,765.99,768.33,768.15,756.92,764.85,76.17,-895.02,490.72,1.20,1.24,-0.91,125.48
41924,765.79,768.36,768.12,756.95,764.80,87.40,-873.05,518.07,0.37,2.03,0.05,124.93
41958,765.48,768.35,768.25,756.91,764.75,62.01,-883.30,508.30,1.60,3.23,-1.53,129.73
41992,765.12,768.38,768.53,756.96,764.75,63.96,-876.95,504.88,1.51,1.69,1.27,136.93
42026,764.87,768.51,768.70,757.07,764.79,61.04,-874.02,507.32,-1.33,1.15,-0.11,139.30
42060,764.63,768.57,768.81,757.02,764.76,67.87,-890.14,509.77,0.74,1.26,1.04,143.16
42093,764.58,768.55,769.04,756.98,764.79,73.73,-874.51,491.70,1.79,0.30,2.79,149.82
42127,764.44,768.57,769.20,757.02,764.81,66.89,-868.16,515.14,1.98,1.15,3.26,153.65
42160,764.37,768.57,769.29,757.01,764.81,71.78,-879.88,509.77,2.56,0.20,0.14,156.09
42194,764.23,768.59,769.53,757.03,764.85,62.01,-868.65,516.11,0.21,0.41,0.61,162.39
42228,764.27,768.54,769.71,757.09,764.90,57.13,-882.81,499.02,2.46,2.69,-1.35,166.20
42262,764.25,768.20,770.25,757.32,765.01,68.36,-878.91,512.21,2.51,1.73,-2.86,179.10
42296,764.32,767.93,770.69,757.57,765.13,56.64,-883.79,511.23,0.11,2.13,-0.08,188.19
42329,764.36,767.81,770.96,757.69,765.21,77.15,-880.86,508.30,1.44,1.07,0.28,193.99
42363,764.63,767.58,771.10,757.71,765.25,79.59,-868.16,500.98,-0.12,3.65,0.21,198.13
42397,764.96,767.58,771.03,757.68,765.31,76.66,-878.91,516.60,1.75,-1.17,-1.66,195.58
42431,765.27,767.47,770.94,757.78,765.36,76.66,-877.44,515.62,-1.20,0.08,-2.50,191.74
42465,765.72,767.46,770.84,757.67,765.42,64.94,-881.35,514.16,2.18,3.88,-0.05,189.40
42499,766.20,767.52,770.65,757.66,765.51,68.36,-879.88,509.77,0.69,1.79,1.90,182.80
42533,766.49,767.47,770.60,757.49,765.51,85.45,-868.16,506.35,-0.04,2.19,-1.50,183.43
42567,766.55,767.38,770.47,757.47,765.47,68.85,-855.47,520.02,0.59,-1.37,1.01,181.04
42601,766.55,767.36,770.31,757.42,765.41,77.15,-873.54,508.30,-2.54,0.46,-1.05,177.91
42635,766.51,767.28,770.17,757.40,765.34,72.75,-886.23,512.21,-1.27,-0.53,-0.95,175.37
42670,766.45,767.13,770.08,757.35,765.25,78.12,-881.35,507.32,0.02,0.96,-0.13,175.39
42704,766.38,767.14,770.01,757.34,765.22,73.24,-875.49,511.23,-3.22,2.15,0.61,173.70
42738,766.51,767.09,769.91,757.37,765.22,74.71,-890.14,506.35,-3.63,1.65,0.78,171.00
42772,766.72,766.75,769.65,757.24,765.09,75.68,-870.61,520.51,-1.13,-0.22,0.09,168.28
42806,767.03,766.37,769.45,757.13,764.99,62.50,-873.54,513.67,1.26,4.05,-2.08,166.90
42840,767.30,765.73,769.17,757.15,764.84,75.68,-877.44,506.84,-1.55,3.03,-2.19,164.08
42876,767.55,765.08,768.77,757.04,764.61,87.89,-867.68,498.05,-7.20,-1.21,-2.50,159.78
42910,767.57,764.40,768.20,756.88,764.26,81.54,-891.11,514.65,0.85,3.15,-1.13,153.46
42944,768.57,763.87,767.77,756.78,764.25,80.57,-890.62,478.03,-1.89,0.08,-0.11,145.16
42979,771.37,763.54,767.24,756.67,764.70,88.38,-855.47,537.11,4.37,-0.56,0.31,126.55
43013,772.82,763.30,766.47,756.49,764.77,83.98,-886.72,472.66,3.33,1.69,-0.50,107.08
43047,773.55,762.84,765.52,756.20,764.53,93.75,-872.56,510.25,6.21,-0.30,-3.63,88.83
43081,774.85,762.61,764.69,755.90,764.51,97.17,-860.35,504.39,3.86,0.80,-2.36,69.88
43115,775.49,762.39,764.18,755.85,764.48,69.34,-892.09,509.28,-2.53,1.09,-2.60,57.50
43149,776.70,762.23,763.64,755.64,764.55,96.68,-826.17,538.09,-6.72,-4.27,-1.70,44.22
43183,778.10,762.18,763.39,755.54,764.80,68.36,-846.68,540.04,-2.17,-1.45,1.01,34.97
43218,778.92,762.15,763.17,755.49,764.93,99.61,-883.79,519.04,-5.21,-1.01,-0.87,27.83
43252,780.52,762.27,762.85,755.30,765.24,96.19,-854.49,542.48,-0.48,2.30,0.29,16.29
43286,782.05,762.32,762.63,755.25,765.56,84.96,-867.19,531.74,2.14,0.84,0.84,5.87
43320,783.66,762.05,762.29,755.14,765.79,102.05,-857.42,537.11,6.87,-0.57,-1.98,-4.57
43354,784.78,762.10,762.14,754.91,765.98,86.43,-876.95,538.09,5.68,2.70,-0.39,-9.10
43388,785.24,761.86,761.97,754.98,766.01,93.26,-889.65,510.74,0.27,3.32,-4.58,-13.95
43422,785.89,761.86,761.68,754.93,766.09,104.49,-858.40,517.09,3.85,3.57,0.05,-22.78
43457,785.71,762.01,761.67,754.97,766.09,88.87,-881.84,512.21,-2.16,1.49,1.74,-24.09
43491,784.92,762.00,761.62,754.97,765.88,93.26,-854.00,534.18,7.47,4.37,1.72,-22.72
43525,784.21,761.87,761.56,754.97,765.65,85.45,-856.93,528.32,-2.15,0.66,3.40,-20.55
43559,784.38,761.97,761.56,754.94,765.71,93.75,-896.00,493.65,0.27,1.66,3.63,-21.66
43593,784.23,762.14,761.67,754.87,765.73,114.75,-894.53,488.77,-2.40,-0.91,0.11,-18.68
43627,784.23,762.33,761.61,754.88,765.76,97.17,-868.65,522.95,0.32,-0.11,-0.87,-21.75
43662,784.33,762.54,761.62,754.96,765.86,100.59,-892.09,496.58,0.70,0.49,3.55,-24.79
43695,784.53,762.87,761.72,755.00,766.03,84.47,-874.02,502.44,1.19,-0.12,4.20,-26.02
43729,784.81,763.25,761.85,755.05,766.24,86.43,-881.84,534.67,-0.94,0.73,2.33,-27.60
43762,785.28,763.46,761.93,755.04,766.43,92.77,-866.70,510.74,-1.52,-1.79,1.38,-28.71
43796,785.98,763.55,761.86,755.00,766.60,111.82,-836.91,546.39,1.73,3.09,0.44,-33.27
43831,786.50,763.37,761.80,754.90,766.64,81.05,-877.93,519.04,-9.03,0.82,1.42,-33.40
43865,787.43,763.09,761.67,754.91,766.78,86.43,-894.04,525.39,-7.05,0.52,-3.32,-37.82
43899,787.91,762.88,761.52,754.93,766.81,112.79,-882.32,499.51,-2.17,0.01,-2.57,-41.70
43933,787.84,762.56,761.36,754.97,766.68,112.79,-900.39,480.47,-9.27,1.28,-5.21,-43.47
43967,787.16,762.72,761.36,754.85,766.52,108.40,-939.94,483.89,14.47,3.37,1.04,-40.79
44000,786.68,762.64,761.30,754.92,766.38,91.80,-883.30,513.67,3.75,7.15,-0.45,-40.83
44034,786.22,762.55,761.27,754.92,766.24,72.27,-815.43,535.64,-5.02,2.65,-1.87,-39.47
44068,785.97,762.49,761.12,754.92,766.12,87.40,-863.28,521.97,-0.40,0.11,-0.13,-41.84
44102,785.56,762.42,761.17,754.89,766.01,112.79,-882.32,501.95,-0.07,1.04,0.36,-38.14
44136,785.26,762.40,761.10,754.91,765.92,106.45,-872.07,511.23,2.18,1.82,-1.41,-39.17
44170,784.99,762.31,761.09,754.88,765.82,108.89,-901.37,480.47,-1.24,1.85,0.69,-37.18
44204,784.83,762.52,761.09,754.94,765.85,91.31,-879.88,518.55,3.46,2.06,-0.02,-39.05
44239,784.73,762.53,761.12,754.95,765.83,89.84,-875.98,516.60,2.22,5.27,-0.68,-38.33
44273,784.77,762.41,761.06,754.95,765.80,76.66,-897.46,495.61,-7.06,-3.12,-3.11,-38.90
44307,784.83,762.44,761.02,754.94,765.81,103.52,-889.65,490.72,-3.43,-1.71,0.18,-40.26
44341,784.99,762.58,761.06,755.02,765.91,95.70,-892.09,490.72,2.34,2.55,1.21,-42.10
44375,785.29,762.67,761.00,754.95,765.98,73.73,-855.47,522.95,-6.83,0.08,-2.01,-44.39
44409,785.46,762.63,760.97,754.94,766.00,95.70,-899.41,489.26,-2.73,3.46,-2.43,-45.29
44443,785.53,762.59,760.90,754.96,765.99,104.98,-873.54,503.42,2.97,1.03,-1.08,-47.28
44478,785.72,762.58,760.91,754.92,766.03,96.19,-868.16,506.35,4.98,1.46,-1.98,-46.85
44512,785.91,762.44,760.93,754.93,766.05,89.36,-866.21,507.32,2.43,3.66,-0.98,-46.05
44546,786.17,762.45,760.91,754.96,766.12,90.82,-870.61,508.79,2.46,0.28,-0.78,-48.13
44580,786.45,762.38,760.84,754.91,766.14,102.05,-876.46,520.02,-0.42,3.31,-2.79,-49.59
44614,786.30,762.28,760.86,754.88,766.08,92.77,-862.30,526.37,-3.54,2.02,-0.82,-47.18
44648,786.19,762.25,760.83,754.95,766.05,94.24,-885.74,505.37,-1.72,1.31,1.20,-48.32
44682,785.99,762.30,760.88,754.90,766.02,108.40,-910.16,489.75,0.85,1.68,-1.21,-46.22
44717,785.84,762.33,760.79,754.93,765.97,96.19,-854.49,511.72,2.19,3.89,-1.74,-48.44
44751,785.41,762.30,760.82,754.92,765.86,106.93,-903.81,503.91,-0.55,0.55,2.34,-46.06
44787,785.10,762.35,760.86,754.92,765.81,97.17,-889.16,508.79,1.04,1.20,1.02,-44.22
44821,784.57,762.49,760.84,754.93,765.71,86.43,-866.21,497.07,-0.43,0.38,0.93,-44.23
44855,783.98,762.62,760.95,754.92,765.62,104.98,-884.77,512.21,8.21,1.64,2.19,-40.39
44889,784.03,762.47,760.96,754.97,765.61,81.54,-843.26,522.46,2.63,2.78,-1.50,-39.57
44923,783.46,762.46,760.90,754.95,765.44,98.14,-849.61,514.16,3.41,4.21,-0.52,-39.00
44957,782.61,762.38,761.04,754.95,765.24,100.59,-870.12,519.04,-2.11,1.79,2.72,-31.78
44991,782.36,762.33,761.09,754.94,765.18,65.92,-860.35,514.16,-0.40,1.63,-0.42,-29.27
45025,782.15,762.04,761.11,754.95,765.06,74.22,-851.07,540.53,5.82,2.85,2.60,-25.90
45059,781.68,761.80,760.89,754.94,764.83,119.14,-872.07,497.56,-5.44,2.89,-2.50,-27.74
45094,780.81,761.77,760.92,754.91,764.60,87.40,-824.71,531.74,-3.93,-0.08,3.58,-23.06
45128,780.70,761.91,761.21,754.96,764.69,80.08,-876.46,503.91,4.63,0.89,2.59,-17.31
45162,781.46,761.78,761.07,755.04,764.84,96.68,-900.39,477.05,-6.29,-1.34,-2.98,-23.63
45196,781.47,761.85,761.04,754.92,764.82,89.36,-882.32,521.48,-2.48,1.23,0.25,-23.17
45230,780.69,762.09,761.26,755.02,764.76,112.30,-904.79,504.39,-0.81,3.05,4.28,-18.44
45264,780.56,762.34,761.82,755.21,764.99,96.19,-887.70,504.88,-2.58,-1.15,5.70,-8.94
45298,780.41,762.31,761.85,755.29,764.96,103.52,-900.39,475.10,-4.44,-0.19,0.13,-8.50
45331,779.77,762.17,761.88,755.23,764.76,82.52,-899.90,492.68,-1.59,0.54,-0.14,-3.65
45365,779.26,762.34,762.20,755.38,764.79,106.45,-900.88,497.56,2.66,-1.63,0.79,2.48
45399,779.14,762.23,762.51,755.46,764.84,85.45,-894.53,507.81,2.69,4.76,2.09,10.48
45432,779.10,762.02,762.31,755.34,764.69,88.87,-878.91,512.21,-1.18,2.88,-0.27,9.10
45466,778.68,762.03,762.29,755.35,764.59,84.47,-861.82,504.39,4.02,1.41,1.76,9.80
45500,778.62,762.19,762.63,755.41,764.71,87.40,-900.88,498.54,6.22,1.73,2.45,16.14
45534,778.68,762.14,763.14,755.57,764.88,81.54,-871.09,508.30,3.89,2.72,3.05,26.87
45568,778.30,762.19,763.55,755.61,764.91,84.96,-876.95,503.91,0.72,-0.44,-0.62,37.24
45602,777.76,762.43,764.08,755.66,764.98,83.98,-842.77,517.09,0.19,1.29,1.85,49.63
45635,777.40,762.97,764.59,755.75,765.18,81.05,-873.05,502.93,-0.41,-0.19,1.82,57.93
45669,777.37,763.42,765.04,755.83,765.42,98.63,-875.49,492.19,0.78,4.24,6.95,64.37
45703,777.20,763.65,765.44,755.94,765.56,83.98,-874.02,492.19,-0.64,1.40,3.58,71.52
45739,777.09,763.79,765.68,755.93,765.62,78.12,-873.54,502.93,2.40,1.86,0.48,76.97
45773,777.32,763.89,765.77,755.97,765.74,89.36,-873.05,522.46,1.69,1.84,-2.44,77.02
45807,777.53,763.85,765.70,755.94,765.76,78.12,-888.67,510.74,1.60,2.47,1.39,75.25
45841,778.00,763.59,765.55,755.90,765.76,86.43,-876.46,501.46,-0.54,1.73,0.22,72.56
45875,778.82,763.15,765.41,755.86,765.81,83.50,-879.88,501.95,2.57,0.54,-1.01,70.48
45910,779.75,762.81,765.14,755.69,765.85,91.31,-886.72,511.23,3.90,5.24,-2.47,65.86
45944,781.11,762.28,764.75,755.54,765.92,84.96,-868.16,516.11,4.76,1.52,-1.92,57.92
45978,782.10,762.07,764.33,755.47,765.99,87.40,-858.89,534.67,0.34,0.30,-1.27,46.54
46012,782.38,762.05,764.00,755.33,765.94,90.33,-866.70,530.76,-3.67,0.05,0.72,39.77
46046,782.59,761.92,763.77,755.34,765.90,98.63,-865.72,502.44,-1.41,1.86,0.63,34.14
46080,782.92,761.95,763.74,755.32,765.98,96.19,-875.00,508.30,0.47,-1.34,-0.77,32.27
46114,782.94,761.94,763.59,755.34,765.95,89.84,-867.68,522.46,-1.61,1.48,0.56,28.32
46149,782.89,762.02,763.61,755.34,765.96,104.00,-858.40,510.74,0.47,2.95,1.40,28.46
46183,782.68,762.12,763.67,755.33,765.95,90.82,-883.79,516.11,1.37,-0.11,0.21,29.83
46217,782.48,762.14,763.78,755.39,765.95,91.31,-880.86,491.70,1.10,1.80,-1.03,32.26
46251,782.06,762.28,763.96,755.43,765.93,76.66,-890.14,510.74,0.20,2.18,1.26,36.65
46285,781.49,762.41,764.08,755.52,765.88,84.96,-888.18,493.65,-0.51,-0.53,1.58,39.01
46319,780.90,762.66,764.15,755.60,765.83,80.57,-869.14,523.44,1.31,0.77,0.60,39.76
46353,780.01,762.73,764.36,755.62,765.68,88.87,-884.77,514.16,-0.67,2.08,1.44,47.25
46388,779.34,762.93,764.49,755.69,765.61,92.77,-876.46,512.21,-0.44,2.69,0.92,49.98
46422,778.79,763.08,764.51,755.70,765.52,94.24,-872.56,512.70,-0.60,1.87,0.83,51.07
46456,778.13,763.46,764.84,755.79,765.56,85.45,-873.05,501.95,0.34,2.64,2.81,57.25
46490,777.20,763.77,765.19,755.96,765.53,75.20,-883.30,511.72,-1.77,1.79,2.02,63.95
46524,776.39,763.97,765.36,756.01,765.43,83.01,-886.72,509.28,-1.69,-1.34,1.24,68.66
46558,775.86,764.15,765.61,756.05,765.41,83.98,-873.54,523.44,-1.51,2.94,2.82,74.69
46592,775.36,764.29,765.78,756.13,765.39,87.40,-873.05,506.84,-0.21,1.44,-2.16,78.30
46627,774.79,764.31,765.83,756.08,765.25,81.54,-884.77,499.51,1.02,2.40,3.05,82.23
46661,774.48,764.33,765.86,756.10,765.19,85.94,-874.51,505.37,1.32,2.59,0.34,83.64
46696,774.75,764.32,765.81,756.13,765.25,75.68,-880.37,503.91,-1.08,-0.25,-2.87,81.02
46731,774.93,764.28,765.80,756.12,765.28,83.98,-875.49,520.02,1.53,-0.02,-0.97,80.62
46765,775.26,764.08,765.67,756.11,765.28,91.31,-875.49,517.09,-0.98,1.54,-2.21,78.11
46799,775.49,764.00,765.55,756.04,765.27,81.54,-879.88,500.00,-0.14,0.10,-2.31,75.81
46833,775.66,764.06,765.60,756.09,765.35,93.75,-882.81,509.28,0.18,-0.70,0.04,75.43
46867,775.52,764.15,765.65,756.14,765.36,85.45,-889.65,514.65,-1.39,0.63,0.60,75.60
46901,775.62,764.15,765.60,756.05,765.35,80.08,-877.93,508.30,-1.89,1.70,-2.27,75.17
46935,775.59,764.28,765.54,756.01,765.36,88.38,-896.00,508.79,-0.60,1.99,1.11,73.58
46969,775.43,764.39,765.63,756.00,765.36,83.01,-883.30,520.51,-1.12,1.41,2.47,75.64
47003,775.39,764.36,765.57,756.04,765.34,92.77,-866.70,513.67,2.37,1.84,1.55,73.91
47036,775.23,764.46,765.56,756.05,765.32,83.01,-880.37,517.58,0.08,2.28,0.46,73.27
47070,774.98,764.59,765.64,756.06,765.32,80.08,-882.81,503.42,-1.66,1.77,1.14,74.93
47103,774.74,764.51,765.64,756.05,765.23,89.36,-868.65,512.70,-1.62,3.08,0.77,76.51
47137,774.63,764.52,765.75,756.01,765.22,79.10,-884.77,507.32,0.98,0.45,-3.64,80.14
47171,774.65,764.31,765.63,756.06,765.16,78.12,-887.70,492.19,0.42,3.56,-0.77,78.09
47205,774.66,764.20,765.50,756.02,765.09,69.34,-868.16,512.70,-0.95,2.15,-4.60,76.13
47239,774.77,763.72,765.21,756.01,764.93,88.38,-877.44,513.67,2.40,3.69,0.59,72.45
47273,774.83,763.25,764.99,755.89,764.74,91.80,-868.65,508.30,-0.65,0.79,0.41,72.26
47306,774.75,762.74,764.68,755.78,764.49,79.10,-869.14,513.18,0.47,1.10,-2.08,70.74
47340,775.00,762.38,764.35,755.74,764.37,102.05,-880.86,527.83,5.80,4.04,-1.13,64.92
47374,775.34,762.24,764.09,755.63,764.33,101.56,-844.24,506.35,4.65,2.76,-2.16,60.21
47408,775.81,762.25,763.68,755.59,764.33,94.24,-872.56,528.32,3.44,1.96,-0.06,48.80
47442,776.25,762.40,763.40,755.49,764.39,86.43,-852.54,534.18,-1.87,0.60,-1.15,40.62
47477,776.86,762.29,763.05,755.42,764.41,84.47,-826.66,543.95,9.85,1.37,2.10,31.76
47511,778.15,762.47,763.02,755.36,764.75,59.08,-846.19,513.18,3.47,2.40,-2.63,25.98
47545,779.08,762.77,763.05,755.38,765.07,92.77,-897.46,497.07,-0.85,-1.07,-1.82,20.84
47579,780.07,762.84,762.95,755.43,765.32,99.61,-874.51,531.74,11.49,7.74,0.75,13.74
47613,780.43,762.77,762.70,755.34,765.31,74.22,-848.14,550.29,4.62,2.14,-0.59,8.13
47649,782.16,762.98,762.55,755.33,765.76,85.94,-884.28,494.63,-1.55,-2.27,-0.67,-2.99
47683,784.31,763.22,762.51,755.19,766.31,86.43,-906.25,477.54,-5.76,-1.88,-1.44,-11.41
47717,784.63,762.94,762.07,755.11,766.19,101.07,-867.19,494.14,-9.47,-2.79,-2.15,-19.97
47751,785.79,762.62,761.66,755.04,766.28,84.96,-855.47,528.32,0.08,1.49,-3.17,-30.54
47785,786.70,762.53,761.67,754.94,766.46,102.54,-855.96,532.71,2.79,0.56,-0.55,-31.31
47820,787.67,762.42,761.60,754.92,766.65,81.05,-856.93,533.69,4.66,2.20,-2.11,-35.29
47854,788.06,762.11,761.42,754.91,766.62,82.52,-824.71,533.20,-2.25,3.73,-5.57,-38.44
47888,788.22,762.04,761.22,754.98,766.61,89.84,-858.89,528.81,8.98,4.57,-0.50,-44.35
47922,788.36,761.96,761.11,754.95,766.59,89.36,-874.51,502.44,-6.00,1.03,-0.47,-46.56
47956,788.17,761.86,761.09,754.92,766.51,110.84,-879.88,527.83,8.13,4.83,-0.08,-45.03
47990,788.26,761.83,761.08,754.90,766.52,87.89,-839.84,541.50,4.89,2.74,3.69,-45.04
48024,787.43,761.65,760.94,754.87,766.22,102.54,-892.09,498.54,-9.40,-2.94,-0.20,-43.81
48059,787.46,761.80,760.85,754.94,766.26,94.24,-896.00,505.86,10.74,3.37,3.97,-48.37
48093,787.71,761.84,761.00,754.86,766.35,100.59,-886.23,499.51,-0.82,-1.09,-0.08,-44.70
48127,787.86,761.86,760.83,754.96,766.38,76.17,-821.78,559.08,-4.92,1.98,-2.05,-51.10
