currTime,s1,s2,s3,s4,s,AccX,AccY,AccZ,GyroX,GyroY,GyroZ,GRF
22,786.33,779.01,756.31,759.49,770.29,-49.32,-1015.14,138.67,12.43,-4.19,0.15,-362.69
55,786.82,779.40,756.34,759.60,770.54,-62.99,-1011.23,164.55,14.90,-0.92,-2.99,-368.50
88,787.31,780.06,756.26,759.64,770.82,-52.73,-1006.84,162.60,19.01,-3.40,-1.30,-377.90
120,787.82,780.79,756.34,759.71,771.16,-35.16,-989.75,185.55,19.81,-2.89,0.30,-384.70
153,788.18,781.47,756.33,759.91,771.47,-59.08,-1012.21,189.45,20.66,-2.79,-1.01,-394.41
185,788.40,782.20,756.42,760.05,771.77,-41.02,-993.16,211.91,22.83,-0.68,-3.16,-400.83
220,788.41,783.01,756.40,760.24,772.02,-36.62,-982.91,213.38,21.89,-5.47,-1.56,-410.80
253,788.34,783.85,756.50,760.48,772.29,-28.81,-957.52,266.11,19.89,-0.53,-2.26,-418.13
286,788.83,784.63,756.62,760.78,772.72,-29.30,-993.16,267.09,16.51,0.34,-1.54,-427.51
318,788.63,785.31,756.63,761.04,772.90,-31.25,-960.45,246.09,12.05,1.95,-1.19,-435.88
351,788.38,785.86,756.69,761.30,773.06,-19.53,-991.70,250.49,11.56,-2.59,1.31,-441.87
386,788.44,786.31,756.76,761.59,773.27,-31.74,-978.03,250.98,12.60,0.95,-1.48,-448.32
418,788.65,786.79,756.75,761.83,773.51,-21.00,-989.26,293.46,9.96,-1.56,0.89,-456.60
451,788.83,787.28,756.82,762.18,773.78,-40.53,-974.61,280.27,7.78,-4.02,-3.77,-464.54
483,788.98,787.85,756.88,762.33,774.01,-32.71,-987.79,271.48,4.45,-3.73,-1.01,-470.26
515,789.06,788.35,756.86,762.58,774.21,-40.04,-975.10,277.34,4.75,-0.69,-0.96,-478.63
548,789.02,788.67,756.99,762.81,774.37,-31.25,-987.30,282.71,5.27,0.36,-1.01,-481.24
583,789.12,788.84,757.03,762.96,774.49,-44.43,-986.33,282.23,5.45,2.18,-1.44,-484.27
615,789.29,788.87,757.06,763.14,774.59,-34.18,-979.49,291.99,8.46,-1.42,-0.46,-487.05
648,789.44,788.88,757.07,763.38,774.69,-25.88,-977.05,297.85,6.15,-2.64,-0.79,-490.79
680,789.46,788.83,757.18,763.46,774.73,-31.25,-972.17,288.57,6.76,-0.82,1.16,-488.93
713,789.43,788.86,757.17,763.65,774.78,-44.92,-962.40,297.85,5.82,-0.76,0.05,-492.10
745,789.29,788.88,757.28,763.76,774.80,-41.50,-969.24,304.20,3.31,-1.21,-1.61,-490.80
780,789.09,788.94,757.22,763.75,774.75,-41.99,-972.17,298.34,2.20,-1.57,2.17,-491.81
813,788.91,789.17,757.31,763.96,774.84,-48.83,-960.45,301.76,2.60,-2.56,-1.50,-493.93
845,788.85,789.35,757.27,764.04,774.88,-45.41,-972.17,315.43,-1.11,2.79,-0.42,-497.27
878,788.90,789.60,757.26,764.06,774.95,-33.69,-963.87,320.31,-0.61,-0.59,2.02,-500.09
910,789.00,789.98,757.32,764.19,775.12,-28.32,-965.82,311.52,-0.87,2.00,-2.07,-503.93
943,789.01,790.47,757.31,764.27,775.27,-26.37,-970.70,310.06,1.29,-0.15,-2.53,-509.27
978,788.92,791.20,757.26,764.40,775.44,-26.37,-955.08,311.52,0.44,-0.43,-3.89,-518.01
1010,788.98,791.82,757.36,764.45,775.65,-33.20,-976.07,304.20,-0.14,4.00,-1.86,-521.55
1043,789.03,792.46,757.30,764.50,775.82,-19.53,-980.96,300.29,-1.95,1.47,-2.86,-528.91
1076,789.08,792.96,757.38,764.52,775.99,-34.18,-967.29,302.73,0.50,1.34,0.35,-531.61
1108,789.08,793.25,757.36,764.58,776.07,-21.48,-975.59,301.27,1.29,-0.92,0.06,-535.09
1141,789.07,793.53,757.40,764.66,776.17,-34.67,-979.98,305.18,-1.76,2.19,-1.48,-537.62
1176,788.86,793.61,757.30,764.63,776.10,-39.06,-969.73,312.50,-1.82,2.88,0.71,-539.41
1209,789.02,793.76,757.36,764.62,776.19,-26.37,-965.33,311.04,0.06,2.60,0.33,-539.66
1241,789.07,793.67,757.35,764.60,776.17,-42.48,-967.29,297.36,-0.71,-1.04,-2.02,-538.87
1274,788.95,793.61,757.35,764.59,776.13,-41.50,-966.31,295.90,-0.82,-0.32,0.36,-538.12
1307,789.01,793.47,757.31,764.59,776.09,-28.81,-975.10,305.18,1.27,0.56,0.06,-537.96
1339,789.10,793.41,757.29,764.59,776.10,-25.39,-968.75,296.87,0.66,-1.78,-0.54,-538.38
1374,789.11,793.35,757.28,764.61,776.09,-47.36,-975.59,306.64,1.92,1.84,-0.98,-538.53
1407,789.17,793.26,757.35,764.62,776.10,-35.64,-968.75,316.89,-1.76,2.39,1.85,-536.42
1439,789.12,793.46,757.32,764.72,776.16,-44.43,-971.68,307.13,-0.05,-0.60,2.00,-540.04
1472,788.97,793.79,757.37,764.77,776.23,-34.67,-974.12,299.80,-1.69,2.42,-0.16,-541.66
1505,788.74,794.02,757.35,764.78,776.22,-31.74,-965.33,315.43,-0.51,-0.54,-1.99,-543.40
1538,788.47,794.32,757.39,764.88,776.27,-25.39,-967.77,298.34,0.39,0.13,-0.05,-545.36
1573,788.30,794.62,757.42,764.94,776.32,-32.71,-977.54,317.38,0.94,1.33,-2.43,-547.33
1606,788.18,794.76,757.42,765.01,776.34,-25.39,-975.10,310.55,1.95,1.80,0.48,-549.17
1639,787.97,794.78,757.43,764.98,776.29,-24.41,-970.70,311.52,2.17,1.44,-1.18,-547.82
1671,788.06,794.68,757.47,765.00,776.30,-26.86,-973.14,316.89,-0.17,-1.88,-2.32,-546.65
1704,787.94,794.62,757.37,765.01,776.24,-27.34,-963.87,313.96,-0.61,-2.31,-2.17,-548.41
1737,787.88,794.45,757.42,765.09,776.21,-22.95,-972.17,310.55,2.69,-3.37,-0.14,-546.53
1772,787.82,794.37,757.37,765.06,776.15,-26.37,-970.70,319.82,0.89,1.76,-2.26,-546.56
1805,787.85,794.17,757.40,764.96,776.10,-25.39,-966.31,306.64,1.99,1.00,-1.04,-542.72
1838,787.98,794.03,757.40,765.00,776.10,-25.39,-966.80,326.17,0.89,-2.79,0.74,-542.71
1870,788.26,793.66,757.39,765.01,776.08,-35.64,-974.12,308.59,0.68,0.34,0.68,-541.18
1903,788.57,793.43,757.38,764.86,776.06,-43.46,-976.56,308.59,-0.29,-1.95,0.84,-538.50
1936,788.71,793.27,757.39,764.85,776.06,-41.99,-972.66,294.92,-0.66,-2.31,-2.83,-537.38
1971,788.91,793.08,757.43,764.83,776.06,-20.02,-973.14,322.27,-0.44,1.90,0.09,-535.19
2003,789.16,792.98,757.42,764.86,776.10,-46.88,-961.91,304.69,0.95,-0.47,1.95,-535.94
2036,789.26,792.91,757.38,764.78,776.08,-39.06,-972.17,311.52,1.16,-1.72,1.16,-535.39
2069,789.46,792.73,757.35,764.74,776.07,-34.67,-963.87,310.06,1.37,-0.15,0.17,-534.91
2101,789.65,792.74,757.35,764.79,776.13,-39.55,-963.87,306.15,1.77,2.65,-0.60,-536.26
2137,789.77,792.60,757.37,764.75,776.12,-25.39,-967.29,313.96,0.21,1.04,-0.49,-534.61
2169,789.81,792.59,757.30,764.77,776.12,-35.16,-968.26,317.87,-2.21,-0.07,-1.46,-536.53
2201,789.96,792.55,757.45,764.71,776.17,-20.51,-968.26,312.99,-0.84,1.71,-0.81,-532.17
2234,789.99,792.59,757.31,764.75,776.16,-40.53,-979.98,322.27,0.81,-2.32,0.60,-536.84
2267,789.97,792.64,757.36,764.80,776.19,-30.76,-973.63,312.50,-2.02,2.36,-1.15,-536.63
2299,789.96,792.52,757.37,764.71,776.14,-26.37,-977.54,319.82,-1.18,-0.76,1.94,-533.92
2334,790.09,792.57,757.34,764.62,776.16,-41.50,-961.43,314.45,-2.91,-2.18,0.54,-534.30
2367,790.27,792.42,757.34,764.58,776.15,-29.30,-966.31,314.45,2.15,-0.44,0.21,-532.96
2400,790.51,792.33,757.29,764.52,776.16,-32.71,-974.12,312.50,-1.27,-1.05,1.72,-533.56
2433,790.68,792.00,757.36,764.49,776.13,-29.79,-978.03,314.45,1.08,-0.07,2.75,-529.14
2466,790.91,791.81,757.36,764.42,776.12,-28.81,-958.01,308.11,1.98,2.33,1.21,-527.57
2499,791.20,791.67,757.32,764.42,776.15,-33.20,-972.66,310.06,-0.58,1.24,-1.46,-528.24
2534,791.40,791.35,757.28,764.36,776.10,-28.81,-947.27,325.20,2.35,-0.46,-0.05,-526.59
2566,791.61,791.11,757.37,764.27,776.09,-33.69,-971.68,323.73,2.17,1.76,-1.08,-521.93
2599,791.83,790.89,757.41,764.39,776.13,-39.06,-955.57,325.20,1.57,0.82,0.11,-521.64
2632,791.90,790.76,757.35,764.28,776.08,-36.13,-961.91,317.38,0.93,-0.32,-0.24,-520.68
2665,791.95,790.57,757.33,764.37,776.06,-35.16,-967.77,323.24,2.55,0.39,0.70,-521.17
2697,792.00,790.29,757.42,764.31,776.00,-35.64,-965.82,328.61,1.99,-0.96,0.88,-515.81
2733,792.14,790.10,757.37,764.29,775.98,5.37,-957.52,292.97,2.87,-0.05,-0.83,-515.77
2765,792.37,789.77,757.39,764.36,775.97,299.32,-930.18,212.40,4.74,-2.25,4.32,-514.37
2798,792.75,789.46,757.41,764.22,775.96,-64.94,-973.14,375.49,1.25,2.89,2.19,-510.73
2831,792.82,789.28,757.40,764.25,775.94,-10.25,-966.31,330.57,-1.60,-2.00,-1.78,-510.24
2864,792.95,789.09,757.47,764.12,775.90,-28.32,-947.27,333.98,-0.93,-0.69,-1.30,-505.49
2897,793.45,788.72,757.36,764.03,775.89,-37.11,-968.26,312.01,-0.13,0.13,0.83,-505.71
2932,794.11,788.37,757.32,763.89,775.92,-33.69,-964.36,325.68,-0.11,-0.19,1.63,-503.94
2965,794.75,788.13,757.25,763.89,776.00,-36.13,-967.29,329.10,0.21,-0.15,0.42,-506.11
2997,795.24,787.91,757.31,763.83,776.07,-54.20,-984.86,323.24,-3.45,1.33,1.52,-503.49
3030,795.66,787.77,757.33,763.75,776.13,-40.53,-970.70,312.01,-0.82,-1.29,-2.00,-502.47
3063,796.06,787.71,757.21,763.74,776.18,-22.46,-969.73,323.24,-2.73,-0.14,-2.79,-506.12
3096,796.23,787.69,757.31,763.80,776.26,-37.11,-976.56,312.50,-0.12,0.31,-0.33,-504.72
3131,796.20,787.92,757.30,763.91,776.33,-36.13,-972.66,326.66,0.59,0.18,-2.02,-508.48
3164,796.05,788.09,757.30,763.96,776.35,-24.41,-962.89,337.89,0.25,0.93,-0.94,-510.11
3196,795.80,788.17,757.31,763.92,776.30,-34.18,-960.94,310.55,1.58,-0.13,0.06,-508.96
3229,795.74,788.22,757.33,763.99,776.32,-25.39,-961.91,329.59,-0.54,-1.58,-1.69,-509.75
3262,795.62,788.12,757.38,763.94,776.27,-42.97,-958.50,313.48,0.59,1.21,0.33,-506.44
3298,795.51,787.97,757.36,763.95,776.20,-38.57,-965.33,322.27,-0.68,-1.63,-0.95,-505.50
3331,795.80,787.66,757.35,763.88,776.17,-32.71,-965.33,316.89,1.92,-2.56,-1.55,-503.36
3363,796.26,787.51,757.34,763.97,776.27,-26.37,-976.56,311.52,2.26,1.55,1.74,-505.27
3396,796.84,787.24,757.35,763.99,776.35,-42.97,-966.80,303.22,2.59,2.73,-2.54,-505.15
3429,797.33,787.14,757.35,763.94,776.44,-40.04,-955.08,343.75,1.50,-3.85,0.69,-505.06
3462,797.07,786.96,757.37,763.89,776.32,-32.71,-966.31,312.99,-0.80,-3.98,2.50,-501.61
3497,797.75,786.56,757.40,763.86,776.39,-37.11,-973.14,315.43,3.37,0.76,-0.18,-499.67
3529,798.43,786.17,757.44,763.81,776.46,-35.64,-960.45,359.37,3.48,-2.47,0.47,-497.00
3562,798.53,785.77,757.44,763.75,776.38,-30.76,-962.89,328.61,2.49,-0.57,-1.29,-493.29
3594,798.59,785.52,757.41,763.77,776.32,-41.50,-966.80,337.89,6.33,-0.33,-2.14,-492.62
3627,798.40,785.30,757.62,763.81,776.28,-39.06,-957.03,329.59,4.07,-0.25,-0.23,-485.48
3659,797.80,785.03,757.70,763.83,776.09,-32.23,-963.38,347.17,4.95,-0.59,1.21,-479.61
3694,797.19,784.73,757.71,763.83,775.86,-26.86,-968.75,347.66,8.63,1.21,-0.80,-474.79
3727,796.43,784.38,757.86,763.79,775.61,-39.06,-945.31,344.73,9.90,1.56,2.61,-465.26
3759,795.74,784.15,757.99,763.90,775.45,-9.28,-941.89,334.47,8.80,-1.61,-3.11,-459.45
3792,794.90,784.10,758.05,764.08,775.28,-45.41,-949.22,368.16,7.10,1.39,-1.82,-457.34
3824,793.84,784.32,758.12,764.49,775.19,-32.23,-958.50,371.58,6.74,-0.49,-0.85,-459.55
3857,792.71,784.68,758.22,764.72,775.08,-25.88,-947.27,360.35,4.79,-0.33,-0.08,-459.57
3892,791.35,785.06,758.32,764.98,774.93,-38.57,-958.01,361.82,4.31,-0.56,-1.87,-459.13
3924,790.35,785.20,758.38,765.10,774.76,-42.97,-960.94,353.03,5.41,1.47,-0.15,-457.03
3957,789.43,785.06,758.58,765.34,774.60,-37.60,-948.24,376.46,6.84,1.43,-0.28,-451.31
3990,788.77,784.66,758.71,765.41,774.39,-40.04,-967.29,363.77,8.08,0.70,1.99,-443.75
4023,788.22,783.81,758.89,765.36,774.07,-49.80,-966.80,373.05,12.10,0.17,-0.34,-429.60
4056,787.83,782.85,759.01,765.52,773.80,-41.99,-944.82,395.51,11.71,-1.70,0.99,-420.22
4091,787.32,781.90,759.10,765.56,773.47,-34.67,-927.25,408.69,6.53,-2.07,2.13,-408.99
4124,786.72,781.24,759.08,765.58,773.15,-44.92,-919.92,400.88,7.34,-1.76,0.56,-402.68
4157,786.17,780.65,758.93,765.68,772.86,-40.53,-939.45,417.48,5.19,-2.47,3.48,-401.21
4190,785.75,780.17,758.92,765.68,772.63,-34.67,-927.25,406.74,3.31,-3.40,1.44,-396.20
4223,785.44,779.81,758.91,765.78,772.49,-45.90,-932.13,413.57,2.60,-1.78,-2.69,-393.84
4255,785.03,779.79,758.90,765.81,772.38,-25.88,-933.11,412.11,1.46,2.10,-0.92,-392.83
4290,784.79,779.67,758.84,765.90,772.30,-27.34,-917.97,422.85,3.24,1.30,-0.40,-394.09
4323,784.84,779.58,758.90,765.98,772.33,-42.48,-935.06,424.32,2.25,-0.06,-3.19,-393.31
4356,784.90,779.64,758.85,766.12,772.38,-44.92,-931.64,408.69,2.53,0.01,-1.38,-396.96
4389,784.80,779.52,758.95,766.31,772.39,-41.50,-929.20,416.02,3.12,1.15,0.07,-396.22
4421,784.55,779.60,758.92,766.40,772.37,-54.69,-915.04,458.01,3.98,-0.98,-1.94,-398.11
4454,784.47,779.52,758.89,766.65,772.38,-30.27,-922.36,406.74,4.02,-0.34,0.85,-401.67
4489,785.08,779.42,758.93,767.01,772.61,-42.97,-932.13,421.39,6.24,-2.13,0.24,-407.08
4522,786.05,779.27,758.88,767.41,772.90,-27.34,-934.08,417.97,7.19,-1.46,0.94,-416.50
4555,787.22,779.18,758.95,767.82,773.29,-47.85,-915.04,422.36,4.50,1.41,0.58,-423.86
4588,788.48,779.12,758.85,768.10,773.64,-39.55,-935.06,430.18,4.63,-0.71,1.35,-434.40
4620,789.64,779.17,758.87,768.42,774.03,-54.20,-934.08,427.73,4.79,0.19,0.85,-442.93
4653,790.33,779.24,758.87,768.69,774.28,-47.85,-917.97,445.80,3.05,-0.44,-1.54,-449.78
4688,790.90,779.46,758.82,768.87,774.51,-35.16,-921.39,432.13,0.69,-1.97,-0.60,-457.50
4721,791.19,779.54,758.89,768.95,774.64,-37.60,-927.25,454.10,-0.59,-0.29,-1.76,-458.49
4754,791.25,779.64,758.90,768.92,774.68,-41.02,-924.32,430.18,-1.77,3.49,0.75,-458.77
4787,790.97,779.80,758.83,768.85,774.61,-33.20,-912.60,448.73,0.07,0.62,2.59,-459.80
4819,790.62,779.71,758.84,768.84,774.50,-32.71,-910.16,443.36,-0.21,2.01,-0.82,-457.79
4855,790.58,779.82,758.85,768.88,774.53,-41.50,-920.90,423.34,0.51,0.15,-1.58,-458.60
4888,790.72,779.83,758.88,768.79,774.56,-46.39,-926.27,437.50,-0.19,-0.05,-2.47,-457.33
4920,790.98,779.74,758.88,768.74,774.58,-46.39,-923.34,433.11,4.15,-0.72,-0.82,-456.71
4953,791.47,779.74,758.89,768.77,774.72,-38.57,-916.99,445.31,-0.47,-0.64,-0.35,-458.43
4986,791.98,779.82,758.85,768.71,774.84,-40.04,-927.73,439.94,1.53,1.06,-1.71,-460.85
5019,792.72,779.74,758.88,768.62,774.99,-32.23,-922.85,444.82,0.45,-1.37,-2.04,-460.78
5055,793.49,779.70,758.78,768.54,775.13,-23.93,-922.36,441.41,-0.04,0.90,0.12,-464.58
5087,794.37,779.60,758.70,768.33,775.25,-36.62,-929.69,427.25,-0.48,-0.36,-1.94,-465.57
5120,795.53,779.37,758.71,768.03,775.41,-27.83,-922.36,440.92,0.31,-1.52,-1.58,-463.07
5153,796.81,778.95,758.66,767.60,775.50,-57.13,-912.60,437.99,-2.02,0.05,0.08,-458.96
5185,798.01,778.69,758.54,767.15,775.60,-23.44,-913.57,436.52,-2.32,2.03,1.37,-457.46
5218,799.10,778.52,758.42,766.89,775.73,-51.27,-934.57,429.20,-0.90,-0.92,0.28,-459.02
5253,799.80,778.20,758.42,766.63,775.76,-34.18,-918.95,431.64,-0.49,3.15,1.68,-455.01
5286,800.55,778.13,758.35,766.40,775.86,-35.64,-929.20,430.18,-2.25,-1.70,1.06,-455.32
5318,801.07,778.19,758.40,766.38,776.01,-43.46,-927.25,436.52,0.91,0.97,-1.14,-456.14
5351,801.70,778.27,758.39,766.13,776.12,-44.43,-931.64,449.22,-1.66,-0.74,-3.23,-455.34
5383,802.33,778.31,758.43,765.99,776.27,-36.62,-921.87,425.78,-5.90,1.52,-0.15,-454.92
5416,802.93,778.41,758.51,765.78,776.41,-22.46,-933.11,393.55,-6.47,-2.19,-2.05,-452.68
5451,803.61,778.41,758.54,765.67,776.56,-38.09,-943.85,411.62,-1.98,-1.08,-0.28,-452.66
5483,804.09,778.48,758.61,765.73,776.73,-37.11,-940.43,405.27,-3.89,-1.14,-1.93,-453.90
5516,804.44,778.64,758.73,765.72,776.88,-41.50,-923.83,443.36,0.61,3.16,-1.38,-453.36
5549,804.69,778.91,758.68,765.85,777.03,-21.97,-918.46,432.13,-0.69,-2.21,-0.11,-459.44
5582,805.18,779.44,758.83,766.02,777.36,-32.71,-920.90,438.48,-1.27,0.73,-0.13,-464.13
5615,805.97,780.13,758.95,766.49,777.89,-35.64,-924.80,419.43,-2.69,-0.92,0.17,-476.40
5650,807.50,781.58,759.15,767.02,778.81,-47.36,-912.60,428.22,-2.15,-1.69,-2.00,-496.10
5683,809.80,783.64,759.49,767.98,780.23,-22.46,-920.90,427.73,-1.24,2.63,-2.29,-526.02
5715,813.62,786.24,759.91,769.02,782.20,-36.13,-914.55,442.38,-0.08,-3.76,-2.34,-564.99
5748,818.12,788.83,760.47,770.16,784.40,-26.37,-943.36,413.57,1.15,-1.35,-3.50,-603.90
5781,822.85,790.89,761.08,771.22,786.51,-31.25,-923.83,424.80,4.23,-3.46,-3.03,-637.07
5816,826.46,792.84,761.62,772.42,788.34,-39.55,-927.25,437.99,2.08,-0.48,-0.85,-669.38
5849,827.00,794.74,761.98,773.39,789.28,-21.00,-901.86,464.36,-0.95,-0.70,-1.82,-691.67
5882,825.05,797.53,762.15,774.28,789.75,-33.20,-920.90,447.27,-12.24,-1.05,-2.54,-716.34
5915,820.88,801.39,762.23,775.27,789.94,-28.81,-917.97,419.92,-16.17,0.83,-6.22,-745.50
5948,815.21,805.14,762.30,775.81,789.61,-25.88,-934.08,416.99,-16.67,1.98,-6.42,-762.38
5981,810.32,807.56,762.42,776.00,789.07,-36.13,-939.45,393.07,-9.66,-0.44,-3.32,-764.83
6016,807.55,809.07,762.31,776.12,788.76,-30.27,-951.66,396.48,-6.08,3.27,-1.41,-772.01
6049,806.14,809.77,762.27,776.15,788.58,-17.58,-943.85,400.39,-5.15,0.31,-2.05,-774.16
6082,806.36,809.46,762.24,775.87,788.48,-33.20,-965.82,367.19,1.94,-0.96,-0.75,-769.10
6114,807.96,807.67,762.39,775.49,788.37,-21.97,-944.34,369.63,10.67,-0.80,-1.44,-750.84
6147,811.00,804.97,762.74,775.39,788.53,-40.04,-912.11,429.69,14.07,0.93,2.41,-729.52
6180,813.87,803.75,762.69,775.32,788.91,-10.25,-911.13,437.99,2.10,-2.71,1.97,-729.76
6215,815.05,803.78,762.47,775.13,789.10,-26.86,-940.92,397.46,-5.47,-2.12,-0.46,-736.65
6248,815.18,804.04,762.27,774.94,789.11,-30.27,-934.08,404.79,-2.40,-1.09,-2.32,-741.34
6281,815.43,804.45,761.96,774.93,789.19,-28.81,-950.68,406.25,-3.01,1.28,-1.76,-753.18
6313,815.50,805.07,761.83,775.10,789.37,-25.88,-935.55,407.71,-2.82,-1.24,0.76,-764.14
6346,814.30,806.02,761.75,775.47,789.39,-25.88,-937.01,405.27,-2.35,2.79,-0.93,-775.19
6379,811.62,807.66,762.04,776.00,789.33,-20.51,-958.01,399.90,-0.20,1.73,-3.19,-779.51
6414,808.07,809.17,762.52,777.09,789.22,-18.07,-950.68,388.18,2.82,4.59,-5.50,-783.72
6447,804.38,809.94,763.28,778.69,789.07,-23.44,-943.36,409.67,7.63,5.24,-1.96,-781.81
6480,800.06,810.81,764.22,780.59,788.92,-19.04,-933.59,410.64,5.33,-0.02,-2.40,-778.51
6513,795.14,811.42,765.35,783.32,788.80,-20.51,-944.82,409.18,10.22,-2.25,-0.44,-778.51
6545,789.89,812.68,766.36,785.96,788.72,-24.90,-926.76,428.22,4.98,-0.60,-1.31,-784.05
6578,783.97,813.76,767.38,788.36,788.37,-32.71,-939.94,418.95,3.74,-1.98,-1.22,-782.48
6613,777.87,815.15,768.23,790.44,787.92,-25.88,-925.78,431.15,-3.49,-0.88,-1.40,-782.13
6646,772.77,816.44,769.00,792.44,787.66,-20.02,-935.06,424.80,-7.37,0.05,-1.59,-785.06
6678,768.23,817.88,769.66,794.11,787.47,-14.65,-942.87,414.55,-9.24,-0.42,-5.89,-789.47
6711,764.51,819.09,770.06,795.60,787.31,-17.09,-944.34,414.55,-16.05,-7.74,-6.85,-798.29
6743,762.36,819.66,770.61,797.05,787.42,-16.11,-939.45,385.25,-19.79,-11.75,-5.73,-803.15
6779,760.83,819.51,770.95,798.51,787.45,-2.44,-977.05,392.09,-18.58,-12.44,-7.26,-809.60
6812,759.93,819.07,771.04,799.84,787.47,-43.46,-1000.98,348.14,-23.55,-8.50,-9.20,-820.35
6844,759.34,818.58,771.56,800.37,787.46,10.74,-962.89,384.77,-19.20,-9.98,-8.01,-809.32
6877,758.68,818.28,772.02,800.78,787.44,29.30,-967.29,377.93,-16.33,-10.57,-11.71,-799.21
6909,758.03,817.77,772.39,801.08,787.32,-6.35,-971.68,339.36,-19.20,-13.10,-13.92,-788.07
6942,757.65,815.55,772.83,802.04,787.02,6.35,-1045.41,295.90,-10.50,-7.65,-15.44,-772.04
6977,757.30,811.50,773.33,802.82,786.24,52.25,-987.30,345.70,-5.69,-14.27,-19.32,-737.34
7010,757.05,806.89,773.43,802.78,785.04,53.22,-999.02,360.84,-5.03,-17.46,-22.16,-696.47
7042,756.85,802.46,773.63,801.65,783.64,36.62,-975.10,371.58,-4.14,-15.68,-30.40,-638.68
7075,756.71,797.96,773.58,799.37,781.91,67.38,-997.56,337.89,-12.52,-15.37,-39.08,-569.85
7108,756.55,792.76,773.30,795.77,779.60,71.78,-1009.28,328.61,-12.43,-13.37,-45.79,-481.61
7141,756.42,787.22,772.69,790.70,776.76,123.05,-1004.88,312.50,-13.51,-12.00,-62.24,-377.13
7176,756.39,781.73,771.52,783.65,773.32,133.30,-1045.41,336.43,-25.28,-10.79,-78.37,-258.32
7209,756.27,777.91,769.71,776.26,770.03,206.05,-1072.27,309.57,-33.40,-11.05,-89.92,-163.69
7242,756.16,774.82,766.98,770.46,767.10,298.34,-1046.39,247.07,-64.09,-11.24,-110.56,-121.03
7274,756.17,771.90,763.79,766.01,764.47,352.54,-1351.56,225.10,-98.31,11.08,-126.63,-111.75
7307,755.99,768.42,760.56,762.49,761.87,375.49,-1181.15,41.02,-98.81,34.55,-144.85,-112.01
7342,755.96,765.17,758.03,759.86,759.75,517.58,-1451.17,154.30,-79.22,59.26,-134.97,-109.94
7375,755.87,763.33,756.40,758.51,758.52,456.54,-1115.23,155.76,-56.65,89.71,-111.90,-115.68
7408,755.87,762.42,756.14,758.32,758.19,315.92,-1704.59,304.20,-78.02,85.30,-58.08,-112.00
7441,755.80,762.10,756.08,758.36,758.08,275.39,-945.80,203.12,-15.79,81.02,31.33,-111.49
7474,755.72,761.75,755.96,758.24,757.91,262.21,-723.14,245.61,-17.11,93.29,9.81,-109.49
7506,755.81,761.59,755.99,758.17,757.89,151.86,-761.23,281.74,-16.01,107.50,-2.60,-106.70
7542,755.83,761.50,755.96,758.19,757.87,74.71,-618.16,311.04,-8.90,108.36,14.74,-107.00
7574,755.78,761.43,755.98,758.11,757.82,20.02,-620.12,341.80,-21.20,99.70,36.73,-104.79
7607,755.76,761.43,756.02,758.03,757.81,-15.63,-632.81,314.45,-5.23,74.31,58.24,-102.49
7640,755.73,761.34,755.95,758.07,757.77,1.95,-626.95,261.72,-13.42,60.18,77.47,-104.17
7673,755.74,761.28,755.96,758.03,757.76,6.84,-705.08,239.26,-14.29,48.27,92.17,-102.68
7706,755.74,761.30,756.03,758.04,757.78,14.65,-828.12,250.98,-21.79,39.63,106.18,-101.36
7741,755.77,761.27,755.95,758.02,757.75,58.59,-955.57,247.07,-18.91,31.04,121.52,-102.97
7774,755.74,761.23,755.98,758.06,757.75,108.89,-1028.32,275.39,-26.37,26.85,122.63,-102.11
7807,755.65,761.32,756.00,757.99,757.74,131.84,-1077.64,319.82,-28.99,17.67,108.77,-101.20
7839,755.67,761.22,755.91,758.03,757.71,180.18,-1088.38,376.95,-53.39,11.17,87.75,-103.13
7872,755.73,761.19,755.94,758.04,757.73,219.73,-1277.83,402.83,-58.89,-3.15,78.56,-102.53
7908,755.65,761.22,755.97,758.07,757.73,252.93,-1309.57,393.07,-23.93,-16.52,100.95,-102.33
7941,755.70,761.21,755.94,758.03,757.72,333.01,-1166.99,380.86,-6.91,-1.77,107.17,-102.54
7973,755.73,761.34,756.05,758.09,757.80,359.86,-1152.83,353.52,0.98,21.60,92.65,-101.77
8006,755.63,761.40,756.02,758.11,757.79,380.86,-1111.33,323.73,17.74,31.46,72.05,-103.11
8039,755.66,761.53,756.05,758.05,757.82,346.68,-1018.07,269.53,36.85,31.05,56.93,-102.60
8072,755.68,761.49,756.12,758.08,757.84,239.75,-915.53,212.89,43.42,33.62,39.15,-101.02
8107,755.71,761.46,756.16,758.12,757.86,127.93,-905.27,257.81,29.47,54.93,24.12,-100.46
8140,755.62,761.44,756.09,758.21,757.84,21.97,-946.29,316.41,52.79,63.89,14.52,-103.10
8172,755.66,761.53,756.06,758.19,757.86,9.77,-939.94,267.58,76.59,68.53,10.26,-104.19
8205,755.91,761.70,756.01,757.97,757.90,326.17,-819.82,51.27,70.51,39.71,-30.10,-104.43
8237,758.83,761.83,755.94,757.85,758.61,-1524.90,-686.04,638.18,64.75,10.98,-80.96,-115.71
8270,767.62,762.95,756.09,758.31,761.24,-441.41,-1027.83,123.05,8.21,-20.22,-131.22,-157.63
8306,788.79,765.43,756.27,759.74,767.56,362.30,-1425.29,550.78,151.92,-8.04,-146.59,-266.93
8356,815.41,768.45,756.73,762.89,775.87,-171.39,-1083.98,553.22,14.89,10.38,-8.32,-417.32
8392,819.87,769.19,756.85,764.32,777.56,-72.27,-879.39,450.68,12.73,2.60,-7.96,-456.67
8424,828.03,770.47,756.91,765.40,780.20,-39.06,-891.11,499.51,6.44,6.63,-7.50,-509.12
8457,838.65,772.24,757.03,766.14,783.52,-39.55,-897.46,486.33,-1.84,3.95,-7.24,-567.71
8492,849.52,773.93,757.01,766.94,786.85,-56.15,-918.95,463.38,3.38,-1.27,-2.91,-630.84
8525,857.47,775.38,757.02,767.67,789.38,-27.83,-916.02,477.05,2.37,-0.94,-2.35,-680.41
8558,862.95,776.43,757.08,768.02,791.12,-43.95,-923.83,487.30,0.26,2.00,-0.92,-711.29
8591,867.04,777.30,757.12,768.22,792.42,-43.46,-897.46,499.51,-2.24,3.85,-4.18,-734.34
8624,868.39,778.43,757.14,768.65,793.15,-40.53,-888.67,480.96,-2.20,0.40,-4.04,-753.62
8656,867.57,779.62,757.21,768.84,793.31,-29.30,-908.69,486.82,-7.36,2.91,-4.38,-761.53
8692,865.91,780.75,757.24,769.04,793.24,-40.04,-910.16,474.12,-3.82,3.47,-3.80,-766.92
8725,864.78,781.45,757.26,769.35,793.21,-46.39,-909.67,477.54,-3.37,3.11,-5.15,-772.87
8757,863.46,782.19,757.22,769.88,793.19,-56.64,-905.76,464.36,-1.18,7.11,-6.66,-783.06
8790,861.33,783.10,757.43,771.13,793.25,-42.97,-920.90,454.10,3.95,6.61,-7.14,-796.17
8823,857.97,784.28,757.65,773.33,793.31,-40.04,-909.18,465.33,8.88,4.89,-6.44,-821.14
8856,853.65,785.76,758.05,777.11,793.64,-35.16,-897.95,467.77,16.85,-1.91,-4.76,-863.72
8891,846.36,787.95,758.93,783.29,794.13,-45.41,-894.53,503.42,19.57,2.48,-3.27,-925.31
8924,837.16,790.56,759.92,790.20,794.46,-30.76,-875.00,505.37,19.08,-2.27,-2.74,-991.80
8956,823.80,793.36,761.49,798.40,794.26,-52.73,-906.25,493.65,18.47,-5.74,-2.80,-1050.14
8989,806.22,796.19,763.59,807.90,793.47,-32.23,-883.79,512.70,15.41,-10.08,-1.56,-1099.85
9022,788.43,798.33,766.04,817.03,792.46,-32.23,-936.52,488.77,-10.17,-3.05,-17.86,-1129.37
9054,773.66,798.48,768.38,823.89,791.10,-17.58,-950.68,534.67,-7.43,-10.98,-17.37,-1122.55
9089,763.20,796.82,770.29,827.65,789.49,30.27,-841.31,534.67,-22.50,-12.90,-14.64,-1080.96
9122,759.92,793.43,771.66,827.18,788.05,-55.18,-994.63,622.56,-30.02,-28.96,-24.88,-1001.38
9155,758.97,789.56,772.88,823.65,786.26,7.32,-883.30,533.69,-32.85,-35.79,-38.63,-884.82
9187,758.37,785.65,773.69,818.50,784.05,53.71,-978.03,514.65,-27.08,-29.14,-49.65,-755.48
9220,757.69,781.38,774.09,812.25,781.35,51.76,-1069.82,456.54,-15.02,-34.32,-59.28,-617.07
9256,757.33,776.15,773.33,801.71,777.13,11.72,-1115.23,506.35,-9.76,-29.74,-74.77,-437.41
9288,757.07,771.61,771.12,787.41,771.80,70.31,-1334.96,329.10,12.27,-40.15,-105.68,-244.72
9321,756.73,767.50,767.51,774.95,766.67,136.23,-1416.99,328.12,33.74,-41.95,-149.53,-117.22
9354,756.51,764.68,762.82,766.47,762.62,224.12,-1596.19,444.82,23.32,-26.93,-189.47,-85.85
9387,756.37,762.77,758.68,761.89,759.93,100.10,-1627.44,451.66,28.74,-18.50,-220.44,-105.84
9419,756.45,761.97,756.41,759.89,758.68,214.36,-1151.86,375.49,64.86,7.24,-200.20,-126.85
9455,756.59,761.82,756.22,759.63,758.56,-405.76,-985.35,431.15,8.10,27.42,-47.12,-127.07
9487,756.48,761.61,756.06,759.51,758.42,-449.22,-470.70,25.88,0.51,2.60,50.56,-127.22
9520,756.38,761.52,756.02,759.29,758.30,-342.29,-494.63,172.85,-57.35,-1.41,102.70,-123.85
9553,756.48,761.43,756.06,759.24,758.30,-243.65,-575.20,306.15,-49.96,14.08,141.01,-121.89
9585,756.34,761.31,756.08,759.21,758.24,-145.02,-642.09,423.34,-64.66,43.16,158.20,-119.35
9620,756.31,761.33,756.03,759.05,758.18,-115.23,-835.94,497.56,-72.76,62.05,165.05,-118.47
9652,756.21,761.31,756.00,759.01,758.13,15.63,-1104.98,549.80,-73.68,58.83,169.36,-118.16
9685,756.22,761.39,756.05,758.93,758.15,190.92,-1249.02,567.87,-63.63,51.50,174.56,-116.42
9717,756.12,761.50,756.08,758.94,758.16,266.11,-1258.79,559.08,-65.81,53.98,157.43,-116.24
9750,756.12,761.44,756.07,759.00,758.16,272.46,-1270.02,544.43,-69.23,59.41,123.51,-116.92
9782,756.10,761.29,756.16,758.78,758.08,270.02,-1183.11,512.21,-95.45,66.57,80.67,-110.03
9817,756.09,761.15,756.08,758.78,758.02,338.87,-1228.52,666.99,-106.47,80.11,33.14,-110.98
9849,756.17,761.00,756.12,758.66,757.99,520.02,-1179.20,729.00,-96.79,105.79,2.94,-107.33
9882,756.20,761.08,756.15,758.62,758.01,454.59,-1170.90,699.22,-74.95,142.92,40.94,-106.62
9914,756.18,761.12,756.21,758.63,758.04,529.79,-1026.86,749.51,-13.53,131.02,74.31,-105.63
9947,756.18,761.11,756.25,758.68,758.06,641.11,-817.87,694.34,40.75,104.98,67.37,-105.26
9979,756.14,761.15,756.25,758.63,758.04,614.26,-759.28,561.52,74.82,60.33,14.49,-104.84
10014,757.88,760.93,756.32,758.50,758.41,-2000.00,564.94,444.34,250.13,110.54,-124.18,-105.08
10046,762.88,761.85,756.14,758.35,759.80,-167.97,-777.83,391.11,87.07,65.27,-125.15,-132.02
10079,777.58,763.49,756.10,758.45,763.91,-459.47,-867.68,199.71,224.65,97.22,-89.07,-198.17
10112,817.65,767.66,756.33,761.34,775.74,1186.04,-826.17,1022.46,186.68,-85.47,-54.69,-405.96
10145,831.35,770.86,756.88,766.04,781.28,-186.52,-118.16,872.07,199.47,-200.12,65.97,-533.86
10180,832.63,775.88,757.47,770.90,784.22,-33.20,-952.15,661.13,5.80,-25.66,-8.65,-635.44
10212,831.57,780.09,758.32,776.61,786.65,-73.24,-965.33,392.09,14.52,-5.82,-3.41,-728.54
10245,833.68,782.45,759.12,781.30,789.14,-35.64,-862.79,501.46,24.47,2.27,-1.95,-803.79
10278,834.87,784.64,759.70,784.78,791.00,-70.80,-880.37,521.00,8.22,0.37,-2.27,-862.24
10310,831.61,786.97,760.28,788.24,791.77,-43.95,-932.62,417.48,3.83,1.50,-2.07,-906.02
10343,827.50,788.53,760.83,791.37,792.06,-38.57,-912.11,467.29,10.92,6.89,-2.79,-936.90
10378,820.08,789.91,761.46,794.14,791.40,-41.50,-894.04,501.95,9.30,1.26,-5.43,-947.57
10411,811.49,791.38,762.08,796.70,790.41,-31.25,-903.81,485.84,6.92,2.66,-3.58,-952.02
10443,803.67,793.40,762.62,799.56,789.81,-38.57,-900.39,465.33,7.47,6.81,-6.36,-969.98
10476,797.17,795.31,763.46,802.28,789.56,-46.39,-884.77,486.82,8.89,1.77,-7.18,-982.18
10509,793.06,797.01,764.06,804.49,789.65,-27.83,-898.44,484.86,5.79,1.64,-5.50,-999.41
10541,790.51,798.55,764.49,806.85,790.10,-33.20,-898.44,507.32,8.01,4.11,-5.53,-1027.02
10576,787.74,800.26,764.72,808.88,790.40,-30.76,-886.72,503.42,6.53,7.21,-5.63,-1055.36
10609,786.03,801.38,764.90,810.24,790.64,-34.18,-874.02,518.55,6.36,6.37,-3.02,-1073.98
10642,784.72,802.24,765.10,811.32,790.84,-38.57,-911.62,509.28,1.32,2.37,-1.82,-1087.41
10674,782.32,802.77,765.40,812.71,790.80,-36.13,-884.28,529.30,-3.14,1.21,-3.79,-1096.15
10707,779.10,803.31,765.89,814.39,790.67,-37.11,-895.51,497.07,-3.72,2.47,-2.58,-1102.14
10742,774.71,803.35,766.54,815.94,790.14,-30.27,-894.04,514.16,-9.95,1.88,-4.52,-1094.19
10774,770.45,803.39,767.18,817.75,789.69,-41.99,-893.55,502.44,-8.53,1.15,-6.35,-1090.42
10807,766.80,803.37,768.12,819.86,789.54,-21.97,-903.32,505.86,-7.90,-1.99,-8.42,-1085.41
10840,763.70,803.26,768.98,821.73,789.42,-22.46,-910.64,444.82,-18.69,0.24,-6.66,-1079.95
10872,761.12,802.98,769.89,823.03,789.26,-0.98,-898.93,507.32,-17.76,-2.58,-10.47,-1065.26
10905,759.59,802.32,770.77,823.52,789.05,-29.30,-938.96,501.46,-22.26,-11.03,-12.35,-1039.94
10940,758.63,800.81,771.68,822.54,788.41,-19.53,-958.98,493.65,-29.18,-9.37,-19.22,-987.45
10973,758.08,798.39,772.18,820.29,787.23,-27.34,-978.03,478.03,-21.95,-17.89,-26.94,-920.57
11006,757.71,794.28,772.61,816.20,785.20,-5.86,-984.37,443.36,-22.37,-22.72,-34.19,-815.55
11039,757.52,789.48,772.34,809.90,782.31,40.04,-968.75,453.12,-25.34,-17.86,-48.47,-690.21
11071,757.28,783.96,771.61,801.87,778.68,19.04,-1035.64,456.05,-27.17,-29.01,-60.35,-545.19
11104,756.98,778.32,770.20,791.64,774.28,72.27,-1058.11,418.46,-32.27,-22.66,-81.16,-383.61
11139,756.76,774.58,767.94,781.54,770.20,157.23,-1089.36,320.31,-37.29,-15.23,-102.51,-260.38
11172,756.55,771.72,765.72,774.30,767.07,268.07,-1042.48,268.55,-45.60,-9.96,-121.00,-185.62
11204,756.39,769.29,763.40,769.88,764.74,359.37,-1061.52,228.52,-50.22,20.60,-130.81,-158.27
11237,756.23,766.98,761.26,766.33,762.70,435.55,-941.41,74.22,-78.75,52.08,-140.66,-140.22
11270,756.14,765.16,759.55,763.62,761.12,419.43,-1234.86,8.30,-98.78,81.49,-135.21,-128.18
11305,756.10,763.49,758.04,761.43,759.76,419.43,-827.15,-25.39,-53.21,99.98,-130.54,-119.93
11338,756.14,762.57,756.86,760.15,758.93,385.25,-1026.86,84.96,-56.18,143.56,-119.10,-123.28
11371,756.22,762.31,756.17,759.40,758.52,97.17,-816.41,164.06,-31.34,168.84,-89.84,-127.50
11403,756.12,761.99,756.07,759.21,758.35,-195.80,-896.00,264.65,-31.11,193.18,-26.70,-124.43
11435,756.07,761.76,756.05,759.04,758.23,-332.03,-672.36,291.99,-5.53,169.87,50.69,-120.24
11468,756.04,761.54,755.95,759.01,758.14,-333.50,-624.02,382.81,-36.71,118.69,84.80,-120.68
11503,756.04,761.59,755.98,758.87,758.12,-294.43,-705.08,547.36,-54.68,69.69,107.75,-118.14
11536,756.08,761.50,755.97,758.87,758.11,-204.10,-821.29,646.97,-71.81,54.02,123.15,-117.73
11569,756.03,761.58,755.96,758.88,758.11,-146.00,-961.91,729.00,-57.97,49.59,131.36,-118.62
11601,755.94,761.48,756.03,758.77,758.06,-62.99,-1043.95,708.01,-38.31,42.17,136.75,-114.30
11634,755.95,761.50,755.98,758.79,758.05,17.09,-1106.93,608.40,-30.80,27.22,131.11,-116.04
11669,755.98,761.47,755.95,758.72,758.03,225.59,-1104.98,483.40,-33.73,11.29,118.27,-115.35
11702,755.88,761.50,755.90,758.70,758.00,384.77,-1118.65,514.16,-51.23,10.44,95.76,-116.32
11735,755.90,761.49,755.93,758.61,757.98,517.09,-1027.34,531.74,-43.79,2.10,53.04,-114.43
11768,755.88,761.44,755.86,758.70,757.97,559.08,-980.47,411.13,-46.05,2.25,12.92,-116.92
11800,755.90,761.46,755.86,758.67,757.97,575.20,-995.61,371.09,-24.53,7.31,-5.53,-116.51
11833,755.87,761.52,755.90,759.01,758.08,532.71,-828.61,414.06,-11.82,10.99,-33.44,-121.02
11869,756.67,763.51,755.95,760.32,759.11,-299.80,-1016.11,-626.95,66.95,10.77,-51.52,-157.83
11902,762.54,767.05,756.50,762.49,762.15,71.29,-719.24,591.31,139.11,12.25,-14.61,-224.70
11935,777.83,770.91,756.99,765.52,767.81,164.55,-650.88,617.19,113.94,-4.37,-17.11,-340.44
11967,788.18,773.81,757.19,767.44,771.66,-12.21,-800.29,618.16,35.97,-2.68,-6.60,-422.23
12000,794.43,776.87,757.64,769.19,774.53,-26.37,-909.67,463.87,11.03,-0.84,-6.39,-482.93
12036,799.29,779.54,758.13,771.78,777.19,-41.50,-906.74,462.89,16.28,-3.59,-4.10,-547.06
12069,802.38,781.72,758.77,774.52,779.35,-43.95,-888.18,474.12,14.89,-2.43,-3.98,-599.38
12102,804.37,783.92,759.23,776.71,781.06,-46.39,-887.70,528.81,11.69,-2.05,0.12,-644.65
12135,804.87,785.48,759.61,778.75,782.18,-47.36,-897.46,503.42,7.87,-2.14,-2.37,-679.38
12167,804.56,786.68,759.97,780.41,782.91,-24.41,-878.91,510.25,5.14,-0.63,-1.11,-703.35
12200,804.40,787.72,760.23,781.66,783.50,-21.00,-875.00,503.91,1.92,-0.47,0.36,-722.99
12236,803.85,788.67,760.64,783.14,784.07,-43.95,-884.28,521.48,3.58,-0.37,-0.17,-740.30
12268,803.43,789.38,761.16,784.51,784.62,-41.02,-880.37,517.09,5.34,-0.84,-0.76,-752.02
12301,803.47,789.82,761.58,785.48,785.09,-37.11,-885.74,525.88,1.21,1.21,-1.76,-759.39
12334,803.84,790.05,761.81,786.12,785.45,-51.27,-875.00,528.81,2.20,-0.43,-0.16,-766.30
12367,804.24,790.08,762.01,786.69,785.76,-24.90,-866.21,518.07,-0.27,-0.42,-0.89,-771.25
12400,804.69,790.22,762.27,787.65,786.21,-42.97,-887.70,512.70,0.77,-0.16,0.24,-781.67
12435,804.46,790.39,762.64,789.22,786.68,-38.57,-886.72,516.60,0.65,-0.92,-0.16,-796.17
12468,803.63,790.78,763.01,790.66,787.02,-42.48,-882.81,534.67,0.23,0.11,0.30,-808.33
12501,802.33,791.38,763.38,791.88,787.25,-43.95,-876.46,533.20,0.82,-0.40,-2.22,-817.33
12534,800.83,791.81,763.57,792.78,787.25,-22.95,-862.30,517.58,0.49,-2.08,-2.27,-824.18
12567,800.20,792.12,763.63,793.30,787.31,-30.27,-876.95,518.07,1.74,2.01,-0.93,-830.73
12600,800.31,792.18,763.55,793.64,787.42,-34.18,-875.98,533.69,3.02,-0.30,1.46,-838.52
12635,800.48,792.16,763.59,793.88,787.53,-42.97,-871.09,529.79,1.00,-1.13,1.01,-841.48
12667,800.46,792.13,763.59,794.03,787.55,-34.18,-886.23,543.95,1.55,-0.93,-1.52,-843.37
12700,800.30,792.14,763.51,794.35,787.58,-33.20,-869.14,531.25,1.27,0.41,0.50,-849.74
12732,799.74,792.26,763.53,794.62,787.54,-51.76,-872.56,535.64,2.77,0.63,-0.67,-852.17
12765,799.15,792.25,763.51,794.93,787.46,-23.44,-874.51,532.23,2.93,0.34,-0.82,-854.94
12801,798.46,792.32,763.56,795.28,787.40,-44.43,-878.91,543.46,4.65,2.75,-2.85,-857.17
12834,798.09,792.35,763.55,795.71,787.43,-42.97,-868.65,532.71,3.74,-1.14,-0.55,-862.81
12866,797.56,792.33,763.56,796.07,787.38,-34.18,-875.49,547.36,2.50,-0.21,-0.02,-865.91
12899,796.80,792.44,763.55,796.43,787.31,-33.69,-861.82,553.71,3.25,-2.42,1.18,-869.65
12931,796.19,792.69,763.60,796.69,787.29,-28.32,-873.05,538.57,1.55,-1.41,-2.32,-872.11
12964,795.09,792.97,763.80,797.09,787.24,-41.99,-878.91,543.95,-0.60,0.39,-3.08,-871.62
12999,792.72,793.29,763.80,797.14,786.74,-24.41,-862.30,533.20,-3.05,4.37,-4.13,-866.74
13032,788.99,792.81,763.82,796.96,785.64,-37.60,-891.11,541.50,-5.17,0.79,-1.47,-846.87
13065,784.13,791.54,763.46,795.71,783.71,-54.20,-895.02,554.20,-15.46,1.17,-0.56,-810.71
13098,779.28,789.26,763.17,793.83,781.38,-49.32,-893.07,539.55,-18.43,9.61,-6.73,-755.16
13131,774.38,786.17,762.66,791.77,778.74,-22.95,-872.07,534.18,-23.66,5.15,-10.73,-696.12
13163,770.00,782.95,762.11,789.12,776.04,-15.63,-868.16,503.42,-21.37,8.71,-9.60,-629.93
13199,766.69,779.84,761.48,786.26,773.57,-30.27,-882.81,481.45,-17.51,4.15,-7.59,-567.04
13231,764.32,777.21,760.76,782.55,771.21,-12.70,-883.79,518.55,-13.11,6.49,-5.65,-501.36
13264,762.57,774.40,759.84,778.35,768.79,-5.86,-850.10,501.46,-16.08,5.64,-3.50,-433.91
13297,761.02,772.54,759.29,776.34,767.30,-41.50,-960.45,462.40,-15.70,4.08,-7.27,-397.72
13330,759.30,770.96,759.09,774.12,765.87,75.68,-948.73,403.81,-20.21,-3.50,-12.63,-351.43
13363,758.11,769.18,758.58,770.79,764.16,36.62,-1199.22,428.22,-20.77,34.40,-35.46,-296.86
13398,757.70,767.06,758.00,766.99,762.44,33.20,-1008.79,324.71,-27.81,43.19,-59.40,-236.73
13431,757.45,765.40,757.59,764.46,761.22,46.39,-1064.94,347.17,-32.88,62.49,-72.07,-195.74
13464,757.21,764.39,757.36,762.77,760.43,-36.13,-950.68,365.23,-7.88,63.96,-76.55,-167.54
13496,757.09,763.60,757.22,761.81,759.93,20.51,-924.32,309.08,-12.97,51.05,-68.62,-150.24
13529,756.97,763.01,757.14,761.25,759.59,173.34,-887.70,440.43,-3.34,52.56,-65.18,-138.88
13565,756.91,762.47,757.08,760.95,759.35,121.58,-915.53,465.82,-8.70,64.42,-49.52,-131.24
13597,756.75,762.27,757.07,760.94,759.26,101.07,-856.93,548.83,3.08,58.75,-36.69,-129.45
13631,756.75,762.21,757.11,761.10,759.29,121.58,-809.08,481.93,3.67,56.70,-23.27,-130.12
13663,756.62,762.27,757.24,761.26,759.35,105.47,-864.26,506.84,4.06,47.31,-13.37,-129.28
13696,756.65,762.34,757.31,761.50,759.45,94.73,-877.93,530.76,18.05,35.37,0.31,-131.90
13729,756.60,762.47,757.37,761.89,759.58,44.43,-888.18,541.99,16.48,23.44,5.11,-136.96
13764,756.64,762.57,757.59,762.28,759.77,55.66,-904.79,545.41,8.77,10.72,3.18,-138.04
13797,756.63,762.55,757.67,762.22,759.77,39.55,-969.24,515.62,9.02,3.61,0.12,-134.97
13830,756.51,762.55,757.66,762.02,759.68,79.59,-965.33,498.05,10.58,-2.29,-9.60,-131.94
13863,756.58,762.32,757.76,761.74,759.60,83.01,-958.01,470.21,11.66,-4.89,-17.05,-123.62
13895,756.47,762.16,757.69,761.58,759.48,113.28,-916.02,472.66,9.80,-3.08,-23.02,-121.38
13928,756.51,762.11,757.52,761.18,759.33,143.55,-887.70,468.75,5.38,-1.08,-24.56,-119.43
13968,756.47,761.82,757.30,760.76,759.09,157.71,-872.07,475.59,2.24,-0.05,-23.48,-116.46
14001,756.43,761.71,757.04,760.38,758.89,174.32,-932.62,465.82,3.37,3.30,-25.24,-116.21
14033,756.49,761.52,756.65,759.80,758.61,197.27,-1000.00,494.63,11.13,10.48,-10.33,-116.15
14066,756.54,761.43,756.27,759.32,758.39,170.90,-962.89,469.24,33.11,5.90,-11.82,-117.98
14099,756.47,761.32,756.06,758.97,758.21,144.53,-812.99,475.10,34.37,6.70,-14.63,-116.92
14138,756.57,761.10,756.04,758.76,758.12,64.94,-847.66,299.32,-23.74,-44.55,-2.24,-112.86
14171,756.56,761.11,756.11,758.89,758.17,181.15,-853.03,391.11,-33.91,-76.71,7.71,-112.94
14205,756.45,761.03,756.17,759.00,758.16,424.32,-770.51,678.22,-15.68,-33.33,-16.89,-112.12
14238,756.45,761.01,756.25,759.09,758.20,218.26,-508.79,302.73,-22.34,64.62,-54.28,-111.26
14271,756.41,761.05,756.40,759.16,758.26,245.12,-1105.47,641.60,-5.08,41.62,-36.01,-108.84
14304,756.39,761.14,756.84,759.46,758.46,208.01,-796.39,534.67,1.82,17.88,-37.73,-103.07
14340,756.33,761.21,757.28,759.82,758.66,237.79,-890.62,567.38,4.01,16.65,-26.22,-97.55
14373,756.33,761.28,758.01,759.97,758.90,225.59,-880.86,584.47,20.00,3.80,-23.60,-82.25
14406,756.34,761.32,758.46,760.15,759.07,225.59,-892.58,588.38,23.85,-4.11,-16.74,-74.07
14439,756.28,761.32,758.71,760.31,759.15,278.81,-885.25,528.81,25.75,-8.70,-17.80,-69.90
14473,756.28,761.31,758.69,760.09,759.09,284.67,-939.45,523.44,22.18,-7.21,-24.21,-67.12
14506,756.28,761.17,758.24,759.87,758.89,310.55,-916.99,516.11,28.60,-10.93,-32.78,-74.02
14542,756.25,761.01,757.59,759.42,758.57,331.05,-941.89,495.61,37.16,-12.80,-32.08,-82.20
14575,756.35,760.92,757.14,759.11,758.38,394.53,-767.09,474.61,42.80,-5.46,-35.60,-88.53
14608,756.39,760.83,756.64,758.85,758.18,421.39,-828.61,516.60,29.74,8.24,-34.15,-96.41
14642,756.59,760.75,756.28,758.65,758.07,256.84,-614.75,491.70,34.49,17.96,-20.62,-102.57
14675,756.61,760.68,756.20,758.52,758.01,-22.95,-590.82,204.10,-38.85,-23.78,20.34,-102.13
14711,756.59,760.68,756.18,758.58,758.01,80.57,-814.45,414.55,-49.44,-51.96,90.60,-103.57
14745,756.52,760.60,756.08,758.52,757.93,126.95,-812.50,444.82,-71.35,-53.24,107.53,-104.01
14778,756.50,760.60,756.00,758.54,757.91,148.44,-822.27,512.21,-68.20,-29.48,99.63,-106.33
14811,756.44,760.77,756.01,758.53,757.94,176.27,-872.56,563.96,-60.09,13.73,76.48,-107.17
14845,756.42,760.70,755.98,758.55,757.91,88.87,-941.41,552.73,-33.21,45.37,64.26,-107.41
14878,756.38,760.72,756.03,758.55,757.92,-28.32,-868.65,472.17,-24.15,62.67,59.28,-106.42
14914,756.37,760.70,755.97,758.46,757.88,-157.71,-940.43,466.31,-18.70,48.00,63.43,-106.49
14947,756.32,760.76,755.94,758.50,757.88,-151.37,-903.32,478.03,-21.82,16.71,75.93,-107.95
14980,756.37,760.73,756.06,758.49,757.91,-109.37,-990.72,500.98,-28.54,-7.97,68.60,-104.73
15014,756.32,760.63,756.04,758.55,757.88,-60.55,-1021.48,526.86,-18.11,-22.17,71.86,-105.19
15047,756.40,760.68,756.05,758.51,757.91,-8.30,-1027.83,490.23,-10.46,-15.37,71.58,-105.01
15083,756.34,760.70,755.96,758.53,757.88,31.25,-1041.02,482.42,-8.69,-13.99,61.19,-107.47
15116,756.36,760.63,756.03,758.53,757.89,77.15,-1001.46,451.66,-3.49,-8.86,51.85,-105.17
15150,756.34,760.60,756.00,758.48,757.85,123.54,-1002.44,415.04,-7.46,-10.71,42.21,-104.86
15183,756.35,760.63,755.96,758.54,757.87,168.95,-1027.34,421.39,-0.97,-7.81,35.54,-107.00
15217,756.38,760.63,755.94,758.56,757.88,177.73,-934.08,377.93,9.73,-9.46,26.15,-107.97
15250,756.33,760.56,755.90,758.57,757.84,166.02,-895.02,330.08,4.25,-3.89,16.33,-108.42
15286,756.31,760.57,756.10,758.52,757.87,137.21,-885.74,331.05,4.03,-2.15,-2.83,-102.80
15319,756.30,760.57,756.06,758.54,757.87,18.07,-892.09,297.85,-1.38,-1.46,-12.60,-103.98
15353,756.39,760.60,755.98,758.59,757.89,-86.43,-879.39,314.94,-4.07,-7.62,-22.48,-107.22
15387,756.34,760.63,756.01,758.59,757.89,-153.32,-923.34,347.66,-5.91,-14.71,-27.82,-106.68
15420,756.33,760.61,756.00,758.55,757.87,-163.09,-951.66,375.00,1.19,-16.27,-20.93,-106.15
15454,756.31,760.59,755.94,758.59,757.86,-142.09,-953.12,344.24,5.79,-15.59,-8.35,-107.75
15489,756.35,760.68,756.00,758.60,757.91,-158.69,-914.55,361.33,-4.00,-7.87,7.53,-107.37
15523,756.25,760.65,756.02,758.52,757.86,-230.47,-1001.95,421.39,-3.03,-6.49,20.87,-105.09
15556,756.30,760.73,755.96,758.57,757.89,-287.11,-932.13,407.23,13.95,-27.49,25.37,-108.09
15590,756.31,760.81,756.07,758.57,757.94,-283.69,-902.83,408.20,8.87,-45.44,38.08,-106.23
15623,756.30,760.83,756.03,758.56,757.93,-240.23,-903.81,385.25,0.90,-51.21,50.77,-107.03
15659,756.31,760.91,755.98,758.63,757.96,-149.90,-891.11,360.35,-2.73,-55.01,50.82,-109.86
15692,756.31,760.95,756.02,758.66,757.99,-42.48,-854.49,318.36,-8.84,-54.05,42.32,-109.86
15725,756.38,761.09,756.03,758.64,758.04,7.81,-856.93,259.28,-15.08,-48.13,25.43,-110.70
15759,756.35,761.25,756.06,758.53,758.05,-24.90,-930.18,250.00,-3.72,-41.31,24.15,-109.55
15792,759.17,761.74,756.23,758.94,759.02,54.20,-1289.55,528.81,-93.39,-84.79,-89.33,-124.77
15825,781.95,765.58,756.63,761.24,766.35,670.41,-429.69,742.68,199.57,-40.76,-130.06,-257.75
15861,798.58,766.06,757.09,762.79,771.13,-40.53,-757.32,491.70,58.78,2.38,-11.19,-330.14
15895,796.10,768.25,758.07,766.87,772.32,-5.37,-796.39,490.23,47.82,6.82,-20.08,-374.70
15928,809.11,773.39,759.40,770.52,778.11,-22.95,-826.66,554.69,27.34,8.63,-15.74,-481.25
15961,825.00,780.29,760.33,773.00,784.65,-61.04,-928.71,500.49,-0.58,6.82,-17.15,-604.16
15994,829.01,784.78,760.95,774.55,787.32,-37.11,-918.95,499.51,-2.84,3.49,-6.76,-661.52
16027,828.76,787.04,761.48,776.11,788.35,-35.16,-881.35,500.98,-2.44,7.11,-6.76,-688.55
16063,827.11,790.31,762.01,777.68,789.28,-26.37,-865.23,545.90,-6.76,8.64,-7.66,-719.01
16096,824.59,793.84,762.14,778.33,789.73,-30.27,-889.16,502.93,-11.30,10.40,-6.53,-744.93
16130,821.21,796.20,762.11,778.50,789.50,-34.18,-896.00,493.65,-8.57,9.10,-6.95,-755.54
16164,816.59,797.59,762.16,778.53,788.72,-27.83,-880.37,511.72,-9.75,0.79,-3.27,-749.88
16197,812.50,799.21,762.01,778.07,787.95,-27.83,-891.60,490.72,-12.27,2.04,-4.02,-746.04
16233,809.54,801.15,761.70,777.51,787.48,-11.72,-894.04,484.86,-12.88,0.06,-2.40,-750.80
16267,809.19,803.04,761.57,777.42,787.80,-26.86,-916.99,479.49,-8.98,1.64,1.16,-766.71
16300,808.97,804.86,761.27,777.10,788.05,-22.95,-912.60,467.77,-9.55,1.60,-1.94,-783.51
16334,809.53,806.25,761.07,776.88,788.43,-14.16,-913.57,452.15,-6.34,0.84,1.31,-798.09
16367,810.64,807.66,760.91,776.23,788.86,-35.64,-903.32,469.24,-8.77,-1.27,-0.16,-807.79
16401,811.40,808.72,760.46,774.75,788.83,-13.67,-938.48,442.38,-16.92,3.03,-0.47,-808.16
16437,813.07,809.10,760.08,773.66,788.98,-32.71,-929.20,425.29,-15.93,0.69,-0.12,-810.46
16470,812.26,809.47,759.91,772.82,788.62,-626.46,-1192.38,730.96,-19.37,-54.64,-37.39,-802.63
16504,811.55,809.91,759.55,771.70,788.18,17.58,-737.30,574.22,-10.20,-5.70,0.59,-796.05
16537,813.50,809.78,759.20,770.44,788.23,-288.09,-931.64,433.59,-10.98,25.35,41.38,-791.86
16571,813.40,810.09,759.04,769.94,788.12,-52.73,-951.17,430.66,-20.40,0.21,-0.79,-790.61
16604,816.89,810.37,758.86,769.83,788.99,-8.30,-936.52,379.88,-7.79,-3.66,3.63,-807.63
16640,820.32,809.29,758.68,768.71,789.25,-22.95,-933.59,413.57,-12.08,-2.01,1.16,-798.99
16673,821.99,807.48,758.48,768.36,789.08,-43.95,-971.19,352.54,-11.10,-1.82,2.89,-790.06
16707,824.53,805.97,758.51,768.36,789.34,-24.41,-948.73,388.18,-3.65,-2.31,-2.76,-785.81
16740,824.12,804.17,758.34,767.89,788.63,-26.86,-932.13,401.37,-7.89,-1.35,3.07,-767.35
16774,821.52,803.70,758.41,768.78,788.10,-59.57,-982.42,314.94,-5.17,-2.52,-0.66,-765.92
16810,819.33,804.97,758.67,769.86,788.21,-32.23,-939.94,387.70,-4.66,-3.87,1.06,-778.01
16843,815.46,806.07,758.79,770.57,787.72,-32.71,-957.03,358.40,-9.32,-3.56,0.37,-780.97
16877,813.36,805.69,758.95,771.27,787.32,-32.23,-982.42,334.47,-1.42,-1.37,1.68,-777.03
16910,813.18,804.44,758.96,771.50,787.02,-41.50,-949.22,387.21,-1.78,-2.13,-2.59,-769.61
16944,811.64,801.58,758.86,770.47,785.64,-29.79,-977.05,337.89,-1.65,-5.75,1.50,-728.62
16977,811.90,796.53,758.84,769.61,784.22,6.35,-951.66,411.13,-0.34,-2.96,2.29,-676.77
17013,812.86,791.65,758.61,768.88,783.00,-15.63,-952.64,396.00,-1.24,-3.40,1.92,-636.00
17046,810.47,788.68,758.51,768.64,781.58,-38.57,-934.08,352.05,-9.31,-7.34,3.24,-603.00
17080,805.99,786.50,758.70,769.43,780.16,-46.39,-954.59,335.94,-6.18,-8.17,0.14,-576.97
17113,801.81,784.42,758.74,769.86,778.71,-36.62,-950.68,369.63,-5.46,-12.31,1.64,-551.26
17147,798.73,782.43,758.68,769.33,777.29,-16.11,-948.24,381.84,-0.18,-8.93,0.85,-518.30
17181,795.58,780.46,758.44,767.90,775.59,-14.65,-955.08,376.95,-2.56,-4.27,0.51,-476.55
17217,793.50,778.12,758.26,767.12,774.25,-33.20,-965.33,341.31,-0.57,-3.94,3.08,-443.96
17250,789.86,776.54,758.26,767.38,773.01,-50.29,-954.59,366.70,-1.69,-5.64,2.09,-422.63
17283,784.40,775.19,758.22,767.48,771.33,-25.88,-950.68,354.00,-0.44,-2.63,-0.16,-395.42
17317,780.61,774.21,758.31,767.95,770.27,-32.23,-966.31,308.59,-2.31,-3.97,0.93,-379.25
17350,777.80,773.65,758.49,768.62,769.64,-34.18,-949.22,380.37,-0.61,-5.09,-2.08,-370.56
17383,773.88,772.93,758.44,768.90,768.54,-28.32,-958.01,366.70,-0.80,-7.27,-3.15,-356.52
17419,770.26,772.12,758.41,768.58,767.34,-33.69,-924.80,374.02,-0.20,-4.24,-0.33,-333.75
17452,767.42,771.25,758.15,767.97,766.20,75.68,-952.64,319.34,-6.67,-9.34,-2.13,-314.67
17485,764.65,770.29,758.02,767.17,765.03,-38.57,-978.52,382.81,-9.57,-3.67,2.16,-288.80
17519,762.59,769.09,757.82,765.85,763.84,-185.55,-955.08,456.54,-12.22,-31.14,9.50,-257.63
17552,761.41,767.52,757.41,764.07,762.60,-147.95,-926.76,467.77,-13.07,-54.56,18.34,-225.02
17587,760.39,765.77,757.13,762.18,761.37,-94.73,-982.42,375.98,-9.14,-77.44,22.69,-186.68
17621,759.84,764.22,756.77,760.83,760.41,-46.39,-1019.53,318.36,-20.51,-84.18,15.83,-161.33
17654,759.41,763.15,756.54,759.94,759.76,25.88,-944.82,250.49,-21.69,-72.69,15.19,-143.94
17687,759.05,762.42,756.33,759.31,759.28,57.62,-974.12,230.47,-25.82,-56.79,12.07,-132.73
17721,758.71,761.97,756.25,758.94,758.97,2.93,-944.82,251.46,-24.92,-49.49,11.37,-124.54
17754,758.43,761.62,756.14,758.82,758.75,-14.65,-890.14,288.57,-22.60,-36.19,20.64,-121.75
17790,758.18,761.41,756.08,758.62,758.57,-119.14,-956.54,404.30,-9.40,-39.85,30.81,-117.93
17823,758.20,761.25,756.09,758.62,758.54,-205.57,-972.66,360.84,15.98,-37.18,38.49,-116.32
17857,757.95,761.17,756.12,758.56,758.45,-272.95,-869.14,315.92,17.40,-37.73,57.66,-113.39
17890,757.90,761.18,756.12,758.56,758.44,-188.96,-951.66,330.08,-8.57,-35.39,59.64,-113.25
17923,758.41,761.06,756.02,758.48,758.49,329.10,-1027.83,-101.07,-10.31,-1.80,-0.50,-115.23
17957,758.04,761.08,756.03,758.52,758.42,-175.78,-1171.39,333.98,-14.83,9.50,30.11,-114.56
17992,757.81,761.02,756.04,758.46,758.33,-243.65,-1004.39,294.92,7.35,-26.02,63.56,-112.24
18026,757.73,760.87,756.01,758.38,758.25,-84.96,-863.77,216.31,-24.05,-33.47,45.37,-110.23
18059,757.70,760.81,756.00,758.41,758.23,-34.18,-1001.95,206.54,-24.05,-15.84,25.91,-110.37
18092,757.59,760.75,756.05,758.42,758.20,-33.69,-939.94,181.64,-1.90,10.39,11.97,-108.28
18126,757.55,760.76,756.06,758.41,758.20,-80.57,-846.68,142.09,-2.48,32.27,1.42,-107.94
18161,757.61,760.75,755.98,758.38,758.18,-175.29,-823.73,104.49,-16.78,49.42,-1.21,-109.51
18194,757.56,760.69,756.00,758.33,758.15,-260.25,-834.96,114.26,-20.48,45.09,13.11,-107.71
18228,758.92,760.66,755.96,758.11,758.41,187.01,-1661.13,-541.99,-73.08,65.77,-44.60,-109.71
18261,759.12,760.81,756.02,758.18,758.53,-11.23,-1126.95,210.94,8.63,40.49,-21.89,-111.19
18294,759.34,760.74,755.96,758.13,758.55,-185.06,-1022.95,161.62,-4.67,24.75,1.91,-112.20
18328,759.22,760.65,755.96,758.15,758.49,-219.73,-946.29,181.15,-23.53,-2.11,0.78,-111.49
18363,759.12,760.71,755.99,758.16,758.50,-175.29,-986.82,164.55,-29.09,-12.47,-2.66,-110.97
18396,759.08,760.61,756.02,758.15,758.47,-184.08,-1008.79,130.37,-14.15,-2.01,-5.08,-109.10
18430,758.89,760.59,755.94,758.16,758.39,-187.99,-994.63,117.68,3.53,-0.57,-7.62,-110.40
18463,758.79,760.58,756.01,758.15,758.38,-209.47,-969.73,102.54,6.27,-10.17,-4.60,-108.01
18497,758.46,760.56,755.91,758.17,758.27,-216.31,-974.12,109.86,-0.34,-24.76,-13.53,-109.66
18532,758.21,760.52,755.93,758.21,758.22,-208.01,-972.66,132.32,-2.45,-36.08,-13.58,-108.46
18566,758.19,760.46,755.95,758.22,758.20,-171.87,-1058.11,126.95,3.32,-39.57,-12.69,-107.59
18599,758.15,760.41,755.96,758.22,758.18,-134.28,-1067.38,140.14,19.13,-30.36,4.40,-106.75
18632,758.16,760.50,755.90,758.25,758.20,-187.99,-990.72,182.62,19.69,-21.77,7.25,-109.60
18666,757.91,760.49,756.01,758.26,758.17,-239.75,-944.82,161.13,5.23,-16.74,0.85,-105.99
18699,757.68,760.48,755.99,758.34,758.12,-272.95,-864.75,119.63,-15.15,-12.62,-16.53,-106.64
18734,757.55,760.43,755.99,758.28,758.06,-357.42,-981.93,73.24,-30.24,-1.66,-29.65,-104.93
18768,757.50,760.55,756.02,758.35,758.11,-397.46,-1091.31,137.21,-24.82,5.87,-22.02,-106.11
18801,757.48,760.50,756.04,758.39,758.10,-367.19,-1100.59,177.73,-22.47,16.40,4.99,-105.69
18834,757.40,760.50,755.98,758.42,758.08,-323.73,-1129.88,221.19,-28.08,20.15,32.88,-107.47
18867,757.39,760.56,755.98,758.43,758.09,-264.16,-1088.38,195.80,-28.41,13.19,52.32,-108.01
18903,757.32,760.52,755.93,758.37,758.04,-188.96,-1041.50,190.43,-34.34,9.97,57.00,-107.83
18936,757.27,760.48,755.86,758.33,757.99,-77.64,-1088.87,155.76,-26.76,3.74,56.16,-108.41
18969,757.24,760.39,755.90,758.36,757.97,8.79,-1100.10,98.63,-6.69,4.98,62.65,-107.09
19002,757.21,760.39,755.99,758.41,758.00,21.00,-996.58,80.08,-1.18,8.01,53.95,-105.47
19035,757.24,760.43,755.99,758.39,758.01,-67.87,-912.60,72.27,-14.42,18.68,32.52,-105.68
19068,757.24,760.40,755.95,758.36,757.99,-159.18,-900.39,131.84,-31.50,25.49,-2.92,-105.85
19104,757.22,760.41,756.01,758.31,757.99,-223.14,-958.01,163.09,-25.61,19.21,-19.95,-103.71
19137,757.23,760.45,755.97,758.42,758.02,-268.55,-956.54,169.92,1.69,3.01,-9.01,-106.68
19171,757.18,760.37,755.95,758.38,757.97,-247.56,-932.62,122.07,25.77,-16.21,17.27,-105.97
19204,757.24,760.36,756.00,758.35,757.99,-224.12,-874.02,74.22,34.76,-20.87,40.21,-104.30
19237,757.22,760.52,755.94,758.41,758.02,-218.75,-867.68,34.18,33.59,-15.47,45.76,-107.96
19271,757.22,760.49,755.94,758.41,758.02,-263.67,-839.36,43.46,18.29,-1.52,22.12,-107.48
19307,757.21,760.51,755.97,758.42,758.03,-284.67,-963.87,75.68,1.10,14.15,-9.26,-107.22
19340,757.26,760.56,755.99,758.44,758.06,-302.73,-1003.91,36.13,10.89,15.39,-20.26,-107.33
19373,757.23,760.52,756.00,758.33,758.02,-391.60,-1002.44,24.90,1.38,18.84,-19.41,-105.23
19407,757.22,760.50,755.98,758.42,758.03,-463.38,-938.48,52.25,-4.94,11.34,-8.80,-106.83
19440,757.22,760.52,755.98,758.45,758.04,-523.44,-892.58,73.73,-5.56,0.15,-1.30,-107.38
19476,757.25,760.52,755.91,758.45,758.03,-540.53,-942.87,112.30,-5.85,-11.69,7.93,-109.11
19509,757.26,760.56,756.01,758.52,758.09,-503.42,-943.85,92.77,16.27,-22.08,21.77,-108.14
19543,757.24,760.40,755.94,758.46,758.01,-427.25,-832.03,20.51,19.97,-25.04,37.10,-107.57
19576,757.21,760.47,755.95,758.40,758.01,-316.41,-775.88,62.01,-12.20,-1.76,43.25,-107.01
19609,757.09,760.54,755.90,758.47,758.00,-202.15,-954.10,281.74,-62.29,25.02,31.30,-109.48
19643,757.00,760.59,755.93,758.44,757.99,-480.96,-1318.85,360.35,-28.98,32.64,16.44,-108.30
19679,756.99,760.57,756.00,758.45,758.00,-579.59,-1048.34,229.98,28.42,4.92,-17.23,-106.56
19712,757.08,760.55,755.99,758.43,758.01,-558.11,-923.83,163.09,12.05,8.88,-10.28,-106.54
19745,757.17,760.57,755.99,758.50,758.06,-447.75,-1107.42,126.46,19.20,18.79,26.28,-108.02
19779,757.02,760.52,755.96,758.46,757.99,-321.78,-1007.81,32.23,39.55,8.42,54.44,-107.34
19813,757.07,760.49,755.99,758.43,758.00,-307.62,-901.37,-75.68,32.95,8.24,54.42,-106.07
19846,757.05,760.53,755.98,758.43,758.00,-382.81,-808.59,-98.63,13.30,10.51,27.53,-106.70
19882,757.06,760.53,755.95,758.46,758.00,-380.86,-802.73,-93.75,5.29,15.71,7.32,-107.77
19915,757.11,760.58,755.98,758.42,758.02,-379.39,-788.09,-41.02,-5.34,20.28,2.56,-107.00
19949,757.05,760.57,755.97,758.48,758.02,-406.74,-903.32,8.79,2.08,13.02,6.85,-108.00
19982,757.11,760.58,755.96,758.50,758.04,-429.69,-873.05,-9.28,14.40,-6.38,6.34,-108.80
20016,757.13,760.59,755.98,758.42,758.03,-449.22,-863.77,-7.81,2.11,-17.50,-0.34,-107.07
20052,757.01,760.54,755.92,758.43,757.97,-453.61,-867.19,70.80,-17.36,-15.96,-3.24,-107.93
20085,757.09,760.60,755.97,758.43,758.02,-528.81,-911.13,145.51,-16.32,-8.45,-4.11,-107.61
20119,757.07,760.56,755.95,758.45,758.01,-551.76,-881.35,193.85,-6.73,-5.07,-7.15,-107.81
20152,757.03,760.63,755.96,758.47,758.02,-567.87,-897.46,188.48,10.53,-8.47,-0.60,-108.38
20186,757.05,760.61,755.94,758.43,758.01,-556.15,-849.12,162.11,8.53,-11.85,9.15,-108.31
20219,757.03,760.59,756.02,758.45,758.02,-551.76,-879.88,192.87,5.58,-10.64,9.40,-106.51
20255,757.02,760.62,755.89,758.42,757.99,-532.71,-877.93,186.04,16.55,-10.16,6.38,-109.41
20288,756.99,760.60,755.94,758.45,757.99,-548.83,-837.89,186.04,12.42,-15.46,5.11,-108.41
20321,757.05,760.58,756.04,758.48,758.04,-526.37,-853.03,201.66,13.95,-14.00,6.23,-106.10
20355,757.03,760.60,755.99,758.48,758.03,-495.12,-867.19,218.75,14.54,-7.13,7.79,-107.56
20388,757.08,760.64,755.97,758.56,758.06,-479.49,-869.14,186.04,12.43,-0.27,4.83,-109.65
20421,757.03,760.58,756.00,758.47,758.02,-455.57,-863.77,166.99,7.85,4.92,1.02,-107.07
20457,757.02,760.59,756.05,758.48,758.03,-454.59,-879.39,162.60,5.10,10.00,-2.44,-106.06
20491,757.07,760.68,756.03,758.52,758.07,-473.63,-891.60,148.93,5.31,7.45,-5.79,-108.01
20524,757.04,760.64,755.99,758.53,758.05,-500.49,-872.56,73.24,11.31,4.90,-6.38,-108.58
20557,757.04,760.69,756.01,758.52,758.06,-479.00,-817.87,75.68,-1.86,5.56,-6.32,-108.23
20590,756.99,760.60,755.94,758.52,758.01,-471.68,-861.82,70.80,-11.29,13.95,-5.27,-109.37
20626,757.03,760.60,756.05,758.43,758.03,-503.91,-891.11,85.94,-16.81,23.80,-17.40,-105.38
20659,757.00,760.60,755.99,758.49,758.02,-516.11,-903.81,68.36,-13.38,26.82,-18.98,-107.50
20693,757.03,760.65,755.95,758.47,758.03,-513.67,-893.07,70.80,-22.50,28.42,-13.24,-108.82
20727,757.05,760.61,756.01,758.45,758.03,-491.70,-903.81,78.12,-19.67,27.52,-11.02,-106.68
20760,757.04,760.61,755.92,758.44,758.00,-493.65,-894.53,111.33,-17.09,20.55,-7.44,-108.69
20794,757.01,760.54,756.02,758.52,758.02,-475.10,-891.60,102.05,-6.76,4.37,-10.06,-106.72
20830,757.04,760.54,756.02,758.50,758.03,-453.12,-856.93,97.66,0.03,-10.42,-4.07,-106.74
20863,757.02,760.60,755.97,758.48,758.02,-474.12,-873.05,112.79,4.26,-17.18,-3.77,-108.01
20896,757.03,760.61,755.96,758.45,758.01,-463.38,-869.14,97.66,11.02,-22.29,-1.62,-108.12
20930,757.00,760.63,755.96,758.56,758.04,-443.36,-901.37,91.31,4.69,-18.15,-5.34,-109.73
20963,757.07,760.57,755.95,758.48,758.02,-407.71,-904.79,86.43,1.11,-15.63,-11.17,-108.33
20997,757.05,760.56,755.98,758.47,758.02,-424.80,-905.27,88.87,-3.72,-4.47,-14.18,-107.55
21033,757.07,760.52,756.02,758.42,758.01,-443.36,-930.66,109.86,-8.29,4.42,-15.85,-105.38
21066,756.98,760.66,756.02,758.51,758.04,-481.93,-918.95,143.07,-5.19,0.11,-15.01,-107.54
21100,757.04,760.61,755.98,758.49,758.03,-488.28,-937.99,132.81,-0.12,-6.84,-12.47,-108.14
21133,757.09,760.56,755.94,758.46,758.01,-453.12,-964.84,140.14,6.39,-19.95,-7.34,-108.34
21167,757.07,760.60,755.96,758.42,758.01,-379.88,-1042.48,114.75,13.24,-30.76,1.33,-107.74
21202,757.03,760.59,755.96,758.43,758.00,-303.71,-934.08,58.11,14.79,-38.46,1.99,-107.59
21236,757.04,760.56,756.02,758.49,758.03,-332.03,-830.57,63.96,-5.83,-25.18,-11.51,-106.71
21269,757.05,760.58,755.98,758.51,758.03,-325.68,-841.80,107.91,-13.48,-1.84,-23.30,-108.21
21303,757.10,760.62,755.93,758.46,758.02,-264.65,-878.42,107.42,-7.59,12.43,-27.37,-109.19
21336,757.11,760.52,755.96,758.51,758.02,-275.39,-908.69,145.02,-18.55,24.73,-34.17,-108.46
21370,757.01,760.57,756.01,758.45,758.01,-279.79,-980.47,163.57,-10.15,20.73,-40.72,-106.46
21405,757.02,760.60,756.05,758.49,758.04,-343.75,-964.36,175.29,-3.94,16.40,-43.37,-106.13
21438,757.07,760.58,756.03,758.50,758.04,-487.30,-1069.82,213.87,0.84,10.90,-40.82,-106.86
21472,757.11,760.65,755.98,758.52,758.06,-605.96,-1134.77,266.11,7.86,4.34,-23.59,-109.09
21505,757.18,760.72,756.02,758.50,758.11,-622.07,-960.45,155.27,11.15,-11.69,6.34,-108.50
21538,757.09,760.66,756.03,758.57,758.09,-520.51,-1027.83,135.74,7.52,-11.50,29.76,-108.59
21574,757.06,760.62,755.98,758.48,758.03,-458.98,-908.69,121.09,14.51,-13.51,34.06,-107.93
21607,757.09,760.65,756.02,758.40,758.04,-462.40,-895.51,105.47,5.82,-9.56,26.50,-106.44
21641,757.13,760.67,755.97,758.49,758.06,-395.02,-1001.95,103.52,7.47,-4.25,15.37,-109.02
21674,757.16,760.69,756.07,758.48,758.10,-385.74,-988.28,60.55,9.27,5.34,23.47,-106.78
21707,757.07,760.66,755.93,758.57,758.06,-339.84,-1001.95,45.90,-11.12,13.01,18.07,-111.00
21741,757.10,760.66,755.94,758.43,758.03,-264.16,-1000.49,91.31,-24.48,27.07,4.33,-108.97
21776,757.15,760.66,755.98,758.46,758.06,-210.94,-1044.43,166.99,-20.65,36.68,9.08,-108.41
21809,757.17,760.72,755.97,758.56,758.10,-150.39,-996.58,188.96,-20.66,39.31,14.51,-110.65
21842,757.20,760.63,756.02,758.53,758.09,-170.41,-901.37,168.95,-17.96,32.37,-5.00,-108.36
21875,757.13,760.67,756.02,758.48,758.08,-149.41,-856.45,172.85,-27.16,36.95,-30.37,-107.76
21908,757.19,760.67,755.98,758.52,758.09,-204.10,-854.98,192.38,-21.75,38.87,-38.80,-109.60
21944,757.19,760.72,756.07,758.55,758.13,-348.14,-845.70,190.43,-11.14,30.40,-40.18,-108.02
21977,757.23,760.74,756.04,758.53,758.13,-502.44,-822.27,104.49,6.38,18.61,-41.31,-108.84
22010,757.29,760.73,756.07,758.49,758.15,-588.38,-844.73,25.39,9.18,8.71,-41.73,-107.61
22043,757.25,760.79,756.06,758.55,758.16,-636.72,-907.23,-8.79,15.30,-4.09,-35.02,-109.30
22076,757.32,760.70,756.05,758.57,758.16,-595.21,-947.75,0.00,18.95,-13.96,-22.87,-109.13
22109,757.23,760.68,755.97,758.58,758.12,-549.32,-1010.25,-24.41,26.97,-19.49,-9.93,-110.81
22144,757.25,760.69,755.95,758.65,758.14,-535.16,-1030.76,-41.50,28.34,-21.41,0.05,-112.69
22178,757.26,760.59,755.97,758.59,758.10,-524.90,-999.51,-66.41,23.16,-19.36,1.52,-110.56
22211,757.24,760.71,756.04,758.54,758.13,-534.18,-957.03,3.42,10.11,-17.27,2.96,-108.96
22244,757.20,760.66,755.98,758.55,758.10,-479.00,-1054.69,50.78,21.82,-26.14,23.41,-110.06
22278,757.25,760.64,755.98,758.59,758.12,-413.57,-924.32,43.95,13.27,-34.02,56.76,-110.50
22311,757.17,760.56,755.98,758.58,758.07,-345.21,-1042.48,57.13,12.01,-46.72,64.53,-109.46
22347,757.16,760.56,755.98,758.55,758.06,-164.06,-1005.86,75.20,3.02,-48.29,49.55,-109.00
22380,757.06,760.60,755.98,758.57,758.05,-128.42,-983.89,85.45,-3.73,-43.24,24.62,-109.25
22414,757.16,760.63,755.99,758.56,758.08,-116.70,-942.38,92.77,-12.85,-36.85,3.56,-109.49
22447,757.09,760.66,756.00,758.60,758.09,-136.23,-926.27,173.34,-24.32,-23.89,-6.36,-109.78
22481,757.02,760.59,755.97,758.70,758.07,-189.45,-949.22,289.55,-19.02,-11.99,-2.39,-111.17
22516,757.04,760.65,756.01,758.58,758.07,-208.01,-1035.16,337.89,-0.73,-4.74,2.94,-108.89
22550,757.02,760.69,756.00,758.63,758.08,-229.49,-958.98,284.67,6.46,-4.52,7.68,-110.35
22583,757.05,760.58,755.94,758.63,758.05,-298.34,-868.65,249.51,-14.98,4.55,4.31,-110.82
22616,756.98,760.59,755.99,758.65,758.05,-304.20,-913.57,307.13,-17.70,11.95,-11.99,-109.78
22650,757.05,760.66,756.06,758.66,758.11,-316.89,-903.81,327.15,-9.58,12.97,-22.14,-108.88
22683,757.06,760.66,756.02,758.62,758.09,-388.18,-927.25,314.94,11.93,0.73,-12.47,-109.37
22719,756.99,760.73,755.97,758.72,758.10,-412.60,-902.83,271.00,26.60,-16.85,4.89,-112.49
22752,757.06,760.67,756.02,758.65,758.10,-420.41,-967.77,260.25,41.50,-29.74,12.85,-110.01
22785,757.05,760.70,755.97,758.60,758.08,-438.48,-933.11,229.00,50.67,-41.52,16.33,-110.81
22819,757.05,760.71,755.97,758.65,758.09,-487.30,-1008.79,250.98,40.92,-42.53,7.66,-111.52
22852,757.02,760.70,755.98,758.66,758.09,-419.43,-978.52,241.70,36.82,-37.85,7.04,-111.20
22888,756.99,760.72,756.03,758.66,758.10,-366.70,-958.50,161.62,20.92,-13.30,14.72,-109.98
22921,757.02,760.75,756.05,758.60,758.10,-315.43,-954.10,124.02,3.11,15.25,14.89,-109.13
22955,757.02,760.70,756.01,758.52,758.06,-313.48,-895.02,169.92,-15.80,27.19,11.89,-108.47
22988,756.93,760.76,756.00,758.57,758.06,-338.87,-909.18,214.36,-10.26,21.91,-3.15,-109.64
23021,756.97,760.78,755.96,758.62,758.08,-409.67,-914.06,217.29,4.62,-2.26,-12.92,-111.59
23055,757.06,760.72,755.95,758.62,758.09,-407.23,-892.09,179.69,13.18,-22.63,-6.79,-111.72
23090,757.05,760.70,755.99,758.63,758.09,-371.09,-908.69,204.59,5.55,-33.23,5.87,-110.52
23124,757.05,760.70,755.96,758.61,758.08,-352.54,-913.57,239.26,1.71,-29.62,19.53,-111.12
23157,756.94,760.70,756.00,758.64,758.07,-349.12,-888.18,280.76,-7.60,-16.66,15.08,-110.38
23190,757.01,760.69,755.95,758.60,758.06,-352.54,-870.61,291.99,-15.18,0.13,4.69,-111.09
23224,756.93,760.69,755.99,758.57,758.05,-377.44,-894.53,311.04,-16.76,10.23,1.69,-109.30
23257,756.99,760.75,755.93,758.62,758.07,-337.40,-900.88,299.80,-8.14,6.98,5.42,-112.11
23293,757.02,760.67,756.00,758.60,758.07,-333.50,-888.67,263.67,-7.17,1.74,8.63,-109.61
23327,757.01,760.68,755.94,758.50,758.03,-336.91,-850.59,278.32,-8.93,-0.89,-0.16,-109.68
23360,757.02,760.71,755.99,758.54,758.06,-349.61,-842.29,293.46,-15.30,-2.57,-15.14,-109.25
23394,757.03,760.62,756.02,758.62,758.07,-338.87,-871.58,316.89,-15.76,-0.18,-25.81,-108.90
23427,757.02,760.70,755.96,758.56,758.06,-366.21,-907.23,316.89,-6.72,-2.96,-20.89,-110.23
23463,756.95,760.66,755.96,758.65,758.06,-352.05,-909.67,316.89,0.72,-4.63,-11.03,-111.18
23496,757.03,760.73,755.96,758.62,758.08,-360.35,-889.65,307.13,0.47,-9.85,-6.19,-111.48
23529,757.05,760.76,755.96,758.55,758.08,-360.84,-903.81,308.11,-1.22,-9.85,-13.73,-110.73
23562,757.01,760.74,756.01,758.61,758.09,-341.80,-906.25,309.57,-0.32,-5.11,-17.99,-110.06
23596,757.07,760.72,755.96,758.55,758.07,-350.10,-959.96,317.38,-1.27,-1.15,-21.06,-110.47
23629,757.10,760.71,755.94,758.64,758.10,-340.82,-944.34,321.29,1.28,-4.18,-16.36,-112.22
23664,757.11,760.76,756.04,758.66,758.14,-338.87,-958.50,304.69,1.21,-1.45,-10.75,-110.35
23697,757.03,760.77,756.00,758.67,758.12,-375.49,-935.06,297.85,2.55,-6.74,-10.57,-111.46
23731,757.11,760.73,756.02,758.61,758.12,-382.32,-931.15,294.92,0.44,-3.66,-12.34,-109.92
23764,757.02,760.77,755.96,758.65,758.10,-372.07,-942.38,290.53,-2.31,-2.09,-7.93,-112.17
23798,756.98,760.64,756.03,758.65,758.08,-339.84,-943.85,283.69,0.89,-0.18,-2.55,-109.38
23831,757.08,760.77,755.98,758.64,758.12,-293.46,-936.52,282.23,-0.24,-1.13,-0.76,-111.84
23867,757.07,760.72,755.96,758.59,758.08,-271.00,-916.99,269.53,-1.12,-4.20,-6.60,-111.10
23901,757.05,760.69,755.98,758.65,758.09,-253.91,-906.74,269.04,-2.83,-7.12,-10.24,-111.28
23934,757.02,760.79,755.96,758.65,758.11,-243.65,-931.15,254.39,-0.56,-10.79,-15.73,-112.26
23968,756.98,760.84,755.93,758.57,758.08,-252.93,-927.73,236.33,-5.16,-11.40,-17.85,-112.16
24001,756.95,760.75,756.03,758.63,758.09,-278.32,-946.29,243.65,-8.08,-9.39,-22.60,-109.59
24037,756.96,760.79,755.95,758.61,758.08,-255.37,-986.82,240.23,-11.59,-9.12,-20.44,-111.70
24070,756.93,760.75,755.90,758.66,758.06,-276.86,-952.64,217.77,-19.36,-14.40,-14.55,-113.42
24104,756.99,760.73,755.92,758.70,758.08,-273.44,-917.48,216.80,-35.64,-23.38,-15.22,-113.34
24137,756.94,760.84,755.97,758.64,758.10,-264.16,-944.34,196.78,-55.19,-32.37,-13.79,-112.10
24171,756.96,760.72,756.04,758.65,758.09,-219.73,-1004.88,212.89,-51.85,-43.19,-12.87,-109.58
24204,756.99,760.77,756.03,758.64,758.11,-162.11,-1023.93,241.70,-30.98,-39.18,0.08,-110.23
24240,756.98,760.77,755.98,758.70,758.11,-170.90,-1029.79,263.67,-9.11,-14.39,18.49,-112.27
24274,756.99,760.74,755.97,758.63,758.08,-204.10,-1010.74,250.49,4.66,8.60,23.63,-111.42
24307,756.97,760.64,755.97,758.60,758.05,-214.84,-999.02,246.58,8.69,21.20,19.83,-109.89
24341,756.92,760.69,756.01,758.61,758.06,-238.77,-990.72,214.84,13.25,23.76,13.12,-109.32
24374,756.96,760.69,755.91,758.66,758.06,-269.53,-966.31,201.17,12.80,16.47,7.24,-112.86
24410,756.90,760.69,755.90,758.56,758.01,-273.93,-924.32,175.78,1.98,6.56,0.66,-111.13
24443,756.92,760.72,755.96,758.52,758.03,-270.02,-943.85,169.92,-4.00,-1.33,0.14,-109.41
24477,756.99,760.61,755.96,758.52,758.02,-220.21,-963.38,189.94,-2.40,-8.03,0.69,-109.02
24510,756.92,760.68,756.02,758.55,758.04,-199.71,-980.47,199.71,3.34,-4.14,3.38,-108.31
24544,756.94,760.68,756.03,758.64,758.07,-189.45,-966.80,206.05,4.63,5.53,5.38,-109.14
24577,756.94,760.61,756.00,758.55,758.02,-212.89,-954.10,192.38,7.36,8.64,2.12,-108.20
24613,756.92,760.77,756.06,758.59,758.09,-230.96,-917.48,179.69,7.08,7.70,-6.25,-108.59
24646,756.95,760.64,755.97,758.58,758.04,-229.00,-933.59,189.94,-2.20,3.89,-12.70,-109.57
24680,756.97,760.66,755.97,758.66,758.06,-240.72,-979.49,204.10,-1.54,-2.85,-13.07,-111.03
24713,756.95,760.64,756.00,758.55,758.04,-261.23,-982.42,205.57,1.62,-4.89,-10.30,-108.36
24747,756.89,760.70,756.00,758.55,758.04,-260.74,-981.93,222.17,-0.26,-2.50,-3.48,-108.80
24780,756.94,760.62,755.97,758.60,758.03,-271.97,-994.63,214.84,-0.27,4.80,-3.05,-109.63
24816,756.99,760.67,755.96,758.52,758.04,-275.88,-1006.35,214.84,-2.11,4.53,-2.95,-109.49
24850,756.92,760.69,756.07,758.51,758.05,-288.09,-980.47,198.24,-1.59,2.29,1.30,-106.42
24883,756.94,760.71,755.96,758.64,758.06,-289.06,-979.98,200.68,-2.88,0.75,0.04,-111.33
24916,756.98,760.73,756.02,758.55,758.07,-236.33,-1008.30,203.61,-2.90,-1.29,6.20,-108.68
24950,756.97,760.69,756.02,758.59,758.07,-219.73,-968.26,214.36,-0.08,5.53,13.01,-109.00
25015,756.98,760.59,756.03,758.52,758.03,-222.66,-922.85,183.11,-1.50,4.54,9.11,-106.81
25048,756.97,760.72,755.95,758.58,758.05,-210.45,-929.69,182.13,-4.66,1.99,5.53,-110.69
25081,756.97,760.60,756.02,758.59,758.05,-236.33,-953.12,195.31,-4.81,0.60,3.43,-108.16
25114,757.00,760.68,755.96,758.54,758.04,-267.58,-978.52,202.64,-0.92,1.34,2.13,-109.71
25147,756.97,760.71,756.01,758.55,758.06,-255.37,-973.63,219.24,1.04,6.15,3.59,-108.77
25180,757.02,760.64,755.97,758.58,758.05,-291.99,-982.42,211.43,3.29,6.62,3.82,-109.75
25216,757.04,760.74,756.06,758.59,758.10,-283.20,-979.98,202.15,1.42,2.14,4.08,-108.64
25249,757.00,760.72,755.93,758.58,758.06,-287.60,-963.87,199.22,0.75,-2.82,-0.72,-111.45
25282,756.97,760.74,755.99,758.57,758.07,-258.79,-968.75,192.87,-4.61,-5.05,-7.96,-109.75
25316,757.00,760.76,756.02,758.54,758.08,-244.63,-967.29,189.94,-4.37,-3.64,-12.08,-108.96
25349,756.94,760.70,755.97,758.51,758.03,-263.67,-943.85,182.13,-4.12,1.18,-9.50,-108.99
25382,756.98,760.66,756.04,758.54,758.06,-250.49,-937.50,193.36,-5.47,0.18,-8.56,-107.48
25417,756.97,760.71,756.06,758.55,758.07,-236.33,-971.68,186.04,-0.98,-3.98,-8.54,-107.52
25451,757.01,760.76,756.04,758.57,758.10,-213.38,-986.33,209.96,6.22,-2.36,-0.56,-108.94
25484,757.04,760.69,755.98,758.51,758.06,-220.70,-1001.46,199.22,9.34,-3.89,4.40,-108.98
25517,757.05,760.68,755.94,758.54,758.05,-236.82,-970.21,204.59,5.73,0.08,-1.49,-110.47
25550,757.03,760.70,756.07,758.50,758.07,-243.16,-942.38,180.66,1.74,-4.13,-10.73,-106.67
25586,757.08,760.70,756.00,758.56,758.09,-236.33,-977.05,199.22,-1.47,-0.91,-14.16,-109.45
25619,757.07,760.69,755.94,758.54,758.06,-199.22,-975.59,211.91,-0.37,-4.34,-15.15,-110.55
25652,757.07,760.75,755.96,758.60,758.09,-211.91,-962.89,201.17,3.92,0.13,-18.74,-111.53
25685,756.98,760.71,755.99,758.58,758.07,-195.31,-937.99,198.73,-1.52,0.48,-28.87,-109.76
25718,756.95,760.75,756.05,758.66,758.10,-191.89,-974.61,197.75,-3.87,-1.59,-36.78,-109.65
25752,756.96,760.80,755.97,758.62,758.09,-139.65,-941.89,179.20,-0.11,-5.05,-40.73,-111.65
25787,756.99,760.82,756.03,758.67,758.13,-74.22,-938.96,186.52,2.95,-7.29,-35.17,-111.10
25820,756.96,760.91,756.06,758.64,758.15,-24.41,-897.46,192.87,5.30,-9.22,-32.02,-110.43
25853,757.14,761.07,756.02,758.76,758.25,-512.70,-1751.46,-734.37,78.15,-7.52,-33.85,-115.25
25886,757.55,761.28,756.06,758.78,758.42,-189.45,-942.87,-22.95,44.00,-16.84,22.46,-117.56
25920,757.69,761.13,756.08,758.76,758.42,-92.77,-877.44,585.94,-9.69,6.09,-10.97,-116.13
25953,757.70,761.19,756.11,758.90,758.48,-125.49,-1042.48,110.84,-2.56,5.75,-10.48,-117.94
25989,758.09,761.34,756.03,758.94,758.60,-107.42,-957.52,315.92,25.41,-7.05,-7.04,-122.87
26022,758.25,761.67,756.06,758.98,758.74,-99.61,-969.73,309.57,6.49,2.28,-16.21,-126.00
26055,758.53,761.80,756.09,758.99,758.85,-65.43,-944.34,358.40,10.41,8.62,1.81,-127.44
26089,758.75,761.82,756.05,759.02,758.91,-118.65,-987.79,276.86,-4.34,4.27,-0.66,-129.75
26122,758.86,761.99,756.04,759.09,759.00,-80.57,-986.33,280.27,5.02,-0.85,-0.43,-132.81
26157,759.11,762.18,756.13,759.06,759.12,-84.96,-973.14,332.52,5.01,1.11,-0.66,-132.59
26190,759.38,762.18,756.11,759.19,759.21,-86.91,-960.94,301.76,0.21,1.81,-0.67,-135.62
26223,759.44,762.22,756.06,759.16,759.22,-91.80,-961.43,300.78,0.96,1.31,-0.27,-136.96
26256,759.58,762.22,756.05,759.17,759.26,-88.87,-974.12,301.76,0.29,0.44,-0.06,-137.82
26289,759.95,762.30,756.07,759.17,759.37,-85.45,-971.19,306.15,1.05,-1.72,0.47,-139.47
26322,760.18,762.24,756.11,759.19,759.43,-94.24,-967.77,306.15,0.52,-0.15,-1.85,-139.02
26358,760.44,762.30,756.11,759.11,759.49,-78.61,-963.87,317.38,1.97,-1.71,-0.40,-139.18
26391,760.85,762.37,756.03,759.16,759.60,-95.70,-974.61,287.11,2.50,-2.76,-0.32,-144.05
26424,761.12,762.40,756.15,759.27,759.74,-83.98,-960.94,312.50,1.92,1.08,-1.79,-143.70
26457,761.34,762.40,756.13,759.23,759.78,-89.36,-967.77,313.48,1.98,-1.48,-1.73,-144.36
26490,761.35,762.40,756.16,759.27,759.79,-95.70,-961.43,303.71,-1.52,-0.49,-3.59,-144.23
26523,761.14,762.53,756.08,759.27,759.75,-77.64,-975.10,301.76,-3.64,3.54,-2.75,-146.66
26558,760.52,762.23,756.12,759.16,759.51,-75.68,-965.33,326.17,-2.04,-1.02,0.85,-139.59
26591,759.81,762.10,756.03,759.01,759.24,-84.47,-968.75,293.95,-5.67,2.70,-1.14,-135.97
26625,759.00,761.99,756.13,759.09,759.05,-106.45,-978.03,295.41,-3.98,-0.32,-0.84,-131.14
26658,758.19,761.84,756.08,759.06,758.79,-86.91,-979.98,291.02,-6.86,0.58,-1.11,-127.92
26691,757.57,761.87,756.10,759.08,758.65,-73.24,-983.89,310.06,-6.92,-3.10,-2.25,-125.78
26724,757.31,761.86,756.13,759.19,758.62,-69.34,-954.10,307.62,-2.81,-0.47,-3.12,-125.57
26759,757.11,761.97,756.13,759.16,758.59,-79.59,-969.73,294.43,-3.82,-4.00,-0.93,-125.51
26793,756.98,761.83,756.12,759.12,758.51,-58.59,-979.49,285.64,-5.53,0.92,2.84,-123.52
26827,756.81,761.87,756.13,759.15,758.49,22.46,-964.84,297.36,-3.91,-3.18,0.24,-123.47
26860,756.77,761.88,756.09,759.22,758.49,10.74,-965.33,312.99,3.26,-0.48,2.92,-125.35
26893,756.80,761.88,756.19,759.25,758.53,-84.47,-967.77,282.23,3.46,-0.27,1.15,-123.44
26928,756.95,761.86,756.16,759.20,758.54,-180.66,-998.54,259.28,7.07,7.13,0.95,-123.78
26962,757.18,761.90,756.02,759.19,758.57,-210.94,-965.33,264.65,6.67,3.39,-0.09,-128.37
26995,757.63,762.02,756.00,759.27,758.73,-24.90,-946.78,325.68,7.40,7.72,-0.69,-132.56
27028,758.44,762.35,756.08,759.19,759.01,-89.84,-964.36,333.50,0.69,3.91,-2.85,-134.85
27062,758.98,762.35,756.09,759.16,759.15,-58.59,-969.24,296.87,-8.89,-1.00,-10.46,-135.85
27095,759.27,762.36,756.10,759.14,759.22,-90.33,-967.29,296.39,-7.28,2.67,-1.42,-136.49
27130,759.76,762.40,756.09,759.17,759.35,-81.05,-970.70,281.74,-6.40,2.04,-0.41,-138.91
27164,759.87,762.44,756.07,759.22,759.40,-82.52,-974.61,285.64,-5.63,2.60,-0.50,-140.80
27197,759.98,762.51,756.10,759.11,759.43,-78.12,-976.07,291.02,-3.86,1.34,-1.31,-139.58
27230,760.03,762.44,756.02,759.15,759.41,-101.56,-976.56,288.09,-1.94,4.69,-1.60,-141.70
27264,760.15,762.47,756.12,759.08,759.46,-87.40,-980.96,273.44,-2.11,1.20,0.92,-138.82
27297,760.24,762.55,756.04,759.15,759.49,-70.80,-966.80,294.43,-1.79,-1.97,-0.95,-142.80
27332,760.38,762.52,756.05,759.13,759.52,-83.01,-972.17,286.13,-0.62,-0.04,-0.58,-142.70
27366,760.39,762.41,756.07,759.12,759.50,-72.75,-983.40,268.55,-3.01,0.06,0.40,-141.15
27399,760.45,762.43,756.05,759.10,759.51,-79.10,-976.07,279.79,-0.08,1.96,-1.85,-141.55
27432,760.35,762.46,756.12,759.11,759.51,-73.24,-970.21,279.30,-0.06,-0.41,-0.44,-139.94
27466,760.27,762.45,756.06,759.17,759.49,-70.80,-978.03,274.90,-0.64,2.19,0.85,-142.08
27499,760.34,762.36,756.09,759.08,759.47,-76.66,-982.42,296.39,-1.78,-1.14,-1.15,-139.34
27535,760.35,762.33,756.06,759.10,759.46,-82.03,-973.63,279.30,-1.23,2.24,-0.37,-140.20
27568,760.45,762.45,756.05,759.17,759.53,-89.36,-970.70,290.53,-2.03,0.27,-0.27,-142.67
27601,760.46,762.41,756.03,759.12,759.50,-74.71,-975.59,285.16,-1.25,-0.31,-0.32,-142.14
27635,760.43,762.38,756.04,759.09,759.49,-88.87,-988.28,275.39,-5.94,2.84,-0.37,-141.18
27668,760.44,762.41,756.08,759.08,759.50,-88.87,-980.47,276.86,-5.05,0.68,-0.97,-140.20
27704,760.41,762.32,755.96,759.07,759.44,-87.89,-982.91,276.37,-1.76,0.73,0.85,-142.57
27737,760.47,762.29,756.07,759.05,759.47,-81.54,-980.96,282.23,1.29,-2.75,-0.17,-139.51
27770,760.56,762.36,756.06,759.04,759.51,-74.71,-975.59,287.60,-0.89,-0.44,-0.62,-140.31
27803,760.65,762.28,756.13,759.05,759.53,-69.82,-961.91,298.83,-4.41,3.85,-1.28,-138.53
27836,760.53,762.20,756.15,759.10,759.49,-76.17,-966.31,280.27,-1.02,10.01,-1.20,-137.59
27869,760.67,762.27,756.05,759.01,759.50,-95.21,-990.23,254.88,-0.35,2.56,-1.59,-139.94
27905,760.61,762.28,756.12,759.01,759.51,-64.45,-987.30,280.27,-1.30,0.71,-1.80,-137.87
27938,760.66,762.35,756.05,758.99,759.51,-93.75,-978.03,274.41,0.08,-4.50,-0.54,-140.12
27971,760.74,762.30,756.08,758.95,759.52,-100.59,-981.45,272.46,-1.56,0.18,-3.69,-138.76
28004,760.83,762.33,756.05,759.02,759.56,-85.94,-975.59,279.30,-1.18,0.66,-2.31,-140.94
28037,760.79,762.33,756.09,758.99,759.55,-75.20,-981.93,281.25,-2.79,-0.24,0.44,-139.34
28070,760.79,762.33,756.08,759.01,759.56,-78.12,-973.63,283.69,-0.67,0.02,-2.10,-139.89
28105,760.80,762.35,756.04,759.03,759.55,-84.47,-964.36,279.79,-0.54,-1.37,0.95,-141.41
28139,760.83,762.27,756.08,759.01,759.55,-79.59,-983.89,271.97,-0.54,1.47,-0.35,-139.70
28172,760.80,762.26,756.04,759.06,759.54,-83.01,-982.42,259.77,-0.53,-1.10,1.21,-141.20
28205,760.74,762.31,756.09,759.06,759.55,-79.10,-988.28,270.51,-1.47,-0.69,-1.31,-140.08
28239,760.81,762.23,756.08,759.08,759.55,-82.52,-977.54,262.21,-0.92,1.45,-1.04,-140.36
28272,760.81,762.32,756.03,759.09,759.56,-88.38,-982.91,266.11,-0.20,-2.17,0.80,-142.42
28308,760.80,762.34,756.05,758.97,759.54,-89.84,-979.49,280.27,-0.68,-1.22,-0.85,-140.26
28341,760.85,762.32,756.10,759.00,759.57,-82.03,-977.05,271.00,-0.40,0.18,-1.53,-139.40
28374,760.89,762.38,756.05,758.97,759.57,-78.61,-980.96,276.86,0.60,-1.74,-0.15,-140.67
28408,760.84,762.23,756.07,758.96,759.52,-88.38,-983.89,280.76,-2.01,0.18,1.09,-138.70
28441,760.77,762.28,756.10,758.97,759.53,-75.20,-991.21,266.11,-1.89,1.22,-0.44,-138.35
28477,760.80,762.23,756.01,758.95,759.50,-85.94,-987.30,275.88,-0.23,-1.15,-2.79,-140.08
28510,760.76,762.18,756.11,758.97,759.50,-91.31,-978.52,279.30,0.55,0.19,-0.89,-137.34
28543,760.76,762.13,756.06,758.97,759.48,-77.64,-969.73,277.34,0.90,1.44,1.54,-138.07
28577,760.74,762.11,756.05,758.90,759.45,-90.82,-980.96,274.41,1.07,-1.59,-0.38,-137.15
28611,760.69,762.14,756.02,758.90,759.44,-68.85,-968.75,274.90,0.34,1.76,0.92,-138.05
28644,760.71,762.13,756.09,758.93,759.47,-73.24,-978.03,268.07,-0.37,1.32,1.05,-136.66
28680,760.72,762.13,756.09,759.01,759.49,-90.33,-979.49,287.11,-0.43,-0.95,1.79,-137.75
28713,760.69,762.11,756.06,758.93,759.45,-83.98,-968.75,283.20,0.82,1.14,-3.24,-137.09
28746,760.67,762.22,756.09,758.99,759.49,-81.05,-988.77,259.28,-0.92,0.69,0.22,-138.07
28780,760.75,762.19,756.07,758.97,759.49,-82.03,-982.42,277.83,-1.39,0.62,-1.69,-138.26
28813,760.73,762.26,756.08,759.04,759.53,-79.10,-973.63,281.74,0.18,0.38,-0.60,-139.64
28846,760.74,762.22,756.02,759.01,759.50,-85.94,-979.98,274.90,-2.11,2.27,-0.25,-140.33
28882,760.78,762.24,756.07,758.99,759.52,-76.17,-975.10,282.71,-1.92,1.81,-0.08,-139.08
28915,760.77,762.23,756.01,758.96,759.49,-82.52,-966.31,257.81,0.06,1.52,-1.85,-140.17
28949,760.78,762.26,756.08,758.99,759.53,-75.68,-978.52,268.55,-2.79,0.35,-0.34,-139.07
28982,760.81,762.19,756.09,759.06,759.54,-78.61,-979.00,275.88,-2.33,0.69,2.11,-139.52
29016,760.80,762.25,756.07,758.96,759.52,-80.57,-963.87,274.90,-1.27,-0.41,-1.95,-138.92
29049,760.82,762.31,756.07,759.01,759.55,-93.26,-968.75,278.32,-1.22,0.52,2.18,-140.28
29084,760.85,762.25,756.00,759.02,759.53,-84.96,-970.70,273.44,-3.70,-1.62,-0.88,-141.62
29118,760.80,762.27,756.05,758.99,759.53,-79.10,-982.42,281.74,0.53,0.99,-1.23,-139.95
29151,760.80,762.29,756.06,759.08,759.55,-83.98,-981.93,273.93,0.27,0.18,-0.67,-141.18
29185,760.84,762.26,756.07,759.01,759.55,-73.73,-973.14,274.90,0.63,1.40,0.18,-139.70
29218,760.81,762.27,756.04,759.07,759.55,-83.01,-973.63,273.44,0.44,-1.69,-0.63,-141.52
29251,760.81,762.30,756.05,758.99,759.54,-83.01,-978.03,269.53,0.19,1.61,-0.92,-140.26
29287,760.79,762.22,756.06,759.00,759.51,-74.22,-969.24,260.74,-1.02,-1.51,1.34,-139.35
29320,760.75,762.22,756.12,759.04,759.53,-84.47,-978.03,267.09,0.15,0.43,-0.08,-138.44
29353,760.81,762.23,756.06,759.09,759.55,-93.26,-999.02,267.58,0.93,-2.66,-1.30,-140.80
29387,760.78,762.24,756.06,758.99,759.52,-80.08,-985.35,266.60,-0.37,0.14,3.04,-139.22
29420,760.80,762.21,756.02,759.02,759.51,-83.50,-984.37,274.41,-0.19,-2.02,-0.73,-140.67
29456,760.86,762.21,756.05,759.00,759.53,-83.50,-979.98,278.32,0.15,3.11,-3.90,-139.72
29489,760.76,762.23,756.02,759.01,759.50,-77.64,-983.40,268.55,-2.69,1.24,0.23,-140.42
29523,760.80,762.27,756.11,758.97,759.54,-85.94,-979.00,289.55,0.16,2.01,-0.08,-138.29
29556,760.82,762.22,756.09,759.00,759.53,-83.98,-971.68,275.39,-0.77,2.33,-0.03,-138.78
29589,760.85,762.20,756.10,759.04,759.55,-86.91,-975.59,282.71,-2.19,0.88,-1.65,-138.92
29622,760.84,762.21,756.09,758.97,759.53,-87.40,-979.98,280.27,1.03,-0.45,0.76,-138.13
29657,760.82,762.29,756.04,759.05,759.55,-82.52,-976.56,275.88,-0.83,4.23,-2.00,-141.26
29691,760.84,762.30,756.02,758.98,759.54,-76.66,-979.98,283.20,-2.03,-2.34,-1.68,-141.09
29724,760.88,762.28,756.07,759.02,759.56,-83.01,-967.29,281.25,-0.98,0.54,-0.95,-140.28
29757,760.83,762.32,756.06,759.02,759.56,-85.45,-991.21,271.48,0.05,-1.62,0.79,-140.58
29791,760.86,762.30,756.03,759.04,759.56,-80.08,-982.91,278.81,-0.82,-0.24,-2.92,-141.59
29824,760.87,762.25,756.05,759.02,759.55,-85.94,-989.26,264.16,-0.50,1.76,-0.23,-140.51
29860,760.88,762.33,756.09,759.03,759.58,-76.17,-984.37,276.86,-1.18,-2.06,2.41,-140.19
29893,760.85,762.29,756.08,759.07,759.57,-89.36,-980.96,271.00,-0.57,1.76,-3.32,-140.73
29927,760.86,762.32,756.09,759.04,759.58,-78.61,-974.12,266.11,-0.95,-0.02,-1.46,-140.33
29960,760.86,762.35,756.01,759.04,759.57,-82.52,-985.35,271.00,-1.09,-2.37,-0.44,-142.49
29993,760.90,762.32,756.07,758.99,759.57,-89.84,-978.03,280.27,-0.37,0.12,1.23,-140.31
30027,760.89,762.40,756.04,759.01,759.59,-79.59,-975.10,280.76,-2.77,-2.27,-1.58,-141.77
30062,760.90,762.41,756.07,759.03,759.60,-77.15,-978.03,278.32,-1.08,0.21,-0.68,-141.41
30096,760.90,762.42,756.12,759.03,759.62,-84.47,-982.91,278.32,0.21,-1.03,-1.60,-140.43
30129,760.90,762.31,756.07,759.05,759.58,-81.54,-976.56,273.93,-0.97,0.63,1.11,-140.95
30162,760.95,762.34,756.03,759.04,759.59,-77.64,-967.77,282.71,-1.90,0.76,1.09,-142.32
30196,760.89,762.35,756.11,759.05,759.60,-81.54,-988.28,260.74,-1.30,1.15,-3.26,-140.37
30231,760.87,762.34,756.11,759.07,759.60,-84.47,-987.79,284.67,0.34,-0.66,-1.82,-140.37
30265,760.87,762.34,756.08,759.08,759.59,-77.64,-981.93,279.30,-0.82,0.80,-1.36,-141.38
30298,760.94,762.29,756.00,759.05,759.57,-81.05,-978.03,275.88,0.27,-0.57,-0.56,-142.68
30331,760.93,762.32,756.04,759.04,759.58,-86.91,-969.73,269.04,0.44,0.82,0.45,-141.67
30365,760.92,762.32,755.99,759.14,759.59,-85.45,-978.52,258.30,0.49,-1.85,-0.75,-144.43
30399,760.91,762.38,756.03,758.99,759.58,-84.47,-994.14,279.30,-0.73,-2.46,-1.03,-141.68
30434,760.92,762.39,756.08,759.07,759.62,-85.94,-977.54,271.00,-1.76,1.82,0.29,-141.75
30468,761.02,762.34,756.07,759.08,759.63,-74.71,-974.12,278.32,0.27,-2.24,1.53,-142.09
30501,760.98,762.34,756.02,759.07,759.60,-70.80,-984.86,275.88,-1.38,0.17,-1.27,-143.08
30534,760.93,762.35,756.05,759.08,759.60,-90.33,-978.03,269.53,0.23,0.44,-0.95,-142.44
30568,760.92,762.35,756.03,759.05,759.59,-78.12,-989.26,281.25,-0.71,0.10,-1.71,-142.25
30601,760.98,762.39,756.03,759.00,759.60,-71.29,-985.84,268.55,-3.67,0.11,0.78,-142.29
30636,760.99,762.41,756.06,759.00,759.62,-80.08,-972.17,268.07,-0.66,-0.56,-0.06,-141.78
30670,761.01,762.35,756.12,759.02,759.62,-73.24,-977.54,271.00,-0.08,-1.16,-0.80,-140.08
30703,760.96,762.41,756.04,759.04,759.61,-74.71,-984.37,272.46,-0.37,-0.95,-1.78,-142.52
30736,761.05,762.42,756.09,759.07,759.66,-97.66,-966.80,265.62,-1.46,1.04,-2.11,-142.08
30770,761.01,762.42,756.07,759.09,759.65,-82.03,-978.52,273.93,-1.76,2.53,-0.96,-142.97
30803,761.04,762.44,756.13,759.05,759.67,-90.33,-971.68,267.09,-0.81,-0.92,-1.53,-141.03
30838,760.95,762.45,756.16,759.07,759.66,-68.85,-982.42,271.97,-0.38,-0.09,-2.22,-140.41
30871,761.04,762.43,756.07,759.07,759.65,-93.75,-976.07,265.14,-1.06,0.15,2.21,-142.67
30904,760.98,762.39,756.04,759.01,759.60,-78.12,-978.03,274.41,-0.54,0.31,-0.34,-142.08
30937,761.06,762.37,756.11,759.06,759.65,-83.98,-970.70,264.16,-1.54,-0.69,-1.36,-140.98
30970,761.01,762.42,756.07,759.08,759.64,-80.08,-978.52,270.51,-1.49,0.77,-2.74,-142.82
31006,761.04,762.47,756.02,759.11,759.66,-82.52,-979.00,275.39,-0.86,1.12,0.27,-144.86
31039,761.07,762.49,756.07,759.11,759.69,-81.05,-967.77,272.95,-0.37,-2.34,0.23,-143.96
31072,761.07,762.44,756.01,759.11,759.66,-85.45,-987.30,274.90,-0.81,-1.37,0.34,-145.16
31106,761.15,762.51,756.12,759.17,759.74,-83.01,-972.66,270.02,-2.63,-0.57,0.26,-144.07
31139,761.17,762.57,756.09,759.14,759.74,-79.10,-976.07,267.09,-0.86,-1.44,0.50,-144.77
31172,761.08,762.49,756.06,759.12,759.69,-86.43,-976.56,269.04,-1.52,-0.69,-0.83,-144.36
31207,761.15,762.54,756.14,759.15,759.75,-77.64,-986.82,265.62,-0.66,-0.13,-0.81,-143.44
31241,761.14,762.47,756.07,759.06,759.69,-74.71,-979.98,269.53,0.02,-2.04,-1.20,-143.19
31274,761.14,762.52,756.09,759.07,759.70,-82.52,-977.54,272.95,-1.50,0.79,-1.18,-143.41
31308,761.07,762.56,756.15,759.11,759.72,-78.12,-990.23,271.48,0.42,-0.18,-1.24,-142.62
31341,761.17,762.45,756.08,759.08,759.70,-85.45,-980.96,275.39,0.44,-1.71,0.80,-143.35
31374,761.09,762.50,756.08,759.12,759.70,-82.52,-976.07,274.90,-0.89,1.24,2.57,-143.97
31410,761.08,762.50,756.14,759.15,759.72,-78.12,-990.23,265.14,-1.25,2.13,0.44,-142.88
31443,761.13,762.54,756.14,759.08,759.72,-81.54,-979.98,279.30,-0.70,2.60,-0.10,-142.38
31477,761.15,762.47,756.10,759.11,759.71,-78.61,-981.93,267.09,-0.47,-0.85,0.67,-143.23
31510,761.10,762.49,756.11,759.09,759.70,-85.45,-982.42,272.95,0.27,-2.12,0.69,-142.76
31543,761.20,762.47,756.14,759.11,759.73,-83.01,-984.86,258.79,-0.64,0.22,-1.17,-142.51
31577,761.14,762.53,756.08,759.12,759.72,-82.03,-990.23,261.72,1.30,2.37,-1.63,-144.41
31612,761.18,762.53,756.02,759.11,759.71,-83.50,-962.89,269.04,0.60,-0.26,-0.14,-145.64
31646,761.16,762.53,756.06,759.09,759.71,-88.87,-972.17,265.62,-0.61,0.53,1.19,-144.57
31679,761.21,762.53,756.11,759.11,759.74,-67.38,-978.03,284.18,-0.37,0.37,-0.75,-143.57
31712,761.21,762.51,756.13,759.04,759.72,-70.31,-970.21,275.39,0.65,1.17,-2.46,-142.04
31746,761.22,762.54,756.13,759.13,759.75,-78.61,-971.68,269.53,-1.13,2.06,-0.80,-143.55
31781,761.21,762.52,756.19,759.08,759.75,-80.57,-978.03,273.93,1.37,0.14,-0.51,-141.27
31814,761.25,762.55,756.14,759.16,759.78,-83.01,-960.45,271.00,-1.08,0.82,-0.95,-143.97
31848,761.18,762.55,756.15,759.14,759.75,-70.31,-980.96,268.07,0.48,0.53,-1.49,-143.31
31881,761.26,762.50,756.16,759.15,759.77,-70.31,-968.26,286.13,-1.98,2.34,0.79,-143.05
31914,761.27,762.55,756.12,759.11,759.76,-91.80,-979.98,271.00,-1.92,0.78,-0.19,-143.70
31948,761.26,762.50,756.16,759.10,759.75,-93.26,-987.79,266.60,-1.15,2.10,-2.74,-142.09
31983,761.25,762.47,756.05,759.10,759.72,-82.52,-980.96,260.74,-1.20,-0.47,-1.73,-144.74
32017,761.23,762.48,756.14,759.08,759.74,-83.98,-978.52,272.95,1.66,2.33,-0.72,-142.13
32050,761.30,762.53,756.15,759.10,759.77,-86.91,-971.19,266.60,-2.25,1.23,-2.09,-142.86
32084,761.20,762.51,756.15,759.14,759.75,-83.50,-974.61,284.18,0.39,-1.41,1.73,-142.92
32117,761.19,762.58,756.10,759.08,759.74,-75.20,-968.26,270.02,0.51,-1.29,-0.17,-143.74
32151,761.21,762.53,756.08,759.18,759.75,-79.10,-970.21,266.60,-0.04,0.31,-1.21,-145.52
32187,761.18,762.54,756.13,759.15,759.75,-87.40,-979.98,272.95,0.88,3.98,-0.48,-143.78
32220,761.16,762.50,756.12,759.10,759.72,-80.08,-980.96,273.93,-0.39,1.72,-0.29,-142.89
32253,761.22,762.57,756.14,759.16,759.77,-78.12,-979.00,261.72,-1.75,-0.95,0.04,-144.01
32287,761.19,762.62,756.09,759.14,759.76,-83.50,-988.77,271.48,1.69,0.63,-0.96,-145.22
32320,761.19,762.59,756.08,759.16,759.75,-79.59,-970.70,274.41,-2.45,-1.17,-0.69,-145.45
32353,761.18,762.51,756.19,759.15,759.76,-87.89,-975.59,263.18,1.39,0.60,-0.92,-142.10
32389,761.20,762.57,756.14,759.14,759.76,-84.96,-962.89,267.58,-0.37,1.37,-0.83,-143.79
32422,761.24,762.48,756.14,759.14,759.75,-95.70,-986.33,269.04,-0.57,1.11,-2.88,-143.22
32455,761.21,762.40,756.14,759.11,759.71,-68.85,-974.12,264.65,-0.37,0.11,1.17,-142.01
32489,761.17,762.54,756.10,759.12,759.73,-81.54,-984.37,280.27,0.34,0.48,0.15,-143.97
32522,761.13,762.50,756.08,759.13,759.71,-88.87,-981.45,261.23,-1.08,-1.02,-0.80,-144.31
32555,761.21,762.54,756.04,759.08,759.72,-82.03,-982.42,259.28,1.66,1.73,-0.78,-144.93
32591,761.21,762.53,756.08,759.10,759.73,-83.50,-988.28,266.60,-3.15,0.27,-0.61,-144.31
32624,761.21,762.50,756.08,759.19,759.75,-94.73,-979.00,264.65,-1.31,0.58,-0.43,-145.34
32657,761.24,762.54,756.06,759.16,759.75,-96.68,-988.28,270.51,0.69,-1.72,-0.78,-145.87
32690,761.20,762.53,756.11,759.17,759.75,-72.27,-979.00,271.48,-0.02,-0.37,-1.49,-144.45
32723,761.24,762.58,756.12,759.12,759.76,-83.01,-977.54,259.28,0.62,0.21,1.09,-144.03
32759,761.21,762.56,756.07,759.11,759.74,-77.15,-981.93,278.81,0.51,-0.15,1.73,-144.92
32792,761.23,762.51,756.07,759.12,759.73,-93.75,-995.61,280.76,0.94,2.10,-0.34,-144.78
32826,761.26,762.55,756.09,759.11,759.75,-85.94,-977.05,276.37,-0.91,0.83,0.98,-144.36
32859,761.20,762.56,756.15,759.13,759.76,-74.71,-981.45,255.37,-0.82,1.00,0.10,-143.28
32893,761.27,762.46,756.16,759.07,759.74,-77.15,-972.66,274.41,0.82,1.11,-1.80,-141.47
32926,761.24,762.57,756.12,759.09,759.75,-81.54,-987.79,265.14,-0.10,0.21,0.02,-143.60
32961,761.23,762.54,756.16,759.10,759.76,-82.03,-979.00,275.88,0.82,1.53,-0.48,-142.41
32995,761.26,762.52,756.10,759.12,759.75,-71.29,-978.52,278.81,0.52,2.89,-1.90,-144.22
33029,761.24,762.57,756.07,759.09,759.74,-75.20,-967.77,264.65,1.75,0.44,0.89,-144.92
33062,761.28,762.53,756.21,759.15,759.79,-77.15,-984.37,259.77,0.03,1.73,0.12,-142.06
33095,761.16,762.60,756.14,759.14,759.76,-71.78,-978.03,281.74,2.19,2.97,-1.59,-143.75
33129,761.19,762.50,756.12,759.09,759.72,-83.98,-984.86,271.48,-0.25,2.79,-1.87,-142.82
33165,761.19,762.52,756.12,759.17,759.75,-75.68,-984.37,284.18,-2.08,0.61,0.02,-144.30
33198,761.25,762.61,756.11,759.06,759.76,-89.84,-980.47,273.93,0.56,-0.39,-1.15,-143.61
33231,761.23,762.56,756.17,759.13,759.77,-67.87,-975.59,277.34,-2.44,-1.57,0.21,-142.84
33265,761.18,762.51,756.12,759.15,759.74,-83.98,-975.10,271.48,-0.82,2.49,-2.12,-143.81
33298,761.26,762.54,756.15,759.15,759.77,-83.01,-986.33,273.93,-1.48,0.92,0.77,-143.63
33332,761.26,762.57,756.11,759.14,759.77,-84.47,-995.12,270.02,-0.89,0.55,1.24,-144.72
33367,761.27,762.54,756.14,759.16,759.78,-76.66,-988.28,266.11,0.34,1.03,1.12,-143.99
33400,761.22,762.56,756.13,759.20,759.78,-73.73,-968.26,262.21,-0.24,-0.72,-1.36,-144.79
33434,761.32,762.52,756.09,759.20,759.78,-78.61,-979.49,276.37,-0.62,2.18,-0.48,-145.87
33467,761.22,762.49,756.10,759.17,759.74,-83.01,-987.79,260.25,1.10,0.85,-0.55,-144.67
33500,761.25,762.59,756.14,759.16,759.79,-88.38,-994.63,267.09,-0.48,1.34,1.45,-144.23
33534,761.27,762.53,756.14,759.18,759.78,-78.12,-978.03,269.04,-0.64,1.24,-2.77,-144.11
33569,761.24,762.53,756.16,759.13,759.77,-71.78,-977.05,271.00,-1.41,-0.33,-2.59,-142.75
33603,761.32,762.56,756.09,759.17,759.79,-71.29,-991.21,267.58,-0.12,-0.85,1.00,-145.77
33636,761.30,762.62,756.14,759.25,759.83,-83.50,-978.03,274.41,-0.84,1.27,-0.18,-145.92
33670,761.23,762.52,756.17,759.25,759.79,-82.03,-965.33,276.86,-0.57,-1.71,0.26,-144.21
33703,761.24,762.60,756.12,759.19,759.79,-82.03,-974.12,276.37,-0.40,2.09,-2.06,-145.39
33739,761.20,762.52,756.18,759.18,759.77,-80.08,-985.84,271.48,-0.31,1.13,-1.30,-142.81
33772,761.29,762.58,756.21,759.17,759.82,-92.77,-966.80,268.55,-1.96,-0.37,0.61,-142.76
33805,761.29,762.60,756.17,759.14,759.80,-78.12,-975.10,257.32,0.39,0.16,-1.42,-143.43
33839,761.29,762.61,756.09,759.17,759.79,-84.96,-977.54,270.02,0.96,-0.15,0.76,-145.92
33872,761.21,762.52,756.08,759.19,759.75,-83.50,-976.56,274.41,-1.07,3.02,2.40,-145.63
33905,761.22,762.52,756.12,759.16,759.76,-90.33,-973.63,274.41,0.43,0.83,-0.55,-144.17
33942,761.30,762.61,756.07,759.20,759.80,-80.08,-976.07,266.60,1.48,-2.48,-0.76,-147.06
33975,761.21,762.59,756.15,759.28,759.81,-80.08,-982.91,287.11,-1.48,-0.42,0.03,-145.53
34008,761.24,762.62,756.09,759.21,759.79,-91.80,-979.00,272.95,1.56,-1.79,0.44,-146.50
34041,761.22,762.51,756.08,759.21,759.76,-81.54,-983.89,279.30,1.59,-0.47,-1.44,-145.69
34074,761.21,762.57,756.15,759.18,759.78,-76.17,-982.91,273.44,1.37,-0.16,-0.66,-143.93
34107,761.12,762.61,756.12,759.15,759.75,-79.10,-980.47,277.34,2.51,1.47,-1.18,-144.28
34143,761.15,762.55,756.11,759.26,759.77,-84.96,-964.84,283.69,0.02,0.10,-1.54,-145.71
34176,761.08,762.56,756.14,759.24,759.76,-71.29,-968.75,292.48,0.27,-2.21,1.53,-144.69
34209,761.19,762.50,756.19,759.22,759.77,-88.87,-979.49,284.18,-2.36,-0.83,0.12,-143.10
34242,761.16,762.52,756.14,759.21,759.76,-83.01,-974.61,276.86,-1.30,1.52,-1.38,-144.09
34275,761.16,762.49,756.10,759.16,759.73,-85.45,-982.42,273.93,-1.47,-0.36,1.94,-144.11
34308,761.14,762.45,756.17,759.24,759.75,-83.98,-979.00,265.14,-1.93,0.50,0.37,-143.30
34343,761.17,762.49,756.16,759.12,759.73,-82.52,-976.56,276.37,0.84,0.20,0.39,-141.99
34377,761.10,762.39,756.13,759.14,759.69,-68.85,-980.47,275.88,0.02,1.34,-0.68,-142.09
34410,761.13,762.33,756.10,759.15,759.68,-80.57,-986.33,271.97,-0.76,-1.95,0.92,-142.58
34443,761.13,762.38,756.15,759.12,759.70,-83.98,-969.73,280.76,0.91,1.95,0.91,-141.32
34476,761.11,762.44,756.19,759.12,759.72,-89.36,-990.23,277.34,0.11,-1.88,-3.80,-140.74
34512,761.18,762.41,756.15,759.13,759.72,-87.40,-982.91,283.20,-0.50,-0.86,-1.19,-141.96
34545,761.15,762.40,756.10,759.11,759.69,-82.03,-970.70,280.27,-0.34,3.81,-0.21,-142.56
34578,761.08,762.42,756.19,759.18,759.72,-79.10,-979.49,271.00,-0.21,1.79,0.48,-141.42
34612,761.18,762.48,756.10,759.18,759.74,-74.71,-981.93,276.37,1.12,1.54,-0.34,-144.54
34645,761.13,762.39,756.24,759.19,759.74,-83.01,-984.37,271.00,0.16,0.65,-1.91,-140.27
34678,761.15,762.42,756.08,759.19,759.71,-83.01,-977.05,283.20,-0.81,0.15,-1.80,-144.51
34714,761.13,762.48,756.11,759.17,759.72,-86.43,-981.93,280.76,-0.97,0.24,-1.83,-143.89
34747,761.12,762.47,756.16,759.25,759.75,-88.38,-981.93,274.41,-1.28,0.25,-1.48,-143.74
34780,761.16,762.38,756.11,759.22,759.72,-75.20,-976.07,275.88,1.95,-0.95,-1.28,-143.86
34814,761.16,762.39,756.13,759.12,759.70,-74.22,-980.47,275.88,0.36,-0.27,0.77,-142.23
34847,761.12,762.42,756.11,759.17,759.70,-98.14,-974.61,282.23,-0.76,1.13,0.36,-143.33
34880,761.17,762.39,756.11,759.15,759.70,-80.57,-983.40,272.46,-2.23,2.49,-1.76,-143.11
34916,761.12,762.44,756.17,759.19,759.73,-80.57,-991.70,286.62,-0.06,-1.27,-1.52,-142.48
34949,761.14,762.43,756.18,759.21,759.74,-83.01,-969.73,280.27,0.79,1.34,1.21,-142.44
34982,761.18,762.46,756.09,759.19,759.73,-86.91,-995.61,277.83,-0.53,-1.28,0.20,-144.64
35015,761.05,762.40,756.11,759.19,759.69,-88.38,-982.42,276.37,0.45,1.48,-2.08,-143.36
35049,761.15,762.37,756.13,759.19,759.71,-97.66,-973.14,274.41,0.37,-0.45,-0.11,-142.81
35082,761.15,762.42,756.14,759.10,759.70,-84.96,-970.70,274.90,0.76,-1.09,0.38,-141.69
35117,761.13,762.32,756.11,759.28,759.71,-83.98,-984.86,276.37,0.56,0.64,-0.61,-144.28
35150,761.12,762.35,756.12,759.18,759.69,-74.71,-975.10,269.04,-0.25,0.49,-0.45,-142.72
35184,761.14,762.43,756.09,759.20,759.71,-83.98,-974.12,274.90,-0.05,0.92,-0.81,-144.40
35217,761.12,762.45,756.06,759.14,759.69,-89.36,-971.68,272.46,-2.42,2.63,-1.02,-144.53
35250,761.13,762.45,756.10,759.14,759.71,-82.03,-974.61,280.76,-2.11,2.08,0.22,-143.49
35283,761.16,762.47,756.14,759.15,759.73,-91.80,-980.96,282.23,0.32,0.73,-2.51,-142.93
35319,761.12,762.33,756.10,759.19,759.68,-81.05,-973.14,279.79,-0.96,-1.15,-1.00,-143.28
35352,761.14,762.48,756.13,759.24,759.75,-90.33,-972.66,281.25,-2.56,2.25,0.66,-144.40
35385,761.11,762.39,756.11,759.24,759.71,-88.38,-972.17,272.95,0.58,-2.97,0.61,-144.19
35419,761.06,762.43,756.10,759.24,759.71,-86.43,-973.63,272.95,-1.21,1.13,-0.13,-144.50
35452,761.11,762.43,756.16,759.30,759.75,-91.80,-979.98,289.06,-1.79,-1.49,-1.15,-144.02
35487,761.12,762.47,756.17,759.22,759.74,-72.27,-980.47,274.41,1.09,3.82,-0.89,-142.96
35520,761.17,762.44,756.13,759.22,759.74,-75.20,-974.12,271.97,-1.63,1.79,-1.38,-143.99
35553,761.09,762.48,756.14,759.15,759.72,-80.08,-973.14,295.41,-0.26,-0.45,-1.24,-142.72
35586,761.13,762.37,756.08,759.16,759.69,-79.59,-976.07,277.83,-0.66,0.66,0.72,-143.53
35619,761.14,762.48,756.17,759.19,759.74,-81.05,-980.47,285.64,0.31,-0.47,-0.11,-142.91
35653,761.23,762.47,756.06,759.19,759.74,-91.80,-989.26,277.34,1.46,-1.24,-1.85,-145.61
35689,761.14,762.42,756.05,759.22,759.71,-89.84,-975.10,272.46,1.21,0.15,-1.61,-145.82
35722,761.14,762.47,756.11,759.17,759.72,-83.01,-977.54,278.81,-1.73,-0.08,-2.43,-143.90
35755,761.13,762.47,756.10,759.22,759.73,-73.24,-970.70,267.58,0.76,-0.08,-1.71,-144.87
35788,761.17,762.47,756.14,759.23,759.75,-85.94,-978.03,268.55,-1.77,-1.08,-3.83,-144.00
35820,761.12,762.49,756.14,759.23,759.74,-69.82,-979.00,278.81,-0.31,1.76,-2.17,-144.17
35854,761.18,762.45,756.14,759.19,759.74,-90.82,-978.52,272.95,-1.27,-0.17,-1.09,-143.52
35889,761.22,762.53,756.13,759.15,759.76,-77.15,-980.47,268.55,-0.70,0.25,-1.11,-143.72
35922,761.24,762.43,756.17,759.15,759.75,-70.31,-966.80,264.65,0.24,2.11,-1.05,-142.15
35955,761.16,762.49,756.15,759.14,759.73,-84.47,-967.29,266.60,-0.27,-1.67,-2.98,-142.76
35988,761.16,762.48,756.12,759.21,759.74,-77.64,-972.66,281.25,-0.60,0.51,-0.71,-144.47
36022,761.14,762.52,756.13,759.11,759.72,-82.52,-979.49,270.02,-0.21,-0.21,0.97,-142.99
36055,761.13,762.49,756.19,759.22,759.76,-88.38,-986.82,281.25,-1.88,-2.06,-2.24,-142.59
36090,761.20,762.54,756.10,759.14,759.75,-76.17,-981.45,270.02,1.40,-1.50,-0.98,-144.34
36123,761.21,762.51,756.02,759.19,759.73,-65.92,-977.54,284.18,-2.06,-1.23,-1.22,-146.97
36157,761.14,762.51,756.10,759.11,759.71,-72.75,-976.56,280.76,-2.33,-0.45,-0.03,-143.53
36190,761.16,762.51,756.13,759.18,759.75,-74.71,-984.86,274.41,0.36,-1.40,-0.52,-143.93
36223,761.21,762.53,756.12,759.16,759.76,-82.52,-975.59,280.27,0.54,1.50,1.32,-144.30
36258,761.14,762.47,756.15,759.16,759.73,-89.84,-976.56,271.48,0.26,1.68,-0.96,-142.79
36291,761.27,762.49,756.14,759.13,759.76,-87.89,-973.14,276.86,0.31,-0.32,0.70,-143.06
36325,761.22,762.50,756.14,759.16,759.75,-84.96,-976.56,282.23,-0.26,-0.08,-1.07,-143.35
36358,761.28,762.45,756.15,759.22,759.77,-73.24,-995.12,273.44,0.22,-1.00,-4.11,-143.98
36391,761.19,762.47,756.13,759.24,759.76,-77.15,-984.37,271.48,1.62,1.91,-0.40,-144.46
36424,761.23,762.51,756.18,759.24,759.79,-78.12,-986.82,270.02,-0.11,0.39,-0.56,-143.88
36460,761.21,762.54,756.15,759.24,759.78,-72.27,-971.68,282.23,0.01,1.85,-0.68,-144.55
36493,761.23,762.53,756.15,759.23,759.78,-76.66,-974.61,276.37,0.31,0.29,-2.07,-144.47
36526,761.25,762.53,756.13,759.19,759.78,-74.71,-976.56,277.83,-0.82,0.57,0.01,-144.48
36560,761.17,762.49,756.14,759.25,759.76,-80.57,-977.05,277.83,1.26,1.72,-1.86,-144.53
36593,761.14,762.52,756.17,759.22,759.76,-83.01,-978.52,285.64,-1.62,-0.05,-2.66,-143.62
36627,761.11,762.60,756.17,759.21,759.77,-89.84,-990.72,283.69,-0.88,0.73,1.29,-144.02
36662,761.15,762.54,756.20,759.22,759.78,-89.36,-983.89,271.97,-0.04,-0.01,-1.56,-142.96
36695,761.19,762.56,756.16,759.25,759.79,-83.50,-975.10,281.74,-0.38,0.82,-2.27,-144.64
36729,761.23,762.49,756.20,759.20,759.78,-71.29,-977.54,266.60,-2.19,2.00,-1.05,-142.57
36762,761.18,762.50,756.20,759.25,759.78,-79.10,-969.73,275.39,-0.30,0.24,0.83,-143.38
36795,761.19,762.49,756.16,759.23,759.76,-89.36,-970.21,287.60,-0.75,-1.51,-0.88,-143.84
36828,761.28,762.53,756.12,759.21,759.78,-76.17,-982.91,273.44,-0.20,-3.27,-1.57,-144.97
36864,761.28,762.51,756.20,759.25,759.81,-76.17,-985.35,275.39,-0.09,0.39,-0.79,-143.66
36897,761.26,762.54,756.22,759.14,759.79,-74.22,-982.42,273.93,-1.26,-1.47,-0.55,-141.67
36931,761.27,762.59,756.17,759.19,759.81,-80.08,-980.96,273.44,-1.19,1.08,-0.31,-144.08
36964,761.23,762.55,756.17,759.22,759.79,-82.52,-979.98,278.32,-2.06,1.24,-3.31,-143.93
36998,761.25,762.58,756.15,759.28,759.81,-79.10,-971.68,287.60,-0.06,0.17,-0.18,-145.74
37033,761.25,762.55,756.11,759.22,759.78,-79.10,-983.89,272.95,0.21,-1.24,2.05,-145.61
37066,761.29,762.51,756.14,759.15,759.77,-68.85,-978.03,278.32,-0.92,-1.32,-2.05,-143.48
37099,761.28,762.53,756.21,759.11,759.78,-82.52,-974.61,290.04,-0.97,0.40,0.61,-141.50
37132,761.26,762.58,756.16,759.18,759.79,-71.78,-985.35,280.76,-1.45,-1.71,1.08,-144.08
37165,761.22,762.54,756.17,759.21,759.79,-77.15,-972.17,277.83,-0.23,-0.05,-0.49,-143.82
37198,761.32,762.53,756.16,759.11,759.78,-76.17,-979.98,276.86,-1.74,2.15,1.18,-142.83
37234,761.23,762.49,756.20,759.15,759.77,-86.43,-976.56,276.37,1.94,0.33,-2.94,-141.85
37267,761.23,762.48,756.13,759.17,759.75,-83.50,-977.05,282.71,-0.73,-0.50,-0.34,-143.72
37300,761.25,762.49,756.19,759.19,759.78,-83.50,-973.14,290.04,0.39,2.21,0.63,-142.81
37333,761.25,762.45,756.10,759.18,759.75,-79.59,-974.12,273.44,-0.68,-0.45,-1.15,-144.53
37366,761.24,762.51,756.17,759.19,759.78,-72.27,-986.33,272.95,-0.39,0.79,-0.02,-143.46
37399,761.24,762.53,756.16,759.13,759.77,-78.61,-969.24,276.86,0.91,0.63,-0.51,-142.96
37435,761.24,762.55,756.13,759.21,759.78,-84.47,-982.91,261.23,-0.45,0.63,1.95,-144.92
37469,761.34,762.55,756.11,759.25,759.81,-104.98,-979.49,267.58,-2.34,0.76,-2.50,-146.36
37502,761.26,762.58,756.16,759.16,759.79,-73.24,-979.98,284.67,-0.40,0.72,-1.32,-143.81
37535,761.30,762.65,756.16,759.30,759.85,-79.10,-970.21,276.37,-0.79,1.10,-1.87,-146.56
37569,761.28,762.60,756.15,759.17,759.80,-77.15,-972.17,276.37,-1.84,2.71,-1.97,-144.33
37602,761.35,762.64,756.11,759.24,759.83,-80.57,-970.70,270.51,-1.75,-0.13,0.94,-146.88
37638,761.40,762.62,756.10,759.21,759.83,-78.61,-991.70,279.30,-1.08,-0.06,-1.40,-146.98
37672,761.34,762.54,756.19,759.26,759.83,-93.26,-974.12,275.39,-0.79,0.59,-1.53,-144.32
37705,761.38,762.65,756.20,759.25,759.87,-73.73,-991.70,275.39,2.30,-1.30,0.08,-145.00
37738,761.37,762.60,756.12,759.23,759.83,-85.45,-984.86,273.44,0.33,-2.53,-1.51,-146.38
37772,761.41,762.64,756.14,759.26,759.86,-79.10,-978.03,278.81,0.87,-0.02,1.66,-146.65
37808,761.45,762.69,756.15,759.25,759.88,-84.47,-970.70,276.37,-0.04,1.21,0.96,-146.68
37841,761.54,762.62,756.29,759.25,759.92,-77.15,-973.63,280.76,0.73,-0.24,-1.40,-143.13
37874,761.52,762.61,756.23,759.21,759.89,-82.03,-986.33,288.57,1.06,1.47,0.41,-143.80
37908,761.53,762.70,756.18,759.18,759.90,-71.29,-974.61,274.90,2.42,1.94,-0.53,-145.55
37941,761.49,762.64,756.19,759.22,759.88,-76.66,-977.54,276.37,0.18,1.37,-1.08,-145.10
37975,761.67,762.64,756.21,759.35,759.97,-89.36,-989.26,280.76,-0.38,1.50,-4.18,-147.15
38011,761.60,762.71,756.13,759.28,759.93,-82.03,-993.65,274.41,-1.20,-0.09,-1.69,-148.44
38044,761.67,762.75,756.17,759.30,759.97,-77.64,-980.47,286.13,-1.21,-0.73,-0.08,-148.40
38077,761.61,762.69,756.14,759.37,759.95,-73.73,-983.40,289.06,-1.08,2.10,-0.76,-149.40
38111,761.66,762.78,756.18,759.32,759.99,-77.15,-983.40,278.81,-1.17,0.71,0.63,-148.74
38144,761.63,762.73,756.25,759.29,759.97,-71.29,-986.33,283.20,1.54,2.53,-1.67,-145.81
38177,761.71,762.77,756.10,759.29,759.97,-74.22,-963.38,278.81,-0.02,-2.51,0.01,-150.15
38213,761.70,762.73,756.16,759.27,759.97,-79.10,-974.12,271.97,0.19,-1.73,-4.29,-148.19
38247,761.69,762.81,756.18,759.28,759.99,-81.05,-991.70,279.30,-0.70,-0.74,0.69,-148.33
38280,761.66,762.75,756.18,759.31,759.97,-83.98,-974.61,275.39,0.90,0.59,-1.69,-148.23
38313,761.71,762.81,756.20,759.24,759.99,-75.20,-985.35,280.27,-0.34,3.83,-0.50,-147.30
38347,761.63,762.78,756.19,759.29,759.97,-83.98,-992.68,274.41,-0.21,-0.10,-0.79,-147.91
38381,761.65,762.79,756.13,759.29,759.96,-80.57,-972.17,286.62,-0.72,2.37,-0.79,-149.57
38421,761.75,762.74,756.17,759.32,759.99,-79.10,-976.07,272.95,0.06,1.34,-1.01,-148.81
38455,761.74,762.79,756.14,759.30,759.99,-86.43,-994.63,285.16,-0.03,1.50,-1.63,-149.55
38488,761.77,762.82,756.13,759.26,759.99,-83.50,-972.17,269.53,-0.40,2.64,-0.99,-149.54
38521,761.78,762.82,756.15,759.26,760.00,-72.75,-975.10,274.90,-2.15,-0.09,-1.02,-149.03
38554,761.78,762.80,756.21,759.26,760.01,-74.22,-981.45,285.64,-0.56,-0.06,0.65,-147.54
38587,761.80,762.78,756.13,759.33,760.01,-87.40,-975.59,280.76,1.12,-1.16,-0.09,-150.56
38623,761.89,762.92,756.16,759.32,760.07,-71.29,-974.12,284.67,-0.76,2.70,0.71,-150.99
38657,761.83,762.88,756.15,759.33,760.05,-79.10,-975.59,275.88,0.82,-0.34,-0.50,-150.99
38690,761.79,762.87,756.24,759.33,760.06,-87.89,-964.36,280.27,-0.79,1.44,1.11,-148.41
38723,761.84,762.83,756.16,759.26,760.02,-68.36,-974.12,268.55,-1.96,-0.27,0.40,-149.35
38756,761.87,762.84,756.15,759.38,760.06,-84.96,-987.30,278.32,-1.24,0.73,0.96,-151.37
38792,761.94,762.86,756.11,759.30,760.05,-76.66,-976.07,269.04,-0.24,-2.46,0.01,-151.79
38825,761.89,762.83,756.13,759.36,760.05,-81.54,-971.19,273.93,-0.89,1.53,-0.04,-151.57
38859,761.94,762.90,756.25,759.37,760.12,-80.08,-986.82,284.18,-0.96,0.33,-0.50,-149.65
38892,762.03,762.93,756.22,759.33,760.13,-80.57,-978.52,275.88,1.75,0.00,0.12,-150.20
38925,761.99,762.93,756.24,759.32,760.12,-80.08,-975.59,298.83,-0.23,-0.08,-1.34,-149.35
38958,761.97,762.98,756.16,759.29,760.10,-82.52,-979.49,258.30,-0.12,1.40,-1.72,-151.48
38994,761.94,762.95,756.16,759.34,760.10,-77.15,-986.82,275.88,-0.34,-0.02,0.28,-151.68
39028,761.93,763.03,756.12,759.36,760.11,-84.47,-977.05,283.20,0.03,-1.57,-1.24,-153.49
39061,762.01,762.96,756.19,759.31,760.12,-83.98,-999.51,273.44,2.89,-5.75,0.35,-150.93
39095,761.96,763.02,756.14,759.33,760.11,-79.10,-980.96,281.74,-0.61,-0.13,-0.57,-152.69
39128,761.91,762.92,756.14,759.34,760.08,-72.75,-977.05,281.25,0.62,0.82,-1.00,-151.66
39162,761.95,762.97,756.16,759.38,760.12,-67.38,-980.47,279.79,-0.97,-0.04,-2.02,-152.66
39198,761.96,762.94,756.15,759.35,760.10,-79.10,-981.93,279.79,-2.16,3.73,-0.61,-152.11
39232,761.91,762.94,756.14,759.46,760.11,-78.12,-980.96,277.83,-1.55,-1.46,1.02,-153.72
39265,761.97,762.96,756.16,759.42,760.13,-81.54,-987.79,274.41,-1.24,3.24,0.97,-153.14
39299,761.93,763.04,756.13,759.39,760.12,-75.68,-976.56,284.67,-1.05,0.61,-1.92,-153.89
39333,761.94,763.03,756.18,759.35,760.13,-74.22,-982.42,280.76,-0.63,-1.10,-0.91,-151.88
39366,761.96,763.08,756.19,759.35,760.14,-69.34,-973.63,279.30,0.31,1.32,-1.01,-152.27
39402,761.90,763.04,756.28,759.41,760.16,-81.54,-977.05,281.74,0.24,2.98,-0.85,-150.37
39435,761.89,762.97,756.17,759.43,760.11,-76.66,-983.40,285.16,0.76,0.11,-1.62,-152.75
39469,761.98,762.97,756.15,759.35,760.11,-94.73,-973.63,271.97,0.44,-3.37,1.66,-152.36
39502,762.00,763.00,756.20,759.44,760.16,-77.15,-967.77,275.39,0.34,0.56,-2.72,-152.79
39536,761.90,763.03,756.17,759.37,760.12,-86.91,-972.66,283.69,0.42,-1.44,0.68,-152.30
39572,761.86,763.00,756.17,759.34,760.09,-82.03,-985.84,279.30,0.61,0.53,-0.47,-151.53
39606,761.84,763.00,756.17,759.32,760.08,-84.47,-971.68,283.20,-0.99,-1.18,-0.92,-151.33
39639,761.95,763.00,756.18,759.36,760.12,-81.05,-972.17,280.27,0.16,1.28,-0.23,-151.93
39673,761.93,762.98,756.15,759.34,760.10,-74.71,-970.70,276.37,-0.98,0.69,-0.56,-152.18
39706,761.84,762.95,756.18,759.35,760.08,-81.54,-977.05,296.87,0.47,-2.29,-0.88,-151.00
39740,761.82,762.94,756.18,759.32,760.06,-78.61,-960.45,289.55,0.53,0.94,-1.94,-150.48
39776,761.82,762.87,756.16,759.34,760.05,-86.43,-975.59,277.83,0.67,-1.53,-0.71,-150.52
39809,761.75,762.84,756.23,759.25,760.02,-73.24,-977.05,287.60,1.81,2.70,-0.67,-146.93
39843,761.77,762.87,756.26,759.27,760.04,-83.01,-964.36,282.71,0.83,1.53,1.83,-147.11
39876,761.72,762.88,756.17,759.26,760.01,-75.68,-973.63,285.64,-0.84,-3.37,0.86,-149.03
39910,761.77,762.86,756.23,759.32,760.04,-84.47,-974.61,290.04,-0.86,-1.05,0.23,-148.30
39943,761.70,762.80,756.14,759.38,760.01,-85.45,-974.61,281.74,0.27,-0.10,-0.94,-150.64
39979,761.70,762.83,756.21,759.32,760.02,-86.43,-977.05,286.62,-0.93,-1.14,1.19,-148.42
40013,761.67,762.81,756.18,759.30,759.99,-75.68,-974.12,283.20,0.09,-0.76,-1.19,-148.41
40046,761.62,762.78,756.21,759.27,759.97,-80.08,-980.96,283.20,2.63,2.58,-2.31,-147.05
40080,761.70,762.77,756.17,759.30,759.99,-80.57,-969.24,282.23,1.71,1.18,-1.23,-148.63
40114,761.70,762.76,756.22,759.31,760.00,-74.22,-984.86,270.02,-1.89,1.33,-1.02,-147.43
40148,761.70,762.81,756.15,759.31,759.99,-87.89,-981.93,292.48,-0.89,-2.02,-1.15,-149.69
40184,761.70,762.77,756.14,759.22,759.96,-90.82,-979.00,280.76,-3.32,1.31,-0.98,-148.03
40217,761.65,762.83,756.16,759.37,760.00,-77.15,-991.21,279.30,0.33,0.34,-0.21,-150.07
40251,761.69,762.81,756.16,759.27,759.98,-89.36,-970.70,281.74,0.00,-0.14,0.89,-148.63
40284,761.71,762.78,756.15,759.35,760.00,-83.01,-982.91,287.11,-1.05,-1.50,0.60,-150.00
40317,761.66,762.81,756.17,759.38,760.01,-80.08,-982.91,278.81,-0.69,0.23,-1.27,-149.99
40354,761.58,762.77,756.11,759.37,759.96,-77.15,-963.38,275.88,1.74,-0.69,-0.96,-150.65
40387,761.62,762.75,756.12,759.25,759.93,-60.55,-978.52,287.11,0.04,0.51,0.40,-148.56
40420,761.61,762.76,756.13,759.33,759.96,-68.85,-979.00,292.48,-0.38,-1.26,-0.56,-149.59
40454,761.62,762.81,756.14,759.46,760.01,-83.98,-977.05,270.51,-0.02,-1.11,-0.33,-151.82
40487,761.63,762.79,756.14,759.27,759.96,-82.03,-979.00,281.25,-2.27,-0.07,-0.66,-148.89
40520,761.56,762.73,756.24,759.30,759.96,-92.29,-977.05,287.60,-0.73,4.02,0.27,-146.08
40556,761.64,762.80,756.20,759.36,760.00,-78.61,-976.07,289.55,-0.07,-0.79,-2.33,-148.68
40590,761.64,762.80,756.25,759.42,760.03,-74.71,-979.00,286.62,0.92,1.61,-1.34,-148.29
40624,761.61,762.76,756.16,759.34,759.97,-74.22,-986.82,279.30,1.00,0.25,-1.13,-148.96
40657,761.62,762.72,756.15,759.36,759.96,-83.01,-974.61,286.13,0.53,-0.17,0.20,-149.32
40691,761.62,762.83,756.15,759.33,759.98,-84.96,-966.80,281.74,1.34,0.83,-1.29,-149.64
40724,761.65,762.77,756.21,759.42,760.01,-65.43,-973.14,283.69,-0.38,-1.27,0.12,-149.29
40760,761.73,762.78,756.18,759.39,760.02,-73.24,-969.73,285.16,-0.34,3.28,-1.97,-149.94
40794,761.67,762.74,756.12,759.45,760.00,-81.54,-968.75,299.32,1.10,-1.54,-1.78,-151.72
40828,761.68,762.86,756.21,759.44,760.05,-87.40,-983.40,290.04,0.94,-0.66,-0.15,-150.34
40861,761.71,762.90,756.22,759.42,760.06,-72.27,-972.17,287.11,-0.52,0.37,-0.56,-150.12
40895,761.72,762.89,756.24,759.49,760.08,-74.22,-968.26,294.43,-1.24,0.54,-0.63,-150.74
40928,761.76,762.86,756.26,759.39,760.07,-73.73,-979.00,297.36,-3.17,0.53,0.15,-148.53
40965,761.82,762.94,756.21,759.38,760.09,-71.29,-968.75,291.50,-0.82,-0.64,-2.09,-150.60
40999,761.86,762.84,756.19,759.44,760.08,-77.64,-979.00,288.09,-1.18,0.00,1.05,-151.32
41032,761.82,762.99,756.15,759.35,760.08,-79.59,-969.24,283.69,-1.33,1.70,0.27,-151.92
41066,761.89,762.98,756.20,759.41,760.12,-78.61,-973.63,271.48,-0.77,2.33,-0.76,-151.79
41100,761.86,762.89,756.16,759.35,760.07,-72.75,-981.45,281.25,0.92,-0.72,0.33,-151.24
41133,761.83,762.99,756.19,759.40,760.11,-80.57,-991.21,285.64,-1.40,-1.47,-2.62,-151.88
41169,761.88,762.89,756.15,759.37,760.07,-78.12,-981.93,290.04,-1.05,0.25,-0.03,-151.71
41203,761.85,762.86,756.22,759.39,760.08,-75.68,-974.12,290.53,0.07,0.92,0.34,-149.78
41237,761.85,762.89,756.26,759.35,760.09,-78.12,-977.05,286.13,-0.60,-1.91,0.50,-148.76
41270,761.81,762.88,756.24,759.38,760.08,-79.10,-965.82,283.69,-0.99,1.13,-0.12,-149.18
41304,761.82,762.88,756.14,759.27,760.03,-85.94,-976.56,291.50,-1.88,-1.24,1.47,-150.05
41340,761.82,762.83,756.20,759.32,760.04,-91.80,-963.87,279.79,-0.24,-0.32,-0.04,-149.02
41374,761.74,762.85,756.18,759.29,760.02,-76.66,-971.68,284.67,-1.48,0.76,-0.60,-148.94
41407,761.76,762.81,756.18,759.23,760.00,-69.34,-980.47,281.25,-0.15,2.54,-1.71,-147.98
41441,761.81,762.79,756.08,759.31,760.00,-88.38,-971.68,282.23,-2.64,2.52,0.35,-151.55
41475,761.79,762.78,756.22,759.33,760.03,-92.77,-969.24,271.48,-2.58,-0.21,-0.63,-148.13
41508,761.81,762.83,756.21,759.35,760.05,-81.54,-980.47,289.55,-0.24,-0.20,0.18,-149.14
41545,761.76,762.88,756.18,759.29,760.03,-77.64,-983.89,286.13,1.89,-0.92,1.00,-149.31
41578,761.79,762.84,756.27,759.27,760.04,-80.57,-972.17,274.90,-0.11,1.76,0.35,-146.62
41612,761.81,762.83,756.18,759.25,760.02,-72.75,-980.96,284.67,-0.28,1.27,0.93,-148.47
41646,761.80,762.82,756.21,759.33,760.04,-78.61,-975.10,285.64,-2.06,3.28,3.02,-148.82
41679,761.87,762.81,756.22,759.36,760.07,-89.36,-972.66,291.02,-1.22,0.50,-1.76,-149.20
41713,761.85,762.79,756.11,759.28,760.00,-87.89,-975.10,281.74,-0.11,0.33,-1.14,-150.40
41749,761.84,762.84,756.19,759.28,760.04,-66.41,-976.07,271.48,-0.63,-0.53,-0.18,-148.97
41782,761.84,762.82,756.23,759.36,760.06,-77.15,-985.84,273.44,-1.93,2.69,2.75,-148.76
41815,761.83,762.83,756.20,759.33,760.05,-79.10,-971.19,279.79,0.05,-2.84,-1.27,-149.13
41849,761.90,762.82,756.15,759.32,760.05,-84.47,-982.42,295.90,1.26,0.50,-0.84,-150.53
41882,761.85,762.80,756.22,759.28,760.04,-68.85,-967.29,277.83,-0.81,-0.71,-0.80,-147.81
41916,761.89,762.85,756.21,759.31,760.06,-67.87,-987.79,270.51,-1.12,-2.04,-1.75,-148.96
41952,761.89,762.82,756.18,759.40,760.07,-75.68,-975.59,276.37,2.03,0.10,-2.10,-150.86
41986,761.88,762.81,756.17,759.30,760.04,-77.15,-973.63,293.95,-0.63,2.16,0.11,-149.51
42019,761.87,762.86,756.18,759.33,760.06,-74.71,-975.59,284.18,0.69,0.02,-3.92,-150.19
42052,761.93,762.85,756.21,759.33,760.08,-73.24,-975.10,286.13,0.06,-2.73,-1.85,-149.46
42086,761.87,762.84,756.20,759.23,760.03,-95.70,-981.45,279.79,-2.02,1.56,-2.30,-147.90
42122,761.90,762.87,756.23,759.30,760.07,-75.20,-981.93,268.07,-1.28,1.66,1.15,-148.60
42155,761.85,762.83,756.19,759.21,760.02,-81.05,-994.63,273.93,-0.46,0.59,2.18,-147.71
42189,761.91,762.79,756.27,759.35,760.08,-92.77,-975.10,291.99,-0.21,1.19,-0.47,-147.77
42223,761.93,762.96,756.23,759.24,760.09,-81.54,-979.00,282.71,-0.05,-0.31,0.95,-148.63
42256,761.95,762.87,756.16,759.35,760.08,-80.57,-973.14,291.99,-0.74,1.27,0.40,-151.18
42290,761.94,762.89,756.17,759.36,760.09,-76.17,-980.47,286.62,-2.59,1.18,0.41,-151.29
42326,761.93,762.91,756.18,759.24,760.07,-83.01,-964.84,289.06,-1.02,1.79,-1.12,-149.30
42360,761.97,762.93,756.20,759.28,760.10,-85.94,-968.26,273.44,0.34,0.66,0.83,-149.75
42393,761.93,762.90,756.15,759.28,760.07,-69.34,-976.07,285.16,0.34,-1.81,-1.18,-150.74
42427,761.92,762.85,756.17,759.36,760.07,-78.12,-964.36,278.32,-1.98,0.18,-0.02,-150.92
42461,761.94,762.85,756.23,759.36,760.09,-83.50,-976.07,296.39,-1.83,2.11,-0.56,-149.53
42494,762.00,762.90,756.21,759.34,760.11,-72.75,-976.56,284.67,1.43,-0.56,-4.47,-150.31
42530,762.04,762.92,756.22,759.40,760.14,-69.82,-972.17,292.97,-1.11,2.56,-1.88,-151.10
42564,762.10,763.06,756.23,759.33,760.18,-89.36,-974.61,283.20,-1.66,0.89,-2.20,-151.32
42598,762.07,762.96,756.22,759.34,760.15,-72.27,-989.75,295.90,-1.95,1.94,0.76,-150.77
42631,762.09,763.05,756.25,759.39,760.20,-87.40,-985.84,276.86,-0.26,1.48,-1.95,-151.34
42665,762.12,763.06,756.20,759.34,760.18,-69.82,-971.68,285.64,-0.42,-1.60,-1.46,-152.15
42699,762.11,762.98,756.16,759.30,760.14,-83.98,-978.03,278.32,-1.28,-0.80,-0.15,-151.88
42735,762.11,762.99,756.22,759.32,760.16,-81.05,-983.40,283.20,-0.26,-0.30,-0.23,-150.83
42768,762.15,763.01,756.17,759.33,760.16,-82.03,-970.21,289.06,0.36,0.15,-1.97,-152.42
42802,762.24,763.10,756.20,759.41,760.24,-78.12,-976.56,294.43,-0.12,0.87,0.42,-154.03
42836,762.13,763.01,756.23,759.31,760.17,-74.71,-970.70,266.11,-1.71,1.02,-2.50,-150.64
42870,762.15,763.05,756.21,759.34,760.19,-87.40,-979.98,266.11,-0.43,1.85,-0.53,-151.95
42906,762.18,762.99,756.18,759.39,760.18,-73.24,-976.56,274.90,-2.60,-1.25,0.49,-153.26
42939,762.15,762.96,756.17,759.39,760.17,-73.73,-965.33,291.99,-0.03,-1.75,0.31,-152.90
42973,762.07,763.01,756.17,759.31,760.14,-86.91,-982.42,276.86,-0.83,-2.40,0.90,-152.04
43007,762.08,762.93,756.21,759.36,760.15,-85.94,-970.21,272.95,-0.69,-1.83,-1.14,-151.10
43040,762.18,762.98,756.19,759.39,760.18,-77.15,-965.82,299.32,-0.66,1.62,-0.30,-152.77
43074,762.09,762.89,756.12,759.30,760.10,-79.59,-977.54,266.11,-0.12,-0.34,0.10,-152.10
43110,762.09,762.91,756.18,759.30,760.12,-74.71,-962.89,292.97,1.10,-2.19,-0.99,-150.81
43144,762.05,762.92,756.10,759.29,760.09,-70.31,-974.12,282.71,-0.84,-0.05,2.73,-152.56
43178,762.02,762.98,756.20,759.38,760.14,-84.96,-977.54,281.25,1.46,0.61,-0.20,-151.83
43211,762.09,762.90,756.12,759.39,760.12,-83.50,-981.93,281.25,2.04,-0.79,0.45,-153.43
43245,762.05,762.86,756.23,759.37,760.13,-83.50,-976.56,290.53,-2.80,-0.82,-1.11,-149.99
43278,762.08,762.91,756.21,759.28,760.12,-85.45,-977.54,275.39,-0.65,-1.61,0.84,-149.79
43314,762.03,762.80,756.21,759.34,760.09,-83.01,-975.59,278.81,-0.44,2.37,-0.82,-149.71
43347,762.07,762.89,756.15,759.23,760.09,-81.54,-975.59,277.83,-0.38,3.01,-0.10,-150.32
43381,762.05,762.91,756.12,759.35,760.11,-83.50,-977.54,271.97,-1.28,2.33,-0.78,-153.01
43414,762.06,762.87,756.20,759.34,760.12,-86.43,-981.45,269.04,-0.15,-0.94,-2.05,-150.58
43447,762.03,762.89,756.21,759.29,760.10,-93.75,-978.52,271.48,0.83,-1.27,-0.15,-149.68
43481,762.10,762.85,756.16,759.33,760.11,-91.31,-977.05,281.74,-0.31,0.45,-1.03,-151.35
43517,762.04,762.87,756.12,759.29,760.08,-78.12,-977.54,281.25,-4.02,-1.98,1.22,-151.74
43550,762.06,762.90,756.13,759.31,760.10,-80.08,-979.49,277.34,-2.47,0.98,-0.85,-151.86
43583,762.08,762.92,756.18,759.29,760.11,-79.10,-969.73,296.87,-0.73,2.23,0.83,-150.66
43617,762.07,762.96,756.20,759.32,760.14,-86.91,-984.86,271.97,-0.18,1.08,1.89,-150.97
43650,762.15,762.94,756.20,759.33,760.15,-77.64,-977.05,272.95,0.57,0.99,-1.67,-151.19
43683,762.15,762.89,756.16,759.29,760.12,-77.15,-969.73,283.69,0.10,2.17,-0.12,-151.35
43719,762.21,762.93,756.19,759.34,760.17,-83.01,-981.45,276.86,-0.44,1.85,-1.88,-151.68
43753,762.14,762.85,756.22,759.34,760.14,-86.91,-982.42,281.25,1.60,1.50,-0.90,-150.25
43786,762.17,762.91,756.19,759.36,760.16,-77.64,-968.26,280.27,1.85,0.39,-1.97,-151.77
43820,762.17,762.95,756.14,759.32,760.14,-79.10,-990.23,270.51,-0.91,1.70,-1.31,-152.73
43853,762.14,762.88,756.23,759.30,760.14,-76.66,-975.59,286.62,-1.13,-1.21,-0.84,-149.58
43889,762.19,762.94,756.22,759.33,760.17,-81.54,-986.33,277.34,1.19,0.52,-0.59,-150.94
43923,762.18,762.92,756.17,759.31,760.15,-87.40,-972.66,272.95,-0.20,1.52,-0.59,-151.69
43956,762.25,762.88,756.19,759.31,760.16,-86.43,-977.54,274.41,0.10,-0.93,0.43,-151.11
43990,762.17,762.86,756.14,759.39,760.14,-72.27,-982.42,274.41,0.76,-1.49,1.31,-152.94
44023,762.15,762.93,756.17,759.35,760.15,-68.85,-980.96,273.44,-0.95,1.31,-0.27,-152.14
44057,762.18,762.93,756.17,759.33,760.15,-74.22,-977.54,282.71,1.31,2.58,-0.66,-151.94
44093,762.13,762.85,756.18,759.40,760.14,-78.12,-979.00,278.81,1.50,-2.24,-0.09,-151.96
44126,762.13,762.92,756.24,759.31,760.15,-91.80,-970.70,270.51,0.15,0.43,0.76,-149.66
44160,762.16,762.85,756.16,759.29,760.11,-84.96,-977.54,281.25,-0.12,0.73,-2.28,-150.77
44193,762.09,762.90,756.22,759.29,760.13,-79.59,-973.63,286.13,-2.21,-1.15,0.97,-149.47
44227,762.22,762.94,756.21,759.39,760.19,-81.05,-982.42,289.06,-0.56,1.13,1.38,-152.09
44260,762.20,762.86,756.16,759.27,760.12,-69.34,-989.26,275.88,-0.94,-0.18,-0.02,-150.77
44296,762.13,762.92,756.13,759.30,760.12,-74.22,-975.10,276.86,0.37,1.08,-1.01,-152.37
44329,762.18,762.93,756.18,759.35,760.16,-77.64,-979.00,281.25,-1.55,-2.27,2.05,-152.11
44363,762.14,763.00,756.15,759.33,760.16,-79.59,-974.12,279.30,-0.10,-1.40,-0.76,-152.93
44396,762.13,762.83,756.18,759.39,760.13,-72.75,-975.59,276.37,0.56,1.80,0.50,-151.70
44430,762.20,762.89,756.18,759.35,760.16,-71.29,-976.07,282.23,-0.11,-0.18,-2.15,-151.66
44463,762.17,762.93,756.19,759.37,760.17,-82.52,-972.17,258.30,-2.48,0.79,0.89,-151.98
44499,762.15,762.95,756.15,759.33,760.14,-82.03,-979.98,289.55,-0.48,-2.85,-0.31,-152.61
44533,762.17,762.90,756.18,759.39,760.16,-66.89,-979.98,278.32,0.34,1.08,-0.47,-152.27
44566,762.15,763.01,756.21,759.32,760.17,-77.64,-985.35,271.48,1.05,-1.60,1.72,-151.51
44600,762.18,762.88,756.22,759.39,760.17,-83.50,-976.07,274.41,1.29,1.66,-2.66,-151.25
44634,762.13,762.86,756.20,759.35,760.13,-74.71,-978.03,263.18,1.08,-1.13,-2.28,-150.82
44670,762.15,762.93,756.21,759.36,760.16,-88.38,-963.87,286.62,2.27,-2.18,-0.70,-151.18
44703,762.11,762.98,756.23,759.34,760.16,-87.40,-975.10,284.18,0.48,-1.40,-0.38,-150.73
44737,762.14,762.84,756.16,759.34,760.12,-83.50,-965.33,286.62,0.31,-3.08,-2.26,-151.38
44770,762.13,762.88,756.12,759.35,760.12,-79.59,-975.10,290.04,0.11,-0.84,-0.63,-152.78
44804,762.08,762.94,756.21,759.36,760.15,-75.68,-978.52,275.88,-0.65,-2.46,1.02,-151.08
44837,762.18,763.03,756.22,759.35,760.20,-78.12,-974.12,268.07,0.18,0.53,-0.45,-151.78
44873,762.20,763.07,756.22,759.38,760.22,-74.22,-972.66,270.02,0.93,-1.81,-1.69,-152.56
44907,762.26,763.11,756.18,759.36,760.23,-63.96,-984.37,275.88,1.11,-1.12,-3.06,-154.01
44940,762.38,763.09,756.22,759.41,760.28,-86.91,-978.52,284.67,-0.97,-0.15,1.48,-153.80
44973,762.37,763.11,756.23,759.38,760.27,-75.20,-981.93,277.34,-1.64,-1.72,0.40,-153.45
45006,762.38,763.14,756.23,759.32,760.27,-77.64,-974.61,270.02,-0.39,-0.87,-1.60,-152.66
45040,762.44,763.13,756.16,759.34,760.27,-83.98,-974.61,286.62,-0.94,0.77,-0.31,-154.81
45076,762.47,763.13,756.18,759.44,760.31,-81.05,-980.96,274.90,0.47,-1.63,-3.83,-155.88
45109,762.50,763.20,756.21,759.40,760.33,-89.84,-965.33,283.20,1.67,1.37,-2.04,-155.21
45142,762.51,763.22,756.19,759.38,760.33,-83.50,-979.49,281.74,-0.27,-1.94,2.62,-155.67
45176,762.50,763.24,756.27,759.39,760.35,-82.03,-976.56,284.18,1.47,0.69,-1.89,-153.90
45209,762.64,763.24,756.20,759.42,760.37,-78.61,-977.05,288.09,0.67,0.23,-0.31,-156.50
45243,762.68,763.28,756.18,759.49,760.41,-78.61,-967.77,291.02,-0.51,3.24,-0.86,-158.75
45278,762.66,763.22,756.20,759.42,760.38,-82.52,-974.61,291.02,1.90,1.04,-3.02,-156.54
45312,762.66,763.21,756.17,759.41,760.36,-72.75,-970.70,298.34,-0.50,1.03,1.16,-157.05
45345,762.68,763.29,756.25,759.54,760.44,-72.75,-979.49,279.79,1.08,0.23,-2.47,-157.63
45379,762.61,763.25,756.22,759.51,760.40,-79.10,-968.75,284.18,0.54,1.15,-0.87,-157.50
45413,762.63,763.29,756.20,759.42,760.39,-79.10,-970.70,290.53,1.18,-1.56,-0.85,-156.97
45449,762.65,763.31,756.25,759.55,760.44,-57.62,-969.73,282.23,0.30,-2.81,1.60,-157.87
45483,762.68,763.27,756.23,759.52,760.42,-84.96,-964.84,298.34,1.36,-0.32,-0.11,-157.59
45517,762.64,763.31,756.24,759.46,760.41,-70.80,-982.91,281.74,1.20,-1.18,0.32,-156.70
45550,762.64,763.36,756.19,759.52,760.43,-81.54,-967.29,285.64,-0.95,1.82,-1.11,-159.22
45584,762.72,763.29,756.23,759.48,760.43,-85.45,-973.14,281.74,-1.57,-0.24,-0.81,-157.39
