currTime,s1,s2,s3,s4,s,AccX,AccY,AccZ,GyroX,GyroY,GyroZ,GRF
25,764.43,764.67,758.51,758.74,761.59,112.30,-836.91,575.68,0.01,-0.98,0.22,-106.80
60,764.40,764.65,758.51,758.67,761.56,104.49,-839.36,578.61,-0.10,-0.26,-1.31,-105.50
95,764.43,764.60,758.48,758.75,761.57,98.14,-846.19,566.41,1.56,1.95,-1.30,-106.97
130,764.48,764.60,758.55,758.71,761.58,110.84,-839.84,583.50,2.25,2.40,-0.73,-104.87
165,764.45,764.55,758.51,758.79,761.57,99.12,-845.70,567.87,-0.79,1.18,-0.71,-106.61
200,764.53,764.61,758.51,758.72,761.59,98.14,-836.91,579.59,-0.42,3.42,-0.96,-106.15
238,764.51,764.53,758.51,758.71,761.56,110.84,-835.45,583.98,0.76,-0.11,0.78,-105.49
273,764.56,764.52,758.47,758.67,761.55,102.05,-837.40,572.27,-0.22,0.78,-2.09,-105.89
308,764.69,764.46,758.52,758.63,761.57,102.54,-837.89,568.85,-1.25,1.08,-0.47,-104.12
343,764.73,764.44,758.48,758.57,761.56,113.28,-831.05,561.52,1.08,0.53,0.50,-104.04
378,764.72,764.35,758.38,758.50,761.49,105.96,-838.87,573.73,1.25,0.53,0.27,-104.64
413,764.84,764.34,758.40,758.48,761.51,96.68,-841.31,571.29,-0.72,2.97,1.19,-104.27
450,764.93,764.24,758.41,758.51,761.52,104.00,-830.57,573.73,0.90,2.31,-0.82,-103.93
485,764.96,764.27,758.40,758.45,761.52,104.00,-833.98,565.43,0.44,-0.46,-2.05,-103.78
520,765.02,764.20,758.39,758.41,761.50,95.70,-836.91,574.22,0.30,0.98,0.70,-103.13
555,765.12,764.22,758.45,758.32,761.53,98.63,-844.24,568.85,0.18,1.56,0.74,-100.75
590,765.07,764.14,758.37,758.31,761.47,103.52,-841.80,565.92,1.78,2.62,1.83,-101.72
625,765.13,764.11,758.31,758.24,761.45,104.49,-823.24,577.64,1.22,0.58,0.50,-102.41
662,765.24,764.14,758.33,758.21,761.48,96.68,-822.27,577.64,1.73,-1.85,3.21,-101.73
697,765.28,764.08,758.35,758.26,761.49,96.68,-822.27,566.89,0.91,1.51,-0.93,-101.74
732,765.34,764.00,758.35,758.28,761.49,110.35,-842.29,570.31,0.98,0.05,0.16,-101.69
767,765.33,764.04,758.33,758.19,761.47,106.93,-833.50,570.80,0.49,-0.69,-1.81,-101.03
802,765.30,764.00,758.34,758.24,761.47,96.19,-838.87,561.52,-1.68,1.34,0.85,-101.16
837,765.32,763.98,758.39,758.21,761.47,102.05,-829.10,577.64,-0.08,1.79,0.85,-99.41
874,765.45,764.00,758.31,758.14,761.48,104.49,-815.92,571.78,1.21,-0.58,-1.28,-100.86
910,765.39,763.98,758.27,758.14,761.45,103.03,-848.63,567.38,1.05,1.10,0.94,-101.50
945,765.49,763.94,758.30,758.14,761.47,108.40,-833.50,574.71,0.96,2.06,0.55,-100.89
980,765.54,763.90,758.30,758.16,761.48,106.93,-840.33,570.80,0.47,1.59,-0.53,-100.94
1015,765.49,763.91,758.27,758.19,761.47,92.77,-831.05,577.15,0.09,2.28,1.27,-102.07
1050,765.58,763.91,758.30,758.15,761.49,100.10,-841.80,575.68,-0.31,1.13,-1.02,-101.04
1088,765.57,763.88,758.26,758.17,761.47,100.59,-844.24,577.15,1.39,0.64,0.73,-101.99
1123,765.61,763.88,758.29,758.11,761.47,100.10,-829.59,564.94,-0.34,1.56,0.03,-100.56
1158,765.72,763.92,758.22,758.09,761.49,100.59,-839.36,578.61,-2.29,-0.85,3.35,-102.66
1193,765.72,763.78,758.21,758.07,761.44,93.26,-837.40,582.52,-0.12,2.56,0.29,-101.59
1228,765.79,763.91,758.29,758.09,761.52,108.89,-829.59,571.78,-0.31,1.88,2.21,-101.10
1264,765.84,763.83,758.31,758.05,761.51,107.42,-845.70,580.08,5.52,3.35,0.02,-99.60
1301,765.94,763.89,758.28,758.07,761.54,109.86,-822.27,561.04,-2.33,2.92,1.11,-101.51
1336,765.94,763.86,758.26,758.00,761.51,115.72,-842.29,571.78,1.75,0.31,-0.07,-100.69
1372,766.08,763.81,758.30,758.00,761.55,97.66,-829.59,581.05,-0.15,-1.04,0.56,-99.90
1407,766.12,763.88,758.29,758.07,761.59,99.61,-833.01,569.34,-1.77,1.16,3.18,-101.73
1442,766.19,763.85,758.20,758.00,761.56,112.79,-827.64,566.89,0.35,1.79,-1.40,-102.91
1477,766.23,763.85,758.28,757.99,761.59,102.54,-834.96,570.31,-2.86,1.11,-1.14,-100.84
1515,766.28,763.78,758.26,757.92,761.56,112.79,-839.36,569.34,1.18,0.92,1.95,-100.16
1550,766.33,763.77,758.26,757.90,761.57,105.96,-828.61,564.94,-0.90,1.91,0.95,-100.05
1585,766.44,763.79,758.23,757.97,761.61,100.59,-827.64,564.45,0.05,1.88,-0.23,-102.31
1620,766.53,763.80,758.20,757.92,761.61,108.40,-843.75,570.80,0.18,-0.92,-1.60,-102.55
1655,766.54,763.77,758.19,757.90,761.60,103.03,-837.89,581.54,-1.18,2.05,1.38,-102.46
1693,766.58,763.70,758.13,757.91,761.58,106.93,-835.94,570.31,-0.08,2.57,0.14,-103.49
1728,766.59,763.73,758.17,757.97,761.61,115.72,-836.43,567.38,-0.84,3.69,-1.05,-103.57
1763,766.68,763.73,758.18,757.95,761.63,104.00,-834.47,574.22,-0.02,-0.47,1.47,-103.54
1798,766.71,763.69,758.20,757.86,761.61,98.14,-841.31,576.17,-1.02,3.20,-0.27,-101.24
1833,766.89,763.79,758.15,757.89,761.68,96.19,-832.03,562.50,0.58,1.92,-1.79,-104.46
1869,766.80,763.79,758.14,757.92,761.66,94.73,-837.89,569.82,-0.13,0.28,-1.42,-104.82
1907,766.86,763.79,758.22,757.95,761.71,111.33,-841.31,562.50,2.34,0.16,0.17,-103.68
1942,766.75,763.78,758.21,757.95,761.67,106.93,-841.31,579.10,0.11,1.51,-1.32,-103.27
1977,766.79,763.84,758.17,757.95,761.69,103.03,-835.94,579.10,-1.27,0.32,-0.03,-104.85
2013,766.67,763.83,758.22,757.94,761.67,98.63,-835.45,563.96,1.66,-1.22,-0.47,-103.06
2048,766.63,763.89,758.20,758.03,761.68,103.03,-831.54,571.78,-2.24,1.34,0.97,-105.25
2083,766.71,763.87,758.23,758.04,761.71,115.72,-838.87,568.36,0.42,4.09,-0.40,-104.66
2120,766.59,763.83,758.30,758.00,761.68,103.52,-836.43,572.75,0.82,1.37,1.53,-101.70
2155,766.56,763.97,758.21,758.10,761.71,110.35,-839.36,560.06,-0.72,1.02,1.56,-106.26
2190,766.45,764.00,758.25,758.10,761.70,106.45,-827.64,583.50,-1.85,1.24,0.05,-105.43
2225,766.38,763.91,758.19,758.13,761.65,107.42,-842.29,578.61,-0.37,3.79,0.89,-106.17
2260,766.33,764.02,758.21,758.11,761.67,106.93,-834.96,559.08,0.96,1.05,2.56,-106.16
2294,766.28,764.00,758.24,758.11,761.66,105.47,-823.24,569.34,1.70,0.55,2.14,-105.09
2332,766.23,763.97,758.26,758.14,761.65,112.30,-827.15,573.73,1.19,2.31,0.21,-104.66
2367,766.19,764.01,758.26,758.18,761.66,89.36,-840.33,571.29,-0.34,1.76,1.25,-105.37
2402,766.18,763.92,758.33,758.16,761.65,110.35,-826.66,575.20,-0.82,-1.50,-0.80,-102.47
2437,766.05,763.93,758.25,758.22,761.61,100.10,-836.43,569.34,1.64,0.55,1.02,-105.16
2472,765.99,763.96,758.31,758.20,761.61,99.61,-824.71,580.08,-0.47,-0.61,2.13,-103.34
2507,766.02,763.96,758.26,758.18,761.61,98.63,-841.80,578.12,1.17,2.18,-0.22,-104.50
2544,766.02,763.99,758.30,758.21,761.63,102.05,-836.91,562.99,0.11,0.75,-0.38,-103.93
2579,765.91,763.96,758.28,758.23,761.59,109.37,-839.36,576.66,-0.28,1.36,1.30,-104.34
2614,765.96,763.96,758.24,758.24,761.60,104.49,-831.54,570.80,0.08,1.15,0.02,-105.58
2649,765.88,763.90,758.26,758.21,761.56,99.12,-837.89,576.66,0.41,0.39,2.88,-103.96
2684,765.76,763.94,758.25,758.21,761.54,104.98,-837.40,564.94,0.02,2.43,0.51,-104.01
2719,765.79,763.93,758.23,758.21,761.54,104.00,-837.89,562.99,0.18,0.73,0.08,-104.68
2757,765.78,763.95,758.26,758.25,761.56,99.12,-841.31,568.85,2.27,3.63,2.20,-104.49
2793,765.69,763.96,758.30,758.27,761.55,97.66,-834.96,577.64,2.38,2.82,0.38,-103.57
2828,765.65,763.94,758.21,758.23,761.51,99.61,-831.54,571.29,-0.15,2.59,0.63,-105.06
2863,765.61,763.96,758.23,758.27,761.52,110.35,-833.01,581.05,0.18,1.78,1.76,-105.06
2898,765.63,763.87,758.30,758.29,761.52,109.86,-838.38,580.08,0.75,3.77,-0.30,-102.90
2934,765.48,763.92,758.25,758.25,761.47,104.49,-834.96,573.24,0.96,1.66,1.10,-103.41
2971,765.48,763.93,758.29,758.32,761.50,96.68,-832.52,570.80,-0.80,1.65,2.62,-103.63
3006,765.43,763.93,758.36,758.29,761.50,102.54,-851.56,568.85,-0.53,0.01,0.08,-101.27
3041,765.35,764.00,758.36,758.27,761.49,99.12,-825.20,568.85,0.50,1.95,-2.04,-101.25
3076,765.41,763.93,758.31,758.31,761.49,99.12,-825.20,571.78,-0.44,0.92,-0.12,-102.63
3112,765.32,764.00,758.35,758.27,761.48,93.75,-848.63,572.27,-2.38,1.97,2.49,-101.46
3147,765.26,764.12,758.35,758.27,761.50,103.52,-829.59,567.87,-1.08,1.80,2.98,-102.26
3184,765.14,764.12,758.36,758.28,761.47,105.96,-842.77,581.54,1.34,0.84,0.02,-101.57
3220,765.17,764.17,758.34,758.32,761.50,116.70,-829.10,580.08,-0.90,3.76,0.43,-103.31
3255,765.08,764.12,758.32,758.41,761.48,103.03,-829.59,567.87,1.09,2.14,2.11,-104.50
3290,765.09,764.17,758.38,758.29,761.48,84.96,-833.50,569.34,-0.18,1.86,-1.34,-101.47
3325,765.02,764.16,758.35,758.36,761.48,93.75,-830.57,582.03,1.15,0.74,1.60,-103.01
3360,764.98,764.17,758.45,758.38,761.50,105.47,-838.87,578.12,1.66,1.40,1.14,-100.82
3397,764.90,764.24,758.35,758.40,761.47,92.29,-831.05,568.36,-0.20,0.64,0.04,-103.75
3433,764.85,764.20,758.42,758.37,761.46,104.49,-843.26,564.94,-0.74,0.33,1.53,-101.32
3468,764.90,764.22,758.41,758.44,761.50,107.91,-829.10,575.68,1.21,-1.52,1.55,-102.80
3503,764.83,764.20,758.42,758.48,761.48,100.10,-827.64,573.73,0.44,2.90,-1.63,-102.71
3538,764.77,764.26,758.42,758.47,761.48,95.70,-834.47,576.66,0.27,-0.04,0.85,-102.80
3573,764.70,764.31,758.39,758.53,761.48,109.86,-835.94,574.71,0.25,3.16,2.10,-104.73
3611,764.62,764.34,758.43,758.55,761.48,97.66,-839.84,566.89,2.02,2.19,1.33,-103.88
3646,764.65,764.30,758.34,758.57,761.47,106.45,-830.08,560.55,-0.18,4.00,1.99,-106.23
3681,764.58,764.35,758.42,758.57,761.48,93.75,-831.54,568.36,-2.41,0.74,1.03,-104.21
3717,764.50,764.27,758.41,758.55,761.43,109.86,-863.77,567.38,-1.18,0.11,0.24,-103.39
3752,764.47,764.31,758.39,758.46,761.41,108.89,-832.52,572.75,2.78,2.25,-1.72,-102.90
3787,764.38,764.41,758.45,758.56,761.45,99.12,-825.68,571.78,0.10,0.11,-0.23,-103.16
3825,764.33,764.39,758.43,758.59,761.44,95.70,-845.70,565.43,0.94,3.08,2.01,-103.92
3860,764.21,764.41,758.39,758.62,761.41,101.56,-836.43,565.92,0.40,2.24,-0.13,-105.06
3895,764.16,764.46,758.46,758.57,761.41,103.03,-842.77,575.68,-0.76,1.99,-1.76,-102.85
3930,764.23,764.40,758.47,758.60,761.42,104.98,-834.96,563.96,-0.77,0.31,2.47,-102.74
3965,764.10,764.38,758.48,758.66,761.41,101.07,-825.20,563.48,3.05,3.10,1.36,-102.83
4000,764.19,764.48,758.47,758.60,761.43,105.47,-834.47,581.54,-1.13,1.82,1.31,-103.42
4038,764.14,764.45,758.49,758.68,761.44,85.45,-837.89,564.94,-0.49,-0.08,1.18,-103.61
4073,764.19,764.51,758.49,758.66,761.46,87.89,-854.00,572.27,1.31,0.40,-0.98,-103.90
4108,764.21,764.52,758.45,758.58,761.44,101.56,-836.91,570.31,-0.66,0.72,-2.52,-103.97
4143,764.20,764.43,758.42,758.61,761.41,108.89,-838.87,571.78,1.15,1.24,-0.51,-104.34
4178,764.24,764.39,758.48,758.60,761.43,106.93,-825.20,562.99,-0.41,-0.17,1.21,-102.57
4216,764.35,764.39,758.49,758.56,761.45,98.63,-821.78,563.48,-0.87,-2.16,-0.81,-102.16
4251,764.40,764.33,758.44,758.53,761.43,113.28,-843.75,574.22,-0.44,0.63,0.55,-102.53
4286,764.50,764.32,758.45,758.53,761.45,100.59,-827.64,564.45,0.70,-0.80,0.34,-102.41
4321,764.62,764.29,758.47,758.46,761.46,91.80,-825.68,570.31,-1.19,2.09,0.93,-101.19
4357,764.74,764.21,758.44,758.34,761.43,92.29,-830.57,577.15,1.47,0.96,-1.15,-99.93
4392,764.84,764.27,758.40,758.35,761.47,114.26,-848.63,566.41,-1.40,1.35,-1.68,-102.05
4430,764.99,764.13,758.36,758.35,761.46,108.89,-837.89,570.31,1.41,1.15,-2.70,-102.23
4465,765.14,764.05,758.32,758.30,761.45,98.63,-833.01,576.66,-0.05,1.79,0.18,-102.38
4500,765.27,764.02,758.37,758.34,761.50,91.31,-836.43,561.52,-1.18,0.99,-1.72,-101.88
4535,765.39,764.04,758.27,758.20,761.48,100.59,-833.50,571.29,-2.56,1.36,-0.44,-102.84
4570,765.49,763.86,758.36,758.16,761.47,98.14,-829.10,565.92,-0.47,2.79,-0.86,-99.15
4606,765.60,763.90,758.29,758.17,761.49,90.82,-842.29,567.87,0.29,1.91,0.54,-101.58
4643,765.69,763.81,758.28,758.04,761.46,93.75,-829.59,571.78,-0.88,-0.58,-2.06,-99.55
4679,765.78,763.91,758.30,758.04,761.51,103.03,-834.96,564.45,0.13,3.16,-1.54,-100.15
4714,765.88,763.73,758.27,758.03,761.48,102.54,-837.40,569.34,0.60,1.53,0.35,-99.73
4749,765.99,763.78,758.27,758.02,761.52,90.33,-832.52,570.80,-0.23,1.73,0.82,-100.31
4784,766.15,763.73,758.17,758.02,761.52,104.00,-833.50,572.75,-0.60,0.08,0.72,-103.08
4820,766.33,763.70,758.19,757.97,761.55,112.79,-837.40,565.43,-0.80,0.57,-1.02,-102.15
4857,766.40,763.70,758.15,757.92,761.54,100.10,-838.38,583.50,0.02,2.97,-0.02,-102.73
4892,766.57,763.61,758.17,757.83,761.54,101.56,-849.61,570.80,0.45,0.87,1.08,-100.56
4927,766.71,763.52,758.19,757.75,761.54,98.14,-835.45,554.20,0.07,1.27,3.08,-98.80
4962,766.93,763.40,758.10,757.70,761.53,101.07,-838.87,565.43,1.21,2.92,2.08,-99.92
4998,767.18,763.41,758.07,757.64,761.58,102.05,-846.68,557.62,-2.20,-0.82,-1.99,-100.73
5033,767.41,763.37,758.13,757.66,761.64,98.14,-828.61,585.45,0.63,2.44,0.11,-100.15
5070,767.64,763.43,758.08,757.62,761.69,96.19,-843.75,566.89,0.73,2.40,0.60,-101.78
5105,767.79,763.32,758.06,757.60,761.69,122.07,-845.70,563.48,-0.47,-0.86,0.23,-101.89
5141,767.91,763.23,758.09,757.53,761.69,108.40,-840.33,576.17,2.15,1.50,1.17,-99.65
5176,768.09,763.30,758.09,757.61,761.77,99.12,-834.47,574.22,0.41,0.87,2.41,-102.08
5211,768.20,763.25,758.05,757.58,761.77,104.98,-842.77,573.24,-0.73,2.01,-2.53,-102.57
5246,768.27,763.12,758.05,757.58,761.75,102.54,-829.10,576.17,2.17,2.14,-0.92,-101.89
5284,768.49,763.25,758.03,757.51,761.82,107.91,-820.31,568.36,1.79,1.37,-1.33,-103.08
5319,768.50,763.22,758.05,757.59,761.84,92.77,-842.29,574.71,-1.99,1.22,-2.95,-103.44
5354,768.63,763.24,757.96,757.59,761.86,90.82,-841.80,568.36,2.30,2.28,0.33,-106.43
5390,768.82,763.20,758.04,757.62,761.92,108.40,-836.43,562.50,0.42,-0.73,-0.45,-105.07
5425,768.84,763.21,758.02,757.65,761.93,99.12,-838.38,574.71,1.49,0.00,0.12,-106.19
5460,768.91,763.15,758.07,757.58,761.93,108.40,-826.17,579.10,1.68,0.52,-1.76,-103.79
5497,768.98,763.23,758.07,757.58,761.96,96.19,-830.08,572.27,-0.01,3.39,0.41,-104.71
5532,769.08,763.25,757.94,757.54,761.95,96.68,-848.63,573.24,-1.42,0.93,2.63,-107.78
5567,769.13,763.27,757.91,757.53,761.96,109.86,-843.26,579.59,1.71,2.37,-1.76,-108.67
5602,769.20,763.26,758.06,757.58,762.03,101.56,-832.03,563.48,-2.01,2.12,1.33,-105.83
5637,769.14,763.21,758.04,757.57,761.99,95.21,-827.15,558.11,0.43,2.31,1.21,-105.47
5672,769.21,763.34,758.06,757.64,762.06,101.56,-833.50,571.29,0.75,2.48,0.65,-107.47
5710,769.21,763.31,758.06,757.61,762.05,105.96,-828.61,573.73,1.47,0.53,-1.55,-106.73
5745,769.18,763.40,758.03,757.69,762.08,94.73,-829.10,569.82,-0.87,2.15,1.73,-109.41
5780,769.05,763.50,758.08,757.68,762.08,91.31,-834.96,560.55,-1.91,2.08,-1.85,-108.21
5815,769.02,763.43,758.02,757.74,762.05,110.35,-844.24,576.17,-0.42,0.67,1.23,-109.94
5850,768.89,763.55,758.05,757.74,762.05,109.37,-845.21,562.50,0.27,2.08,1.71,-109.76
5885,768.76,763.57,758.09,757.78,762.05,120.61,-829.10,565.43,1.29,-0.06,-0.53,-109.10
5921,768.74,763.52,758.11,757.76,762.03,98.14,-836.91,563.48,0.56,3.05,0.20,-107.82
5957,768.63,763.62,758.11,757.71,762.02,82.03,-830.57,563.48,-0.50,2.24,1.53,-107.48
5992,768.58,763.54,758.05,757.84,762.00,99.12,-837.40,562.99,-1.00,1.40,-0.63,-109.96
6027,768.56,763.52,758.06,757.81,761.99,97.17,-846.68,554.69,-0.10,0.21,0.68,-109.25
6062,768.43,763.58,758.15,757.83,762.00,105.96,-833.50,581.05,0.98,0.84,-0.05,-107.28
6097,768.45,763.54,758.08,757.77,761.96,101.07,-840.82,566.89,-0.12,-0.84,1.68,-107.76
6135,768.36,763.55,758.10,757.69,761.93,105.96,-833.01,571.29,0.23,3.03,0.16,-105.94
6170,768.20,763.50,758.05,757.78,761.88,97.17,-827.64,570.80,-0.44,2.60,-2.35,-107.45
6205,768.17,763.44,758.10,757.77,761.87,108.40,-834.96,565.43,-1.04,0.76,-0.92,-105.68
6241,768.04,763.48,758.08,757.80,761.85,124.51,-822.75,562.99,0.93,0.50,1.68,-106.39
6276,767.96,763.51,758.12,757.78,761.84,96.19,-833.50,572.27,0.89,-1.68,0.22,-105.05
6311,767.90,763.51,758.07,757.74,761.81,105.47,-839.36,563.96,-0.81,2.60,2.07,-105.41
6348,767.88,763.55,758.13,757.76,761.83,92.77,-831.54,566.41,-1.55,0.09,-0.30,-104.55
6383,767.86,763.51,758.04,757.82,761.81,106.93,-831.54,566.41,-0.73,1.22,1.24,-107.50
6418,767.85,763.49,758.07,757.72,761.78,104.98,-839.36,573.73,-0.28,-0.15,1.86,-105.05
6454,767.83,763.50,758.02,757.79,761.79,96.68,-832.03,580.08,0.84,0.56,-0.50,-107.12
6489,767.87,763.51,757.99,757.77,761.78,100.10,-827.64,568.36,-0.22,0.32,1.58,-107.92
6526,767.84,763.54,757.96,757.80,761.79,121.09,-834.47,569.82,-0.37,2.26,1.15,-109.32
6562,767.86,763.51,758.03,757.82,761.81,99.61,-838.38,579.10,0.11,1.56,-0.69,-107.44
6597,767.80,763.56,758.03,757.76,761.79,110.35,-836.43,569.34,-1.79,1.62,0.54,-106.97
6632,767.84,763.53,758.04,757.80,761.80,104.98,-842.29,577.15,-0.15,2.22,0.84,-107.19
6667,767.78,763.55,757.97,757.83,761.78,109.37,-832.03,565.43,-1.20,1.62,-0.18,-109.06
6702,767.78,763.63,758.01,757.76,761.80,98.14,-834.96,572.27,-1.14,0.31,0.39,-107.81
6740,767.79,763.53,757.96,757.84,761.78,99.12,-833.98,571.78,-2.24,1.83,0.57,-109.55
6775,767.80,763.53,757.99,757.80,761.78,102.05,-839.84,569.82,0.44,1.51,-0.62,-108.33
6810,767.80,763.59,758.00,757.85,761.81,108.40,-829.10,561.52,2.01,2.08,-0.40,-109.30
6846,767.77,763.60,757.97,757.88,761.81,112.30,-845.70,568.36,0.70,1.02,-0.58,-110.25
6881,767.80,763.56,758.06,757.82,761.81,120.12,-839.84,567.38,-1.24,1.88,-0.05,-107.06
6916,767.79,763.59,757.97,757.88,761.81,100.59,-846.68,561.52,1.76,-2.15,-1.79,-110.25
6954,767.76,763.65,758.00,757.92,761.83,98.14,-838.38,557.62,0.40,-1.47,0.01,-110.46
6989,767.78,763.64,758.00,757.93,761.84,104.00,-834.96,563.96,1.48,1.12,-1.11,-110.71
7024,767.78,763.60,758.03,757.86,761.82,95.21,-828.61,582.03,2.45,0.50,0.53,-108.59
7059,767.72,763.57,758.01,757.81,761.78,112.30,-826.17,580.08,-0.09,-0.03,-2.89,-107.87
7094,767.76,763.64,758.02,757.89,761.83,111.33,-841.80,572.75,-0.67,-0.21,1.84,-109.71
7129,767.78,763.66,758.03,757.87,761.83,87.89,-947.75,515.62,-5.79,-5.67,2.29,-109.19
7167,767.78,763.65,757.96,757.93,761.83,63.96,-842.77,563.48,-3.21,1.66,1.60,-111.77
7202,767.75,763.62,758.00,757.94,761.83,81.54,-825.68,548.83,-8.40,-0.89,1.14,-110.51
7237,767.73,763.55,758.10,757.90,761.82,90.82,-839.36,556.15,2.39,2.72,0.38,-106.81
7272,767.79,763.63,758.10,757.84,761.84,91.31,-805.18,583.50,2.91,1.40,0.19,-106.80
7307,767.83,763.61,758.02,757.93,761.85,98.14,-831.05,572.75,-8.03,-1.15,-3.37,-110.12
7342,767.85,763.67,758.06,757.92,761.87,101.56,-863.28,563.48,1.68,0.72,0.40,-109.51
7380,767.81,763.60,758.04,757.93,761.84,97.17,-835.45,547.36,-0.84,0.39,2.69,-109.47
7415,767.84,763.74,758.11,758.01,761.93,100.59,-841.80,555.18,1.49,1.17,1.03,-110.15
7450,767.81,763.66,758.02,757.93,761.85,80.57,-800.78,574.71,-2.00,0.95,-0.05,-110.43
7485,767.83,763.65,758.09,757.99,761.89,116.21,-850.10,562.01,-2.29,0.24,-0.95,-109.47
7520,767.85,763.68,758.09,758.06,761.92,113.28,-841.80,589.84,8.03,3.54,0.00,-110.84
7555,767.78,763.66,758.08,757.98,761.88,75.68,-860.84,564.94,4.35,1.18,-1.52,-109.56
7593,767.76,763.64,758.08,757.91,761.85,106.45,-823.73,578.61,-6.00,-0.36,-0.55,-108.19
7628,767.62,763.66,758.02,757.96,761.81,116.21,-888.18,558.59,1.12,3.18,1.15,-110.33
7663,767.57,763.65,758.12,757.96,761.82,103.03,-813.48,572.75,6.56,4.18,-1.15,-107.42
7698,767.47,763.71,758.10,757.96,761.81,97.66,-823.24,572.27,-5.90,3.05,-0.76,-108.24
7734,767.51,763.74,758.15,758.03,761.86,102.54,-815.92,586.91,-0.51,3.21,1.39,-108.33
7769,767.40,763.70,758.14,758.08,761.83,99.61,-860.84,557.62,3.15,3.89,0.10,-108.48
7807,767.30,763.72,758.06,758.04,761.78,94.24,-839.36,572.27,-0.51,1.11,-1.34,-109.84
7842,767.28,763.78,758.11,758.05,761.80,96.68,-839.84,563.96,-3.01,0.87,-0.50,-109.25
7877,767.15,763.77,758.15,758.08,761.79,103.03,-839.36,573.24,3.90,0.73,-0.01,-108.04
7912,767.09,763.78,758.17,758.11,761.79,92.29,-861.82,619.14,5.63,0.63,0.82,-107.81
7947,767.06,763.79,758.15,758.15,761.79,83.98,-746.58,590.33,0.60,-3.33,0.66,-108.94
7982,766.91,763.85,758.12,758.05,761.73,23.93,-402.83,849.61,-11.50,1.85,-2.50,-108.29
8020,766.94,763.89,758.17,758.12,761.78,173.83,-1037.60,466.80,-58.84,-15.82,-0.07,-108.43
8055,766.88,763.85,758.15,758.10,761.74,161.62,-980.47,513.18,22.37,11.65,0.50,-108.09
8090,766.78,763.82,758.19,758.11,761.72,74.71,-757.81,574.22,21.11,12.31,0.23,-106.57
8126,766.82,763.84,758.17,758.14,761.74,73.73,-813.48,562.01,-10.69,-2.09,0.30,-107.74
8161,766.66,763.83,758.15,758.14,761.69,99.12,-845.70,565.92,0.45,2.88,2.55,-107.90
8196,766.73,763.80,758.17,758.22,761.73,102.05,-823.73,565.43,3.05,2.61,-0.17,-108.55
8234,766.68,763.83,758.18,758.17,761.72,113.77,-845.21,560.55,-2.89,0.37,-0.55,-107.56
8269,766.69,763.81,758.12,758.18,761.70,101.56,-841.80,568.85,1.85,4.27,-0.74,-109.02
8305,766.71,763.87,758.12,758.13,761.71,103.52,-817.38,581.05,-0.28,1.06,0.55,-108.82
8340,766.73,763.87,758.14,758.23,761.74,104.49,-849.12,564.94,-0.44,0.51,0.29,-109.80
8375,766.68,763.94,758.15,758.18,761.74,110.35,-830.57,574.22,0.60,0.99,-1.25,-109.32
8410,766.76,763.90,758.20,758.25,761.78,102.54,-829.59,574.71,-1.24,2.80,-0.20,-109.03
8448,766.71,763.98,758.17,758.18,761.76,115.72,-846.19,574.22,1.41,1.47,0.27,-109.16
8483,766.77,763.95,758.15,758.10,761.74,108.40,-822.75,566.41,0.31,0.40,-2.22,-108.45
8519,766.80,763.97,758.11,758.10,761.74,97.17,-832.03,573.24,-0.14,1.86,-1.79,-109.84
8554,766.86,763.84,758.17,758.18,761.76,114.75,-827.15,571.29,-1.07,4.24,-0.95,-108.70
8589,766.85,763.82,758.17,758.16,761.75,115.23,-814.45,581.54,-1.02,2.34,0.11,-108.08
8627,766.89,763.83,758.11,758.13,761.74,109.37,-847.66,572.27,0.03,1.34,-0.46,-109.33
8662,766.92,763.82,758.10,758.18,761.76,97.17,-837.89,557.62,1.67,0.22,0.16,-110.27
8697,766.77,763.80,758.14,758.10,761.70,109.86,-836.43,573.24,0.01,1.39,1.05,-107.43
8732,766.57,763.77,758.10,758.05,761.62,90.33,-823.24,569.82,-1.00,2.33,1.15,-106.90
8767,766.23,763.56,758.13,758.00,761.48,97.17,-851.07,538.57,-2.54,-1.95,2.30,-102.46
8802,765.95,763.43,758.06,757.85,761.32,104.98,-843.26,579.10,1.30,0.23,0.85,-100.11
8840,765.75,763.18,757.98,757.72,761.16,98.63,-842.29,576.66,-0.34,-2.04,-1.10,-97.35
8875,765.66,762.89,758.01,757.62,761.04,111.82,-830.08,586.43,0.21,1.65,2.12,-92.52
8909,765.76,762.77,757.93,757.49,760.99,101.07,-842.29,550.78,0.39,0.38,0.06,-92.13
8944,765.92,762.65,757.83,757.39,760.95,98.14,-851.07,580.08,3.31,1.53,2.59,-92.62
8979,766.17,762.71,757.79,757.32,761.00,107.91,-844.24,570.31,2.83,1.80,0.55,-94.07
9014,766.21,762.63,757.87,757.29,761.00,105.47,-840.82,553.71,-0.79,2.74,0.63,-90.95
9052,766.39,762.62,757.93,757.38,761.08,89.84,-803.71,581.05,5.05,4.03,0.12,-91.37
9087,766.59,762.60,757.83,757.35,761.09,114.26,-827.15,583.50,-3.37,0.81,-1.94,-93.99
9122,766.76,762.56,757.82,757.31,761.11,123.54,-833.50,576.17,2.56,-0.62,-0.56,-93.88
9156,767.10,762.44,757.84,757.29,761.17,107.91,-833.98,559.08,3.15,-0.42,-1.19,-93.40
9191,767.60,762.50,757.74,757.20,761.26,110.84,-829.59,569.34,2.47,2.09,-0.70,-96.62
9226,768.66,762.38,757.56,757.00,761.40,100.59,-851.07,569.34,2.34,-0.95,0.85,-100.77
9263,770.72,762.28,757.35,756.66,761.75,96.68,-831.05,543.46,2.46,3.24,1.50,-107.29
9298,773.87,762.33,757.28,756.54,762.50,97.17,-835.45,561.04,0.09,1.59,-2.13,-118.65
9334,779.15,762.50,757.17,756.64,763.87,110.35,-820.31,612.79,7.69,-0.09,-2.79,-142.25
9369,787.11,762.95,757.32,756.91,766.07,101.07,-824.71,578.61,9.35,0.05,-3.23,-173.48
9404,796.57,763.80,757.43,757.42,768.81,104.00,-842.77,603.52,8.88,2.55,-4.73,-217.46
9439,804.31,764.76,757.68,758.21,771.24,139.65,-847.66,583.01,5.47,-1.70,2.19,-257.22
9477,807.55,765.49,757.89,759.13,772.51,103.52,-850.10,576.17,2.88,2.50,-1.24,-282.34
9512,806.89,765.81,758.04,759.63,772.59,98.63,-813.96,592.29,-1.40,3.50,0.81,-286.11
9547,804.65,766.02,758.07,759.51,772.06,100.10,-814.94,584.47,-10.78,-1.09,0.63,-277.76
9582,802.79,766.41,758.06,759.36,771.66,108.40,-833.01,580.08,-9.35,0.15,4.02,-272.54
9617,801.66,767.22,758.06,759.39,771.58,104.49,-845.21,567.38,-6.15,1.47,2.42,-275.71
9652,800.75,768.13,758.08,759.78,771.68,108.40,-822.75,557.62,-1.47,0.89,0.95,-284.98
9689,799.58,769.12,758.27,760.19,771.79,114.75,-841.80,566.41,-5.94,1.19,3.27,-290.31
9725,798.18,769.95,758.36,760.73,771.80,106.45,-851.56,560.55,-1.33,2.27,1.91,-297.95
9760,796.70,770.54,758.48,761.02,771.69,104.49,-846.19,562.01,0.44,5.10,5.22,-298.87
9795,794.73,771.04,758.58,761.46,771.45,92.29,-836.91,559.08,-0.10,0.37,3.56,-300.07
9830,792.77,771.57,758.70,761.74,771.20,113.28,-842.29,567.87,-0.32,1.33,0.73,-298.75
9865,789.93,772.36,758.93,762.30,770.88,100.10,-830.08,570.80,-1.93,1.48,2.53,-297.70
9902,785.95,773.33,759.63,762.91,770.45,96.68,-829.59,564.45,-0.80,0.59,1.52,-283.51
9937,781.89,774.19,760.41,763.73,770.06,103.52,-851.56,555.18,2.48,2.48,4.86,-269.03
9972,777.56,775.39,761.50,764.80,769.81,91.80,-855.96,549.80,1.53,4.91,5.21,-252.53
10007,770.92,777.28,763.22,766.42,769.46,96.19,-848.14,565.43,3.31,5.11,4.98,-225.68
10042,762.97,779.86,766.12,768.90,769.46,75.68,-849.61,559.08,3.71,10.08,6.19,-183.35
10077,754.72,783.39,770.04,772.14,770.07,111.82,-867.19,565.43,4.03,12.30,10.85,-133.39
10115,748.02,787.31,775.77,776.90,772.00,51.27,-831.54,605.96,0.46,14.06,15.58,-69.28
10150,745.53,788.98,782.03,781.49,774.51,90.33,-869.63,622.56,-6.59,26.34,25.55,14.28
10185,745.23,786.81,787.80,782.83,775.67,155.76,-1037.11,735.84,-43.40,71.08,40.54,156.85
10220,745.06,780.90,790.28,780.27,774.13,133.79,-1036.13,599.61,-79.15,58.40,72.00,304.14
10255,744.77,772.16,790.65,775.04,770.65,23.44,-1173.34,492.19,-80.15,68.47,109.15,461.44
10290,744.50,764.39,790.20,768.47,766.89,-18.55,-1379.88,601.07,-20.23,62.02,148.67,610.40
10328,744.08,760.07,785.25,761.57,762.74,-286.62,-1337.40,682.62,11.35,49.82,170.61,624.64
10363,743.89,758.26,765.50,757.27,756.23,-428.71,-1719.24,447.27,76.36,30.30,178.85,211.00
10398,743.86,757.39,756.40,755.15,753.20,-127.93,-2000.00,433.59,246.67,42.28,167.17,22.50
10433,743.79,756.61,755.88,754.86,752.78,-196.29,-1111.33,66.89,93.21,-2.45,60.45,20.28
10469,743.71,756.32,755.51,754.76,752.57,248.54,-866.70,204.10,110.28,22.71,34.36,15.31
10506,743.81,756.28,755.39,754.71,752.55,547.36,-538.09,-2.93,78.32,87.84,21.44,12.94
10541,743.82,756.17,755.26,754.67,752.48,613.77,-455.57,-49.80,6.44,126.95,-62.39,11.32
10576,743.77,756.15,755.29,754.65,752.46,444.82,-411.13,39.55,-24.63,134.63,-129.58,12.58
10611,743.75,756.13,755.23,754.60,752.43,331.54,-621.58,218.75,-41.92,84.85,-167.79,11.99
10646,743.80,756.10,755.22,754.59,752.43,303.71,-915.04,276.86,1.86,25.25,-197.88,11.96
10681,743.71,756.15,755.16,754.55,752.39,307.13,-1063.96,206.05,23.02,-31.74,-249.27,10.97
10718,743.60,756.16,755.09,754.51,752.34,322.75,-1340.82,163.57,12.60,-41.95,-250.14,9.98
10753,743.55,756.13,755.10,754.52,752.32,304.20,-1622.56,197.27,-8.80,-21.85,-250.14,10.62
10788,743.46,756.02,755.16,754.45,752.27,246.09,-1898.44,294.43,-33.08,-7.08,-250.14,14.43
10823,743.46,755.97,755.17,754.56,752.29,38.57,-1909.67,283.20,-17.73,32.21,-218.16,13.31
10858,743.40,755.87,755.09,754.46,752.21,-340.33,-2000.00,308.11,-78.21,38.82,-135.73,14.02
10893,743.49,755.94,755.17,754.38,752.24,-1047.85,-1727.05,636.72,-250.14,-68.98,-153.21,16.16
10931,743.49,755.87,755.17,754.37,752.22,-2000.00,-1140.63,522.46,-28.75,-50.46,-142.53,16.82
10966,743.93,755.76,755.26,754.34,752.32,-2000.00,-838.87,554.20,-4.57,-96.91,-61.91,18.96
11001,751.50,756.30,755.16,754.32,754.32,235.84,1151.37,-2000.00,250.13,250.13,219.46,-13.58
11036,773.50,757.48,755.06,754.57,760.15,906.25,-2000.00,191.41,250.13,244.89,207.41,-104.54
11071,797.69,760.72,756.17,754.84,767.35,-270.02,-2000.00,1999.94,-81.38,28.14,154.72,-189.87
11109,796.76,762.53,759.14,755.38,768.45,-66.41,-128.91,1920.41,-4.45,41.27,9.76,-135.26
11144,796.48,765.45,763.25,757.99,770.79,177.73,-898.44,516.11,-18.04,-5.53,12.82,-93.78
11180,795.07,768.36,767.48,761.16,773.02,144.53,-814.45,620.61,22.62,2.84,7.85,-53.74
11215,788.93,770.90,769.96,764.21,773.50,104.00,-851.07,622.07,7.23,3.90,5.85,-36.00
11250,780.78,772.53,771.47,766.34,772.78,83.01,-828.12,585.45,5.80,6.69,6.19,-14.83
11286,770.43,774.26,772.87,768.12,771.42,76.17,-813.48,608.89,-5.42,8.27,5.91,15.66
11323,760.65,776.47,774.68,769.89,770.42,83.50,-851.56,577.64,-8.81,5.31,8.68,50.24
11359,754.67,778.15,776.76,771.37,770.24,59.08,-806.15,576.17,3.21,9.78,12.29,87.46
11394,751.24,779.72,778.67,772.46,770.52,57.13,-798.83,603.03,5.34,12.96,10.72,118.17
11429,749.02,781.11,780.65,773.56,771.08,42.97,-826.66,588.87,-2.19,11.00,9.74,147.75
11464,747.69,782.35,783.11,775.03,772.04,41.99,-823.73,603.03,4.85,17.21,10.16,182.05
11500,746.61,783.67,785.13,777.01,773.10,30.76,-837.89,600.59,7.37,20.44,11.10,196.49
11538,745.53,785.89,786.49,779.64,774.39,3.91,-804.20,599.12,-3.47,18.26,13.69,177.45
11573,744.60,789.40,787.89,783.06,776.24,-7.32,-722.66,660.16,-9.62,-0.33,6.66,136.99
11608,744.35,791.52,789.92,787.10,778.22,160.16,-1009.28,723.63,-45.76,41.49,25.26,111.99
11643,744.27,789.84,791.49,787.99,778.40,101.56,-859.37,699.71,-68.23,59.83,65.65,151.69
11678,744.38,784.42,792.10,785.12,776.51,25.88,-1041.50,592.29,-84.89,92.14,96.55,252.27
11716,744.31,775.27,791.97,779.90,772.86,4.39,-1424.32,556.64,-85.22,102.21,164.75,399.63
11751,744.11,767.25,791.00,773.28,768.91,170.90,-2000.00,389.16,-43.98,79.31,250.13,537.73
11787,743.82,760.75,781.12,765.65,762.84,-105.47,-1352.54,745.61,-98.28,12.79,250.13,457.10
11822,743.47,757.46,772.02,757.76,757.68,-236.82,-2000.00,636.72,112.86,75.85,250.13,374.04
11857,743.63,756.63,756.41,754.69,752.84,1249.51,-820.31,-143.55,140.48,33.95,244.51,36.58
11892,743.53,756.18,756.07,754.58,752.59,839.36,-1049.32,-30.76,41.08,54.50,-2.38,33.45
11930,743.43,756.02,755.81,754.54,752.45,517.58,-484.86,5.37,91.63,75.35,-142.61,29.19
11966,743.46,755.98,755.72,754.38,752.39,292.48,-398.93,51.27,59.26,46.21,-157.33,29.58
12001,743.39,756.02,755.60,754.46,752.37,364.75,-879.39,106.93,61.26,12.56,-223.79,25.28
12036,743.39,756.04,755.53,754.40,752.34,245.12,-1173.34,18.55,103.05,18.22,-250.14,24.39
12072,743.31,755.94,755.42,754.50,752.29,166.50,-1335.94,-101.07,87.82,32.51,-250.14,21.23
12107,743.23,756.00,755.50,754.41,752.29,181.15,-1637.21,-95.70,68.47,71.53,-250.14,24.36
12145,743.24,756.03,755.39,754.44,752.28,246.58,-2000.00,-112.79,40.85,105.95,-250.14,20.84
12180,743.19,756.00,755.38,754.42,752.25,131.35,-2000.00,-259.28,51.93,147.48,-250.14,21.36
12215,743.16,755.87,755.44,754.37,752.21,-293.46,-2000.00,-640.62,84.21,178.82,-250.14,24.69
12251,743.18,756.15,755.34,754.28,752.24,-1113.28,-2000.00,-1098.63,8.32,105.60,-171.15,21.24
12286,743.32,756.02,755.28,754.17,752.20,395.02,-754.88,-470.21,-250.14,-192.73,-151.47,22.06
12324,745.01,756.10,755.39,754.16,752.66,-1700.20,-1097.17,623.54,23.25,79.76,14.74,18.42
12359,758.96,757.04,755.86,754.36,756.55,-2000.00,-333.50,-1247.07,-28.44,-62.71,216.74,-28.26
12394,787.23,762.46,755.87,754.57,765.03,-104.98,-2000.00,270.51,250.13,148.07,250.13,-171.48
12429,785.77,769.42,761.97,755.40,768.14,-510.74,247.56,129.88,95.14,-60.88,23.80,-82.51
12464,776.92,778.98,769.65,758.91,771.12,-124.02,-391.11,874.02,-20.63,22.16,16.31,10.66
12499,773.34,784.33,774.92,761.84,773.61,130.37,-801.27,670.41,11.34,-2.81,13.05,68.26
12536,770.77,784.49,778.96,765.00,774.81,77.64,-766.11,641.11,23.95,1.05,-0.84,129.95
12572,767.62,781.14,781.53,766.66,774.24,81.05,-848.63,555.66,32.04,3.82,-3.45,207.27
12607,764.90,778.84,783.31,767.67,773.68,29.79,-754.39,619.14,15.14,7.21,-2.30,264.31
12642,763.54,777.18,784.35,768.27,773.34,44.43,-815.92,591.31,1.27,5.19,-1.38,299.44
12677,763.72,774.33,785.85,769.17,773.27,62.99,-823.24,602.54,5.78,-0.47,-3.03,345.78
12713,764.13,771.63,787.17,770.12,773.26,61.04,-819.34,614.75,-0.36,2.80,-6.74,385.13
12751,764.75,770.02,788.09,771.33,773.55,52.73,-815.43,622.56,4.06,4.37,-6.89,401.06
12786,765.32,768.71,788.50,772.18,773.67,63.48,-809.08,612.79,2.47,1.54,-4.31,407.17
12821,767.20,767.28,788.41,772.05,773.74,56.15,-776.86,617.19,1.98,1.29,-4.15,411.96
12857,770.26,765.87,788.01,770.97,773.78,66.89,-816.41,597.66,-6.37,-2.44,-7.57,418.62
12892,771.90,764.99,787.76,770.03,773.67,47.85,-809.57,642.09,-5.92,-2.02,-6.27,427.60
12927,772.37,764.76,787.47,769.52,773.53,78.12,-806.15,593.75,-2.92,-0.73,-0.14,428.21
12965,771.24,764.62,787.28,769.20,773.09,93.26,-829.10,588.38,-3.51,0.15,0.48,433.23
13000,769.34,764.43,787.24,769.52,772.63,81.05,-845.70,579.10,-1.47,3.47,0.45,435.69
13036,767.66,764.08,787.19,769.95,772.22,63.48,-794.43,566.41,0.90,1.82,-1.89,436.66
13071,765.16,764.34,787.09,770.70,771.82,81.05,-801.27,603.52,-4.14,2.62,4.32,429.47
13106,761.79,765.04,787.16,772.28,771.57,88.38,-841.80,584.96,2.50,9.45,5.52,414.01
13144,757.70,766.15,787.51,776.09,771.87,109.37,-875.00,595.21,12.87,12.46,16.93,371.66
13180,752.84,767.11,787.78,781.47,772.30,46.39,-901.37,600.59,21.82,25.49,33.99,308.24
13215,748.30,766.96,787.82,786.09,772.29,19.53,-875.98,628.91,26.73,23.10,39.96,257.84
13250,745.56,766.08,787.83,789.15,772.16,46.88,-778.81,662.60,23.53,28.56,34.01,229.72
13285,745.18,764.17,787.61,789.63,771.65,258.79,-743.16,859.37,-39.30,4.02,47.67,233.80
13321,744.85,762.48,787.46,785.44,770.06,-23.93,-1001.46,660.64,-18.47,40.90,64.95,306.42
13359,744.45,760.48,787.04,776.84,767.20,-125.49,-1094.73,604.49,19.04,43.72,101.40,439.93
13394,743.99,758.54,785.40,766.94,763.72,-202.64,-1293.46,490.72,-22.96,9.60,128.53,561.99
13429,743.78,757.63,772.29,758.66,758.09,-163.57,-1820.31,714.36,18.89,-73.66,143.93,364.99
13464,744.00,757.12,757.45,755.59,753.54,-22.95,-1141.60,524.41,121.59,-89.84,137.89,43.85
13500,743.80,756.59,756.98,754.95,753.08,284.18,-446.29,-31.25,-139.08,-68.54,5.60,46.65
13535,743.90,756.35,756.45,754.89,752.90,380.37,-329.59,186.52,-59.59,-31.91,-36.75,35.83
13573,743.74,756.25,756.31,754.72,752.76,308.59,-340.33,460.94,-104.52,8.27,-48.37,36.08
13608,743.69,756.23,756.23,754.67,752.71,177.73,-571.29,718.26,-112.63,-14.94,-73.68,35.30
13643,743.72,756.13,756.16,754.55,752.64,82.52,-622.56,744.63,-64.14,-57.50,-81.73,36.01
13678,743.67,756.14,756.03,754.56,752.60,96.68,-718.26,745.12,-58.82,-90.06,-89.02,32.57
13714,743.66,756.04,755.93,754.47,752.52,-34.18,-943.85,770.02,-58.10,-79.34,-86.32,32.33
13751,743.64,756.07,755.91,754.49,752.53,-441.41,-993.65,755.86,-14.45,-77.72,-79.56,31.52
13786,743.55,756.08,755.89,754.53,752.51,-437.50,-928.71,804.20,-30.47,-128.79,-35.54,30.48
13821,743.57,755.86,755.78,754.44,752.41,-312.50,-853.03,860.35,-33.58,-105.50,3.66,30.86
13856,743.59,755.84,755.83,754.40,752.41,-282.23,-924.80,792.97,-9.20,-62.29,26.98,32.69
13891,743.51,755.87,755.80,754.35,752.38,-83.50,-1018.55,604.00,16.97,-41.50,14.04,32.85
13927,743.49,755.82,755.79,754.35,752.36,-100.59,-692.87,659.18,-25.79,-24.34,22.61,33.11
13964,743.53,755.73,755.77,754.36,752.35,26.86,-903.81,716.80,-7.77,-6.55,38.66,32.96
14000,743.54,755.76,755.78,754.31,752.35,196.29,-907.23,646.00,1.11,-10.32,19.66,33.54
14035,743.61,755.76,755.70,754.39,752.37,192.87,-744.14,652.83,-5.79,4.60,20.08,30.40
14070,743.51,755.76,755.73,754.41,752.35,206.05,-858.89,683.11,3.39,20.63,9.89,31.01
14105,743.52,755.67,755.71,754.35,752.31,166.50,-879.39,655.76,6.02,19.10,3.37,32.02
14140,743.52,755.68,755.73,754.40,752.33,172.85,-820.31,588.38,19.40,9.44,-1.82,31.72
14178,743.55,755.69,755.67,754.30,752.30,146.00,-827.15,479.98,4.58,15.24,-0.53,31.49
14213,743.56,755.74,755.75,754.43,752.37,104.49,-817.38,448.73,-19.12,24.10,1.57,31.11
14248,743.46,755.71,755.73,754.45,752.34,963.87,-1461.91,784.18,14.61,0.29,-21.63,31.07
14284,743.52,755.87,755.95,754.51,752.46,206.54,-1251.46,501.95,18.22,18.11,-26.63,34.15
14319,743.90,756.29,756.09,754.73,752.75,240.72,-1138.18,400.88,1.68,-20.35,-6.35,29.81
14354,744.95,756.78,756.30,754.95,753.24,109.86,-913.09,440.43,31.34,1.82,2.35,24.14
14392,747.21,757.41,756.49,755.26,754.09,110.84,-889.16,486.82,21.92,2.81,5.50,11.49
14428,751.41,758.42,756.83,755.71,755.59,69.82,-828.61,514.65,16.06,4.76,3.15,-9.11
14463,757.66,759.59,757.32,756.09,757.66,146.97,-894.04,519.53,26.37,-2.02,2.37,-33.35
14498,764.49,760.43,757.74,756.64,759.82,130.86,-880.86,534.67,26.00,2.64,2.06,-61.07
14534,769.89,761.37,758.12,757.22,761.65,94.73,-853.03,549.80,11.22,-0.87,1.77,-86.37
14569,774.06,762.35,758.41,757.59,763.10,107.42,-892.58,524.90,8.35,0.59,1.85,-106.49
14607,779.47,763.75,758.83,758.27,765.08,128.42,-828.61,555.18,5.67,-0.08,-0.18,-136.01
14642,784.23,765.24,759.26,759.00,766.94,129.39,-823.73,564.45,10.65,-0.17,0.43,-164.32
14677,787.27,766.62,759.53,759.69,768.28,109.37,-865.23,567.87,4.65,0.16,1.09,-189.18
14712,788.10,768.03,759.85,760.27,769.06,111.82,-836.91,559.57,-1.75,5.44,3.39,-203.89
14748,788.21,769.40,760.21,761.07,769.72,101.56,-849.12,569.82,3.93,3.44,0.64,-218.09
14783,787.96,770.37,760.48,761.79,770.15,96.68,-853.52,590.33,4.47,3.40,-0.18,-228.94
14821,786.68,771.31,761.01,762.38,770.35,89.84,-848.63,579.59,4.55,4.13,0.42,-227.57
14856,785.42,771.93,761.25,762.99,770.40,116.21,-847.17,562.01,3.04,5.56,2.24,-231.13
14892,784.53,772.47,761.66,763.63,770.57,106.93,-849.12,560.55,5.29,6.93,0.61,-231.72
14927,783.85,772.77,761.94,764.39,770.74,92.77,-829.10,580.57,5.98,4.90,-1.69,-236.03
14962,782.60,773.13,762.20,764.91,770.71,99.61,-842.29,566.89,3.35,1.70,4.13,-235.80
15000,781.07,773.68,762.71,765.76,770.81,96.68,-814.94,581.05,3.69,3.66,4.01,-234.91
15036,779.85,774.01,763.35,766.37,770.89,93.26,-823.24,577.64,2.92,1.75,1.70,-226.03
15071,779.43,773.91,763.65,766.56,770.89,94.73,-825.68,578.12,-0.28,2.08,-0.67,-219.43
15107,780.09,773.63,763.79,766.62,771.03,92.29,-828.12,591.80,1.87,1.27,2.85,-216.64
15142,781.47,772.93,763.60,766.09,771.02,99.61,-839.84,580.08,3.74,-0.43,-0.82,-212.59
15177,784.00,772.15,763.11,765.13,771.10,92.77,-799.80,592.29,1.83,-3.53,-0.83,-213.27
15220,787.41,770.78,762.21,763.29,770.93,107.91,-835.94,588.87,-2.11,-1.64,-1.76,-209.30
15255,788.25,769.26,761.45,761.68,770.16,106.45,-847.17,571.78,-2.45,-0.23,-2.09,-195.11
15290,787.65,767.72,760.77,760.42,769.14,85.94,-820.31,574.71,6.02,0.56,-2.95,-179.35
15326,786.35,766.28,760.08,759.50,768.05,98.63,-825.68,575.20,1.56,1.19,-2.15,-166.85
15361,783.73,764.98,759.55,758.56,766.70,106.93,-834.47,586.43,-7.44,-0.50,-2.18,-146.86
15396,779.84,764.07,759.17,757.82,765.22,106.45,-831.54,568.36,-6.76,2.69,-0.43,-124.85
15437,773.84,763.45,758.84,757.31,763.36,98.63,-819.82,579.59,-5.92,-0.44,3.48,-99.85
15473,765.40,762.71,758.41,756.88,760.85,116.21,-845.70,551.27,-13.21,4.85,1.24,-69.40
15508,755.49,761.82,757.94,756.34,757.90,116.70,-866.21,541.02,-11.81,7.28,7.60,-32.06
15543,748.29,760.86,757.32,755.81,755.57,103.03,-892.58,522.95,-13.71,7.21,7.72,-7.23
15579,745.43,759.53,756.64,755.21,754.20,66.41,-878.42,393.55,-20.53,-5.63,8.85,5.11
15614,745.01,757.96,756.18,754.93,753.52,208.98,-765.62,463.87,-107.56,-101.74,26.88,11.78
15652,744.90,757.05,755.90,754.60,753.11,350.10,-929.20,449.22,-35.38,-71.37,24.27,17.37
15687,744.98,756.84,755.76,754.52,753.03,-109.86,-1356.93,646.00,-16.65,-56.86,-4.29,16.36
15723,746.16,757.46,755.80,754.64,753.52,-93.75,-1326.66,1061.52,78.93,-84.21,4.94,6.59
15758,748.58,757.82,756.10,754.92,754.36,-28.81,-769.53,379.88,-111.18,-82.80,-0.23,-1.26
15793,749.97,757.78,756.26,755.14,754.79,-64.45,-558.11,562.50,46.32,8.94,0.18,-4.91
15829,750.47,757.70,756.32,755.22,754.93,38.09,-724.61,610.35,34.97,15.51,-3.21,-5.53
15866,750.49,757.65,756.35,755.05,754.88,77.15,-794.92,569.82,-3.78,3.92,1.14,-2.06
15902,752.12,757.81,756.33,755.09,755.34,107.91,-879.88,534.67,-1.47,1.01,0.77,-10.01
15938,754.66,758.13,756.41,755.17,756.09,79.59,-875.98,535.64,-7.38,-5.35,3.52,-20.54
15974,757.23,758.64,756.52,755.26,756.91,114.75,-889.16,503.42,12.95,3.01,-0.31,-31.81
16010,760.52,759.04,756.72,755.55,757.96,89.36,-839.36,555.18,14.18,4.47,-2.98,-45.79
16045,765.50,760.15,757.04,756.04,759.68,171.39,-775.39,589.84,13.27,-2.11,3.37,-71.09
16083,768.47,761.25,757.25,756.51,760.87,85.45,-875.49,534.67,9.02,-3.15,1.68,-91.77
16119,771.06,762.00,757.36,756.83,761.81,131.35,-877.44,533.69,4.14,2.57,0.59,-108.67
16155,772.62,762.70,757.59,757.28,762.55,85.94,-862.79,567.38,11.21,2.69,-0.66,-120.48
16190,772.31,763.30,757.69,757.58,762.72,107.91,-856.93,548.34,-1.06,-0.30,3.55,-125.95
16226,772.23,763.68,757.75,757.78,762.86,106.45,-869.14,539.06,5.94,2.62,0.89,-130.23
16264,772.64,763.86,757.79,757.95,763.06,83.50,-827.15,563.96,8.06,5.06,0.50,-134.49
16299,772.94,763.83,757.79,757.99,763.14,84.47,-815.43,574.71,7.77,5.12,2.92,-136.04
16335,773.98,764.05,757.75,757.83,763.40,93.26,-819.34,548.83,5.56,-0.44,5.12,-139.97
16371,775.21,764.09,757.66,757.56,763.63,120.12,-841.31,555.18,-0.45,0.71,2.45,-142.82
16406,775.65,764.02,757.54,757.21,763.61,120.12,-822.75,568.36,4.43,3.03,2.37,-141.78
16442,775.71,763.94,757.36,756.96,763.49,101.07,-821.29,570.31,3.71,3.30,0.56,-141.97
16480,775.95,763.56,757.11,756.47,763.28,109.86,-875.00,531.25,-5.10,-0.99,-0.25,-138.73
16515,776.01,763.08,756.89,755.82,762.95,82.03,-892.09,558.11,-11.21,-1.08,1.12,-131.12
16551,776.76,762.53,756.60,755.37,762.82,101.07,-840.82,543.46,-17.44,-1.08,-2.06,-129.87
16587,778.46,761.82,756.31,755.05,762.91,91.80,-834.96,533.69,-36.34,-8.85,-6.79,-132.34
16622,779.27,761.49,756.15,754.89,762.95,134.77,-913.57,552.25,-20.39,-6.11,-3.40,-134.15
16658,778.84,761.05,756.13,754.83,762.71,75.68,-825.68,572.75,-7.83,1.12,-5.09,-128.66
16696,777.76,760.55,756.00,754.78,762.27,133.30,-923.34,481.45,-0.08,4.76,-6.18,-123.53
16731,775.84,760.21,755.96,754.70,761.68,125.00,-868.65,525.39,9.37,6.50,-1.87,-114.20
16767,771.09,759.58,755.85,754.74,760.32,102.05,-819.34,555.66,-14.76,-1.41,-0.59,-96.04
16803,765.12,758.77,755.78,754.56,758.56,91.80,-876.46,521.00,-41.62,-7.85,1.19,-68.32
16838,761.31,758.08,755.66,754.44,757.37,154.30,-975.10,397.46,-28.76,-3.18,-1.85,-50.72
16874,758.99,757.62,755.56,754.39,756.64,113.77,-894.53,487.79,29.39,12.16,3.25,-41.02
16913,756.55,757.23,755.48,754.29,755.89,106.93,-830.57,528.32,7.85,5.07,1.08,-30.02
16948,754.07,756.87,755.47,754.21,755.15,117.68,-868.65,521.97,-18.02,-3.41,0.43,-17.54
16984,752.12,756.64,755.45,754.30,754.63,127.93,-880.37,481.45,0.04,3.51,0.00,-10.92
17020,750.97,756.62,755.45,754.31,754.34,127.93,-880.86,495.12,9.41,4.53,-0.44,-6.80
17055,750.34,756.50,755.50,754.34,754.17,104.00,-854.00,524.41,7.59,4.92,-0.32,-2.86
17091,749.89,756.61,755.52,754.50,754.13,95.70,-851.07,544.43,12.69,4.26,1.21,-4.22
17129,749.53,756.55,755.51,754.46,754.01,107.91,-881.84,512.21,-14.73,-2.97,-2.00,-2.31
17164,749.41,756.47,755.57,754.47,753.98,118.65,-884.77,485.35,-3.56,-0.76,2.36,0.27
17200,749.45,756.50,755.54,754.46,753.99,109.86,-877.44,499.51,5.03,1.81,-1.12,-0.80
17235,749.54,756.41,755.51,754.45,753.98,125.98,-868.65,505.86,2.50,3.64,0.22,-0.85
17271,749.52,756.28,755.51,754.42,753.93,109.86,-872.56,512.21,1.56,1.05,1.31,0.66
17306,749.55,756.31,755.50,754.44,753.95,121.09,-871.09,515.14,1.48,5.20,-0.61,-0.39
17344,749.56,756.37,755.58,754.49,754.00,104.49,-863.28,517.58,3.80,-0.76,0.47,0.62
17379,749.52,756.48,755.50,754.53,754.01,130.86,-879.39,502.93,3.83,-2.40,2.72,-2.83
17415,749.56,756.61,755.62,754.55,754.09,99.12,-807.13,548.34,7.40,0.67,1.14,-1.22
17450,749.51,756.67,755.58,754.61,754.09,109.37,-840.33,513.67,-3.82,0.35,-0.13,-3.58
17485,749.72,756.70,755.62,754.62,754.16,106.45,-856.93,520.02,-8.73,-5.27,0.87,-3.42
17521,750.01,756.71,755.58,754.55,754.21,117.19,-882.81,487.30,-2.30,-1.65,1.45,-4.59
17558,750.13,756.65,755.55,754.50,754.21,102.05,-864.75,516.11,-12.44,-2.21,3.20,-4.75
17594,750.20,756.62,755.55,754.47,754.21,127.93,-898.93,480.96,-10.71,-0.05,-2.24,-4.12
17630,750.15,756.60,755.50,754.47,754.18,125.00,-891.60,482.42,-6.02,1.05,2.01,-5.07
17665,749.99,756.62,755.56,754.47,754.16,135.74,-905.76,481.93,-4.04,3.17,0.23,-3.26
17701,749.85,756.57,755.51,754.52,754.11,108.89,-865.72,502.93,2.22,1.67,-1.33,-4.20
17739,749.86,756.57,755.47,754.54,754.11,119.63,-903.32,479.98,5.63,1.05,0.02,-5.63
17775,750.04,756.46,755.51,754.52,754.13,121.09,-884.77,472.66,11.64,5.63,-0.17,-4.18
17810,750.25,756.45,755.50,754.50,754.17,108.89,-870.61,515.14,7.13,3.59,-1.81,-4.67
17846,750.34,756.40,755.54,754.49,754.19,112.79,-872.56,520.02,6.37,4.14,0.84,-3.45
17882,750.35,756.38,755.58,754.44,754.19,114.26,-878.42,497.07,-0.74,1.52,0.37,-1.62
17918,750.43,756.44,755.61,754.42,754.22,114.26,-867.68,509.77,0.90,0.69,1.79,-1.17
17955,750.32,756.40,755.60,754.44,754.19,114.26,-879.88,497.56,-1.66,-0.11,0.69,-1.12
17991,750.41,756.41,755.56,754.52,754.23,116.70,-882.32,488.28,-1.16,0.87,1.78,-3.59
18027,750.43,756.44,755.61,754.49,754.24,121.58,-884.77,509.28,1.47,-0.40,0.06,-2.25
18062,750.57,756.51,755.59,754.47,754.28,118.65,-879.39,504.88,0.84,1.81,0.12,-3.61
18098,750.52,756.45,755.68,754.43,754.27,113.28,-869.14,500.00,-3.97,1.18,1.93,-0.02
18133,750.61,756.47,755.57,754.47,754.28,112.79,-891.11,489.75,0.11,1.85,-3.05,-3.99
18171,750.55,756.47,755.60,754.44,754.26,117.68,-884.28,497.07,0.23,0.99,-0.13,-2.43
18207,750.65,756.52,755.63,754.54,754.34,114.75,-881.35,502.93,1.36,-1.02,-0.44,-3.86
18242,750.81,756.50,755.64,754.51,754.37,108.40,-878.42,499.51,1.08,0.37,-0.01,-3.66
18277,750.91,756.49,755.62,754.52,754.39,114.26,-889.65,488.28,1.10,3.34,-1.15,-4.54
18313,751.00,756.51,755.64,754.57,754.43,120.61,-880.37,491.21,4.03,3.37,-3.47,-5.30
18348,751.05,756.52,755.64,754.55,754.44,110.84,-865.23,502.93,2.36,3.33,0.18,-5.29
18386,750.95,756.47,755.67,754.61,754.42,116.21,-873.05,504.39,-0.80,1.44,0.60,-4.71
18421,750.84,756.54,755.68,754.62,754.42,119.63,-898.44,498.05,3.15,-0.01,1.24,-4.65
18457,750.55,756.62,755.76,754.72,754.41,118.16,-878.91,515.14,-0.40,0.51,1.23,-3.84
18492,750.12,756.74,755.74,754.72,754.33,133.30,-871.58,497.07,-2.39,1.56,1.92,-3.80
18528,749.04,756.83,755.82,754.75,754.11,97.17,-877.93,495.61,1.87,0.98,2.11,0.79
18563,747.23,756.74,755.87,754.80,753.66,100.10,-904.30,492.68,0.27,-3.79,2.98,8.26
18601,745.84,756.50,755.77,754.53,753.16,119.63,-928.71,390.14,0.95,-14.79,8.02,16.33
18637,745.43,756.25,755.48,754.41,752.90,479.98,-737.79,279.30,-85.32,-90.29,2.07,14.24
18672,745.02,756.29,755.48,754.47,752.81,787.60,-384.28,46.39,38.36,-31.84,-54.66,14.46
18708,744.79,756.31,755.55,754.51,752.79,874.02,-1173.83,318.36,-111.26,-15.60,-51.85,16.36
18743,744.70,756.23,755.52,754.44,752.72,527.83,-911.62,558.11,-47.86,-31.20,-62.27,17.39
18779,744.57,756.05,755.49,754.46,752.64,507.32,-953.61,517.58,-55.51,-59.32,-71.73,18.30
18817,744.48,755.96,755.46,754.40,752.58,489.26,-1118.16,467.77,-9.02,-24.11,-81.08,19.52
18852,744.45,755.85,755.41,754.33,752.51,361.82,-972.66,384.77,-6.69,-6.00,-98.00,20.32
18887,744.41,755.82,755.35,754.35,752.48,203.61,-1067.87,392.58,1.15,-9.21,-97.74,18.81
18923,744.39,755.74,755.36,754.30,752.44,210.94,-932.13,320.31,-4.48,-28.78,-84.05,20.55
18958,744.30,755.58,755.30,754.33,752.38,342.77,-960.45,290.53,-20.75,-45.02,-68.20,20.32
18993,744.35,755.63,755.38,754.32,752.42,363.28,-808.11,265.62,-14.20,-44.09,-65.79,21.74
19031,744.30,755.57,755.25,754.36,752.37,469.24,-782.71,268.55,-18.25,-37.22,-55.38,18.72
19066,744.29,755.52,755.31,754.29,752.35,499.51,-802.73,274.41,-17.21,-25.82,-51.21,21.59
19102,744.26,755.52,755.30,754.36,752.36,551.76,-735.84,208.01,-4.77,-10.51,-47.38,20.30
19137,744.32,755.51,755.24,754.34,752.35,513.67,-645.51,166.02,-17.64,0.19,-39.93,19.08
19172,744.20,755.41,755.24,754.31,752.29,497.56,-721.68,191.41,-35.91,6.29,-38.98,20.78
19210,744.24,755.47,755.23,754.38,752.33,480.96,-830.08,233.40,-5.70,18.63,-29.80,18.86
19245,744.23,755.45,755.19,754.31,752.29,450.68,-555.18,192.38,7.49,2.93,-14.07,19.07
19281,744.20,755.44,755.20,754.31,752.29,497.07,-660.64,202.64,-12.94,-19.49,1.90,19.43
19316,744.29,755.45,755.24,754.34,752.33,715.33,-637.70,157.23,-9.81,-22.73,11.94,19.53
19352,744.17,755.45,755.26,754.33,752.30,843.75,-731.93,147.95,-10.31,-5.28,9.33,20.66
19387,744.13,755.47,755.16,754.30,752.27,750.00,-725.10,166.99,-11.58,4.79,-7.70,18.72
19425,744.20,755.42,755.24,754.47,752.33,791.02,-672.36,153.81,-3.98,11.45,-13.57,18.36
19461,744.18,755.42,755.22,754.36,752.30,886.72,-679.69,98.63,-2.93,12.88,-3.12,19.44
19496,744.20,755.45,755.18,754.32,752.29,774.90,-743.65,125.98,-14.73,4.91,-10.31,18.77
19531,744.15,755.43,755.26,754.31,752.29,800.29,-711.91,142.09,-1.46,3.85,-15.55,21.19
19567,744.20,755.39,755.13,754.29,752.25,756.84,-630.37,124.02,-0.19,-2.61,-9.95,18.37
19603,744.13,755.40,755.13,754.30,752.24,708.01,-663.57,149.41,-5.77,-6.65,-12.18,18.43
19641,744.11,755.48,755.21,754.40,752.30,682.13,-601.56,125.00,0.99,-8.35,-7.80,18.38
19676,744.12,755.43,755.14,754.31,752.25,752.44,-640.62,117.68,0.56,1.51,-2.14,18.42
19712,744.15,755.38,755.16,754.30,752.25,749.51,-686.52,142.09,-5.15,1.83,-10.67,19.44
19748,744.14,755.39,755.22,754.31,752.27,699.22,-703.61,166.50,4.87,0.92,-13.73,20.52
19784,744.08,755.40,755.15,754.34,752.24,702.15,-536.62,108.40,6.79,0.04,-2.14,18.52
19819,744.13,755.40,755.17,754.33,752.26,728.52,-604.98,114.26,-10.24,-4.47,7.46,19.00
19857,744.11,755.39,755.14,754.38,752.26,733.89,-702.15,162.60,-3.58,-0.01,3.15,17.84
19892,744.08,755.34,755.18,754.36,752.24,733.89,-642.09,148.93,10.15,9.18,8.18,19.33
19928,744.06,755.34,755.18,754.35,752.23,768.55,-631.35,127.44,-2.04,6.15,11.46,19.70
19963,744.08,755.36,755.16,754.27,752.22,782.23,-707.52,140.14,1.41,-1.99,2.92,20.09
19999,744.03,755.36,755.17,754.33,752.22,805.66,-624.02,113.77,4.63,-1.89,2.50,19.70
20034,744.06,755.41,755.15,754.26,752.22,812.01,-646.48,113.77,-4.12,1.32,6.94,19.83
20072,744.04,755.40,755.20,754.33,752.24,815.43,-694.82,137.70,0.05,1.17,-1.16,20.01
20108,744.07,755.38,755.16,754.33,752.24,761.72,-692.38,122.07,1.00,1.44,-6.92,19.29
20144,744.07,755.40,755.20,754.35,752.25,771.00,-679.20,113.77,6.04,4.67,-1.61,19.74
20179,744.12,755.40,755.12,754.31,752.24,759.28,-652.34,99.61,-4.26,-1.67,-1.04,17.99
20215,744.07,755.43,755.23,754.30,752.26,751.95,-670.90,124.02,0.15,-1.65,-3.70,20.86
20250,744.07,755.46,755.18,754.44,752.29,755.37,-645.02,127.93,2.78,1.66,-1.34,17.50
20288,744.05,755.43,755.23,754.36,752.27,772.95,-650.39,120.61,-2.09,2.38,2.37,20.00
20324,744.03,755.42,755.13,754.37,752.24,780.27,-674.32,142.58,-6.85,-1.18,1.44,17.68
20360,744.03,755.33,755.14,754.35,752.21,752.93,-672.36,160.64,-0.31,1.57,-0.47,18.84
20395,744.11,755.43,755.19,754.37,752.28,768.55,-664.55,127.44,2.50,5.79,2.06,18.87
20431,743.98,755.39,755.08,754.34,752.20,806.64,-638.67,121.58,-1.45,-2.03,1.22,17.07
20466,744.02,755.41,755.15,754.29,752.22,787.60,-693.85,144.04,0.27,0.69,-2.95,19.40
20504,744.06,755.44,755.17,754.28,752.24,760.25,-637.70,132.81,3.02,3.05,1.12,19.58
20539,744.02,755.43,755.13,754.29,752.22,739.75,-639.65,127.93,-1.91,1.79,2.86,18.78
20575,744.05,755.38,755.11,754.36,752.23,736.33,-652.83,133.79,2.24,0.43,0.33,17.46
20610,743.99,755.39,755.09,754.28,752.19,742.19,-657.23,140.62,1.27,1.39,-1.15,18.35
20646,744.00,755.39,755.15,754.33,752.22,726.56,-638.67,132.81,3.84,1.27,-2.15,19.09
20681,744.02,755.35,755.14,754.36,752.22,738.28,-651.37,135.74,8.50,3.12,6.44,18.61
20720,744.02,755.32,755.19,754.31,752.21,734.86,-630.86,136.23,0.23,7.39,9.69,20.78
20755,744.01,755.30,755.14,754.39,752.21,705.08,-683.11,167.97,4.27,10.05,7.31,18.67
20791,744.00,755.32,755.14,754.38,752.21,721.19,-681.15,167.97,14.53,30.84,11.06,18.68
20826,744.01,755.39,755.11,754.37,752.22,696.29,-600.10,182.62,5.13,43.66,21.91,17.41
20862,744.13,755.34,755.14,754.38,752.25,579.59,-713.38,234.37,2.79,32.85,27.24,18.03
20897,744.02,755.39,755.14,754.35,752.22,557.62,-655.27,231.93,17.20,22.74,31.53,18.49
20934,744.03,755.37,755.14,754.45,752.25,684.08,-667.48,216.80,14.63,22.38,50.80,17.12
20970,744.09,755.33,755.13,754.34,752.22,666.99,-766.11,252.93,2.48,31.26,52.19,18.60
21006,743.93,755.38,755.12,754.43,752.22,603.52,-770.51,271.97,15.21,49.18,38.50,17.05
21041,743.93,755.38,755.16,754.39,752.22,477.54,-722.17,285.16,11.13,55.86,44.07,18.58
21077,744.00,755.35,755.12,754.32,752.20,422.36,-774.41,349.12,2.96,52.18,51.85,18.80
21115,743.88,755.50,755.16,754.32,752.22,307.13,-809.08,366.70,24.08,47.16,52.36,18.94
21150,743.86,755.46,755.11,754.36,752.20,360.35,-750.00,374.02,12.21,44.97,65.68,17.55
21186,743.88,755.47,755.26,754.40,752.25,413.57,-850.10,372.56,16.35,47.27,70.73,20.46
21221,743.86,755.55,755.19,754.35,752.24,377.44,-892.58,371.09,9.87,39.94,61.53,19.03
21257,743.89,755.52,755.22,754.42,752.26,398.93,-948.73,422.36,6.32,21.92,65.68,18.87
21293,743.92,755.54,755.22,754.43,752.28,409.67,-997.07,428.22,2.11,9.34,61.05,18.47
21331,743.87,755.58,755.24,754.40,752.27,333.50,-999.02,414.06,15.15,24.42,47.27,19.15
21366,743.79,755.57,755.21,754.47,752.26,293.46,-888.18,414.55,2.86,27.02,49.40,17.87
21402,743.89,755.51,755.12,754.36,752.22,382.81,-961.91,432.13,3.82,28.05,50.55,17.15
21438,743.86,755.55,755.15,754.41,752.25,325.68,-968.26,427.73,6.77,14.60,27.25,17.07
21473,743.79,755.52,755.16,754.43,752.23,248.54,-984.37,422.85,21.29,15.95,19.08,17.37
21509,743.86,755.56,755.09,754.52,752.26,294.92,-838.87,390.14,-3.21,10.61,31.44,14.04
21545,743.82,755.42,755.13,754.47,752.21,270.02,-973.63,412.11,-16.78,9.83,32.09,16.83
21581,743.99,755.45,755.11,754.45,752.25,220.21,-957.03,452.15,-5.39,12.59,20.79,15.80
21617,744.05,755.38,755.11,754.40,752.23,265.62,-1061.52,498.54,-55.79,-1.35,20.83,17.00
21653,743.98,755.39,755.09,754.35,752.20,177.25,-618.65,536.13,39.59,-6.52,1.93,17.39
21688,743.95,755.44,755.11,754.40,752.23,210.94,-999.51,419.43,-4.70,-16.86,-6.25,16.71
21724,744.04,755.48,755.13,754.41,752.26,272.46,-747.56,379.39,13.45,-2.18,8.58,16.37
21762,744.35,755.58,755.20,754.44,752.39,228.03,-969.24,492.68,2.55,10.42,33.34,15.92
21798,744.48,755.60,755.23,754.45,752.44,164.55,-949.71,299.32,-2.58,-3.22,1.02,15.82
21833,744.53,755.75,755.22,754.42,752.48,145.51,-971.68,438.96,4.72,2.02,4.63,14.77
21869,744.98,755.82,755.24,754.52,752.64,131.35,-886.23,445.80,8.99,4.44,0.27,11.70
21904,745.48,755.93,755.25,754.50,752.79,125.49,-887.70,465.82,11.63,1.98,1.15,9.52
21940,745.49,756.12,755.28,754.49,752.85,114.75,-882.81,486.82,-2.76,-0.80,2.07,9.03
21978,745.72,755.93,755.26,754.48,752.85,136.72,-902.34,465.82,-3.51,0.08,1.29,9.27
22013,745.89,755.93,755.22,754.47,752.88,127.44,-879.39,480.96,0.60,2.46,-0.44,8.04
22049,746.03,755.89,755.25,754.49,752.92,122.07,-893.55,469.73,-0.02,3.07,-0.98,8.12
22084,745.87,755.73,755.20,754.47,752.82,106.93,-877.44,481.93,-6.76,-0.89,-1.94,8.98
22120,745.58,755.57,755.07,754.50,752.68,116.21,-879.88,486.33,-11.29,-0.49,0.94,7.76
22155,745.13,755.55,755.03,754.35,752.52,122.07,-930.18,372.07,-17.24,0.70,2.84,10.70
22193,744.73,755.63,755.07,754.38,752.45,-355.96,-959.47,458.98,7.27,20.69,-5.05,11.87
22228,744.35,755.85,755.04,754.38,752.40,-471.68,-933.59,458.50,1.35,0.89,7.73,10.62
22263,744.22,755.97,755.10,754.56,752.46,-133.30,-935.06,517.58,6.12,-14.06,10.51,9.01
22297,744.24,756.08,755.18,754.70,752.55,336.43,-845.70,527.34,18.37,-14.79,8.44,8.08
22332,744.59,756.06,755.23,754.75,752.66,676.27,-805.18,514.65,-0.84,2.15,-0.27,7.42
22368,744.68,756.09,755.22,754.72,752.68,893.55,-815.92,405.76,-4.08,5.33,-1.09,7.17
22405,745.76,756.26,755.37,754.74,753.03,39.55,-837.89,475.59,32.31,4.13,1.40,5.50
22441,745.97,756.33,755.36,754.82,753.12,137.70,-918.46,449.71,2.57,0.59,2.66,2.71
22476,746.37,756.22,755.34,754.78,753.18,130.86,-899.90,477.05,-4.60,-1.26,0.98,2.39
22511,746.90,756.26,755.39,754.65,753.30,108.89,-862.79,497.07,2.70,0.88,0.98,3.34
22547,747.08,756.32,755.40,754.71,753.38,128.42,-868.65,479.00,0.66,-0.09,2.92,1.61
22582,747.27,756.31,755.40,754.61,753.40,128.42,-884.77,479.98,-3.31,-2.88,1.60,2.44
22620,747.37,756.22,755.40,754.63,753.41,120.61,-883.79,488.77,2.39,1.49,-0.32,2.50
22656,747.54,756.25,755.37,754.66,753.46,112.30,-879.39,493.16,3.69,0.72,-0.05,0.77
22691,747.63,756.22,755.37,754.62,753.46,117.68,-877.44,477.54,2.41,2.40,0.56,1.37
22727,747.72,756.18,755.33,754.60,753.46,132.32,-871.58,490.23,0.22,0.53,2.15,0.36
22761,747.82,756.25,755.37,754.50,753.48,116.70,-885.25,485.84,-0.53,3.40,0.81,1.95
22796,747.82,756.27,755.31,754.55,753.49,111.82,-888.67,487.79,0.75,0.88,0.70,-0.30
22834,747.94,756.21,755.36,754.56,753.52,111.82,-879.39,482.91,-1.46,4.12,-0.13,0.95
22868,747.91,756.23,755.37,754.60,753.53,111.33,-881.35,477.05,0.97,2.46,-0.15,0.51
22904,748.01,756.29,755.35,754.59,753.56,126.95,-863.28,492.19,0.96,0.63,0.53,-0.84
22939,748.05,756.31,755.37,754.55,753.57,114.75,-887.21,483.89,1.57,1.16,0.55,0.08
22974,748.00,756.20,755.32,754.57,753.52,109.37,-878.42,491.21,-0.37,0.62,0.07,-0.66
23008,748.09,756.30,755.37,754.51,753.57,118.65,-893.07,490.72,-1.44,0.89,0.68,0.40
23044,747.99,756.24,755.37,754.48,753.52,114.75,-884.28,501.46,0.15,-0.87,0.14,1.74
23079,748.06,756.24,755.31,754.57,753.55,123.05,-873.54,491.21,-1.08,-1.82,-1.40,-1.39
23115,748.09,756.23,755.30,754.61,753.56,108.89,-877.44,485.84,1.40,1.72,-0.17,-2.02
23150,748.20,756.30,755.27,754.55,753.58,122.56,-890.62,496.09,-0.43,0.92,-0.78,-2.92
23186,748.16,756.26,755.35,754.56,753.58,108.40,-899.90,480.96,0.21,1.57,-0.88,-0.60
23221,748.13,756.23,755.28,754.59,753.56,125.49,-879.39,492.68,0.51,-0.21,1.32,-2.34
23259,748.17,756.24,755.39,754.56,753.59,121.58,-887.70,478.52,2.17,1.74,-1.05,0.52
23295,748.24,756.25,755.30,754.50,753.57,101.07,-899.41,502.44,2.03,1.60,-1.37,-1.14
23330,748.22,756.20,755.32,754.62,753.59,115.72,-879.88,485.35,1.47,2.36,-0.65,-1.78
23365,748.24,756.23,755.33,754.56,753.59,126.95,-893.07,482.91,1.34,3.37,-0.08,-1.20
23400,748.23,756.24,755.32,754.55,753.59,117.68,-883.30,484.86,-0.05,3.21,-1.45,-1.29
23434,748.17,756.18,755.34,754.56,753.56,125.98,-881.84,499.51,-0.89,-0.21,-1.31,-0.23
23471,748.15,756.26,755.33,754.53,753.57,124.51,-878.42,482.91,2.41,0.37,-0.50,-0.56
23506,748.20,756.27,755.29,754.61,753.59,119.63,-875.00,501.46,1.86,0.18,-1.79,-3.03
23542,748.22,756.24,755.37,754.60,753.61,115.23,-896.48,486.33,2.43,0.30,-0.11,-0.78
23578,748.20,756.22,755.32,754.59,753.58,117.68,-882.81,491.21,-0.48,-0.03,2.96,-1.63
23613,748.10,756.24,755.36,754.58,753.57,116.70,-888.67,486.82,-0.16,1.41,-1.68,-0.31
23649,748.14,756.24,755.28,754.61,753.57,118.16,-891.60,489.26,-0.34,2.11,-2.04,-2.96
23687,748.15,756.22,755.26,754.52,753.54,118.16,-880.37,493.16,1.53,0.07,-0.72,-1.88
23722,748.14,756.23,755.32,754.56,753.56,116.70,-892.09,479.49,0.15,2.08,0.67,-1.06
23758,748.21,756.30,755.25,754.60,753.59,115.72,-888.67,483.40,0.69,1.77,-0.85,-3.97
23793,748.19,756.30,755.39,754.56,753.61,123.05,-888.67,494.14,1.35,1.18,2.34,0.04
23829,748.20,756.30,755.37,754.68,753.64,124.02,-869.63,486.33,1.31,2.24,-2.24,-2.26
23865,748.19,756.32,755.40,754.60,753.63,127.44,-872.07,498.05,0.92,2.16,-0.73,-0.66
23902,748.15,756.27,755.37,754.51,753.58,124.02,-872.07,492.68,-0.39,-0.13,0.19,0.53
23938,748.25,756.27,755.36,754.53,753.60,111.82,-886.23,504.88,-0.22,0.46,0.92,-0.35
23973,748.23,756.29,755.37,754.54,753.61,117.19,-883.79,492.68,0.02,0.09,0.11,-0.19
24009,748.29,756.28,755.37,754.65,753.65,110.84,-882.32,491.70,0.67,-1.68,1.81,-1.99
24044,748.26,756.36,755.38,754.54,753.64,109.86,-886.23,500.00,-0.66,4.64,1.62,-0.65
24080,748.21,756.33,755.38,754.59,753.63,115.23,-873.54,491.70,1.31,1.50,1.15,-0.80
24118,748.24,756.42,755.37,754.57,753.65,114.26,-891.60,496.09,-0.47,2.24,-0.69,-1.79
24153,748.21,756.40,755.34,754.60,753.64,117.68,-877.93,499.51,1.68,3.62,-0.50,-2.74
24189,748.27,756.41,755.41,754.62,753.68,105.47,-871.58,482.91,0.67,1.69,0.71,-1.58
24224,748.26,756.40,755.43,754.65,753.69,117.68,-876.95,484.37,0.37,-1.07,0.73,-1.40
24259,748.19,756.42,755.37,754.65,753.66,120.12,-886.72,494.14,-0.89,2.80,0.69,-2.78
24297,748.30,756.42,755.43,754.62,753.69,112.79,-880.37,502.44,1.18,0.73,0.32,-1.27
24332,748.23,756.43,755.39,754.61,753.67,117.19,-869.14,492.19,0.75,1.88,-0.83,-1.91
24367,748.29,756.37,755.34,754.66,753.66,121.09,-885.74,490.23,-0.87,1.18,0.43,-3.84
24403,748.34,756.35,755.34,754.62,753.66,114.75,-886.72,500.00,1.02,1.51,-2.34,-3.01
24439,748.21,756.36,755.42,754.61,753.65,108.40,-877.93,497.56,1.63,-0.69,1.44,-0.68
24474,748.22,756.42,755.42,754.65,753.68,112.79,-877.93,485.84,-1.14,0.29,1.79,-1.60
24512,748.16,756.43,755.37,754.61,753.64,121.09,-881.84,495.12,1.76,-0.61,0.79,-2.11
24548,748.22,756.49,755.42,754.64,753.69,117.19,-877.44,490.72,0.71,0.73,-0.53,-2.24
24584,748.29,756.42,755.41,754.67,753.70,124.51,-878.42,486.33,0.32,2.51,1.50,-2.34
24619,748.31,756.35,755.41,754.64,753.68,109.37,-864.26,492.19,0.28,1.60,1.82,-1.53
24655,748.23,756.31,755.41,754.63,753.65,120.12,-877.44,483.89,-1.12,3.02,-0.46,-0.82
24691,748.21,756.50,755.40,754.60,753.68,125.49,-889.65,501.46,-1.08,2.34,0.51,-1.89
24729,748.23,756.45,755.41,754.63,753.68,125.49,-884.77,492.19,0.08,2.66,-1.56,-1.90
24763,748.25,756.46,755.41,754.59,753.68,119.14,-884.28,479.98,-0.40,-2.05,-0.70,-1.36
24799,748.31,756.43,755.38,754.65,753.69,129.88,-886.72,482.91,2.01,1.76,-0.19,-3.02
24834,748.24,756.48,755.40,754.57,753.67,120.12,-876.46,492.68,-2.02,2.02,-0.94,-1.51
24870,748.24,756.49,755.40,754.59,753.68,122.07,-894.04,483.89,0.05,1.62,0.19,-1.91
24905,748.32,756.50,755.40,754.66,753.72,126.46,-885.74,491.21,-0.66,1.46,0.09,-3.35
24943,748.24,756.45,755.43,754.61,753.68,116.21,-889.65,488.77,1.22,1.75,-0.65,-1.09
24979,748.35,756.50,755.39,754.62,753.72,105.96,-876.95,489.75,0.11,3.33,1.85,-3.06
25014,748.30,756.47,755.41,754.70,753.72,119.14,-873.54,482.42,0.95,0.50,1.44,-3.29
25050,748.36,756.47,755.43,754.61,753.72,120.61,-879.88,498.54,0.50,0.11,0.26,-1.75
25086,748.30,756.47,755.37,754.57,753.68,126.95,-880.37,476.56,-1.15,1.17,1.78,-2.42
25121,748.28,756.54,755.38,754.62,753.71,114.26,-888.67,495.12,0.36,3.86,1.26,-3.49
25159,748.26,756.53,755.39,754.66,753.71,118.16,-884.77,495.61,-1.80,0.67,-2.06,-3.58
25195,748.22,756.49,755.45,754.56,753.68,117.19,-871.58,503.42,0.60,2.75,0.63,-0.34
25230,748.35,756.47,755.42,754.59,753.71,116.70,-877.44,501.46,-0.71,2.53,1.92,-1.70
25266,748.27,756.48,755.38,754.62,753.69,120.61,-877.44,499.02,0.62,0.21,-0.31,-2.85
25302,748.31,756.41,755.43,754.59,753.68,113.28,-880.37,492.68,-0.95,3.10,0.25,-0.79
25337,748.29,756.40,755.44,754.64,753.69,115.72,-885.74,484.37,1.05,2.82,-0.76,-1.09
25375,748.30,756.48,755.39,754.71,753.72,116.21,-880.86,493.65,2.05,2.18,1.40,-4.18
25411,748.26,756.53,755.39,754.71,753.72,119.63,-883.30,494.14,0.80,1.67,1.65,-4.32
25447,748.27,756.47,755.40,754.67,753.70,117.68,-883.30,500.00,0.76,1.98,0.61,-2.99
25482,748.27,756.47,755.37,754.69,753.70,108.89,-881.35,499.02,0.11,0.23,-1.47,-4.05
25518,748.28,756.48,755.49,754.67,753.73,124.02,-880.37,496.09,0.91,2.15,1.23,-0.95
25554,748.29,756.52,755.38,754.60,753.70,115.23,-880.37,503.91,1.27,2.96,-0.18,-3.06
25591,748.28,756.52,755.45,754.63,753.72,109.37,-878.42,492.19,1.26,1.04,-1.89,-1.72
25626,748.36,756.52,755.37,754.68,753.73,117.19,-881.84,496.09,0.62,-0.80,-0.98,-4.67
25662,748.42,756.55,755.43,754.63,753.76,120.61,-888.18,492.19,0.47,3.22,-1.04,-2.71
25697,748.41,756.56,755.38,754.65,753.75,108.89,-884.28,499.02,0.43,1.15,-2.57,-4.34
25733,748.43,756.57,755.36,754.64,753.75,112.30,-891.11,492.19,-1.28,3.34,-0.27,-5.06
25768,748.31,756.55,755.47,754.63,753.74,114.26,-890.14,489.26,-1.85,1.18,0.27,-1.35
25806,748.32,756.57,755.45,754.64,753.75,118.65,-882.81,486.33,1.62,0.80,0.33,-2.30
25841,748.38,756.57,755.40,754.67,753.75,113.28,-884.77,493.16,-0.25,1.28,1.59,-4.13
25906,748.37,756.52,755.40,754.58,753.72,104.49,-881.84,475.59,-0.37,2.31,0.71,-2.53
25941,748.47,756.57,755.38,754.65,753.77,101.56,-885.25,485.84,1.14,-0.27,1.85,-4.85
25976,748.41,756.53,755.37,754.66,753.74,122.56,-882.32,494.14,1.37,1.12,2.39,-4.54
26011,748.41,756.60,755.44,754.68,753.78,112.30,-869.63,501.46,-0.18,-0.63,3.09,-3.75
26047,748.41,756.53,755.42,754.65,753.75,112.30,-880.86,489.75,-0.98,1.93,-0.02,-3.29
26083,748.41,756.57,755.42,754.70,753.77,111.33,-888.67,498.54,0.08,1.51,-1.77,-4.33
26118,748.41,756.59,755.49,754.69,753.79,107.42,-891.60,495.61,-1.86,0.80,-1.08,-2.62
26153,748.33,756.60,755.43,754.67,753.76,121.09,-887.21,494.63,-0.08,1.24,-0.92,-3.41
26189,748.36,756.54,755.40,754.64,753.74,114.75,-879.39,483.89,-0.14,3.97,-0.48,-3.49
26224,748.38,756.59,755.49,754.70,753.79,121.09,-896.48,490.23,-0.75,2.24,1.73,-2.58
26261,748.33,756.62,755.44,754.72,753.78,108.40,-882.32,481.45,1.49,2.87,-1.40,-4.22
26297,748.36,756.55,755.37,754.68,753.74,111.82,-890.14,492.19,1.72,0.42,-0.59,-4.81
26332,748.38,756.61,755.44,754.61,753.76,112.79,-876.95,495.61,1.79,1.16,1.21,-2.63
26367,748.39,756.65,755.39,754.71,753.78,109.37,-888.18,480.96,1.67,1.11,0.31,-5.65
26403,748.45,756.59,755.36,754.70,753.78,115.72,-882.32,488.77,1.12,0.24,-1.15,-5.89
26438,748.33,756.64,755.37,754.72,753.76,121.58,-880.86,485.84,0.47,1.48,-0.50,-6.00
26475,748.34,756.57,755.45,754.71,753.77,115.72,-870.61,502.44,-1.82,0.53,0.78,-3.47
26511,748.40,756.60,755.38,754.69,753.77,111.33,-891.11,497.07,-0.44,1.60,1.03,-5.28
26546,748.39,756.49,755.43,754.65,753.74,118.65,-893.07,486.82,-0.67,-2.55,0.19,-2.61
26580,748.36,756.49,755.40,754.68,753.73,113.28,-876.95,487.79,0.42,2.52,0.53,-3.56
26616,748.45,756.57,755.40,754.70,753.78,106.45,-895.51,493.65,0.33,1.37,-1.92,-4.85
26651,748.36,756.55,755.40,754.73,753.76,124.02,-884.77,492.68,0.80,4.32,-0.47,-4.91
26688,748.38,756.58,755.40,754.66,753.76,123.54,-887.70,488.28,2.20,3.95,0.50,-4.05
26724,748.43,756.55,755.39,754.69,753.77,126.46,-884.28,493.65,-0.34,2.44,0.45,-4.76
26759,748.42,756.61,755.41,754.75,753.80,119.14,-883.30,482.91,2.58,3.53,-0.30,-5.64
26794,748.38,756.59,755.45,754.66,753.77,109.86,-883.79,498.54,0.11,-1.73,1.27,-3.03
26830,748.41,756.59,755.46,754.71,753.79,121.58,-880.86,484.86,0.73,-1.01,-0.98,-3.62
26865,748.37,756.67,755.46,754.71,753.80,117.68,-879.88,480.47,-0.60,-0.82,0.97,-4.01
26903,748.32,756.61,755.45,754.70,753.77,109.86,-897.95,499.51,1.60,2.03,2.43,-3.49
26938,748.42,756.55,755.42,754.66,753.76,109.37,-885.74,496.09,1.05,2.75,0.34,-3.65
26974,748.38,756.50,755.48,754.72,753.77,126.46,-891.60,510.25,-1.93,2.25,0.64,-2.48
27009,748.40,756.62,755.43,754.78,753.81,122.07,-879.39,498.05,-0.42,1.24,-0.82,-5.38
27045,748.36,756.57,755.40,754.65,753.75,115.23,-881.84,490.23,1.15,0.75,-0.95,-3.79
27080,748.39,756.59,755.40,754.72,753.78,112.30,-883.30,489.75,-1.44,2.44,-1.11,-5.20
27117,748.43,756.61,755.37,754.74,753.79,116.70,-887.70,503.42,0.63,0.20,-2.15,-6.45
27153,748.45,756.67,755.37,754.67,753.79,119.63,-883.30,488.77,-0.80,0.69,-0.25,-6.10
27188,748.43,756.59,755.40,754.69,753.78,118.16,-893.55,492.68,0.15,2.38,1.31,-4.80
27223,748.42,756.59,755.35,754.70,753.76,119.63,-898.93,492.19,0.71,2.57,-1.82,-6.12
27259,748.44,756.63,755.45,754.71,753.81,125.49,-881.84,487.30,-0.21,1.53,-0.07,-4.12
27294,748.43,756.61,755.31,754.66,753.75,125.49,-876.95,489.75,0.85,0.97,0.69,-6.84
27331,748.43,756.65,755.46,754.72,753.81,119.14,-878.42,488.77,1.73,-0.24,0.07,-4.19
27366,748.41,756.61,755.40,754.69,753.78,126.95,-881.84,481.93,-0.47,1.01,1.42,-4.95
27401,748.42,756.61,755.38,754.64,753.76,98.63,-875.98,488.28,-0.91,0.08,1.28,-4.73
27436,748.38,756.64,755.43,754.75,753.80,114.26,-881.35,487.30,1.88,1.04,1.65,-5.12
27471,748.41,756.63,755.37,754.73,753.78,111.82,-883.79,494.14,1.10,-0.30,2.53,-6.44
27506,748.38,756.63,755.45,754.70,753.79,119.14,-886.72,491.21,1.13,2.85,0.98,-3.90
27544,748.42,756.63,755.47,754.71,753.80,124.02,-875.00,484.37,-0.45,0.30,0.52,-3.74
27579,748.36,756.68,755.43,754.77,753.81,130.37,-880.37,487.30,0.63,-0.33,0.57,-5.73
27614,748.35,756.61,755.44,754.66,753.76,115.72,-887.70,504.39,2.18,1.80,-1.55,-3.30
27649,748.38,756.62,755.41,754.67,753.77,127.44,-871.09,497.56,0.30,1.68,-0.10,-4.28
27684,748.37,756.53,755.46,754.68,753.76,123.54,-890.62,497.07,0.17,1.30,0.57,-2.57
27719,748.40,756.52,755.42,754.63,753.74,111.82,-877.93,493.16,-0.17,1.87,0.74,-2.69
27758,748.42,756.55,755.41,754.62,753.75,121.09,-889.16,496.58,0.63,-0.68,-0.76,-3.21
27794,748.36,756.57,755.37,754.63,753.73,104.98,-874.02,485.35,-1.31,0.83,0.49,-4.19
27829,748.36,756.55,755.45,754.66,753.75,124.51,-875.00,486.33,-1.01,-0.55,-1.74,-2.64
27865,748.39,756.55,755.38,754.74,753.76,116.70,-887.21,496.58,1.24,0.20,0.24,-5.73
27900,748.37,756.57,755.44,754.71,753.77,123.54,-896.48,493.16,-0.11,1.31,-0.34,-3.87
27935,748.42,756.53,755.47,754.74,753.79,121.09,-877.93,493.65,-0.41,1.27,1.76,-3.43
27973,748.39,756.56,755.41,754.73,753.77,120.12,-882.32,491.70,-0.31,2.92,0.23,-4.72
28008,748.36,756.60,755.41,754.71,753.77,116.21,-871.58,496.58,0.02,-1.51,1.28,-4.85
28044,748.35,756.53,755.44,754.73,753.76,120.12,-871.58,491.70,-0.75,2.76,-0.68,-3.50
28079,748.43,756.58,755.41,754.74,753.79,115.23,-888.18,477.54,0.85,1.29,0.56,-5.10
28115,748.41,756.63,755.38,754.75,753.80,117.68,-883.30,489.75,0.32,2.15,-0.37,-6.49
28150,748.39,756.57,755.46,754.68,753.78,93.26,-884.77,490.23,0.31,1.84,-0.16,-2.93
28187,748.31,756.61,755.42,754.68,753.76,118.16,-882.81,490.23,-1.02,2.31,1.46,-4.05
28223,748.44,756.57,755.44,754.72,753.79,122.07,-881.35,483.89,0.86,1.09,-0.16,-4.07
28258,748.44,756.64,755.44,754.66,753.80,120.12,-886.72,492.68,1.51,1.60,-1.04,-3.66
28293,748.40,756.60,755.48,754.68,753.79,121.09,-885.25,491.21,-0.98,0.54,4.15,-2.68
28329,748.43,756.63,755.39,754.66,753.78,124.02,-887.70,495.12,0.76,-0.24,0.13,-4.95
28364,748.43,756.57,755.46,754.62,753.77,106.93,-888.18,503.91,-0.56,-0.81,-0.82,-2.22
28402,748.44,756.65,755.50,754.60,753.80,123.05,-893.07,485.35,0.24,0.26,-0.09,-1.52
28437,748.34,756.66,755.42,754.69,753.78,111.33,-890.14,494.63,-0.53,1.01,-1.40,-4.42
28473,748.33,756.62,755.53,754.67,753.79,117.68,-877.93,497.56,2.43,1.33,-1.29,-1.37
28508,748.46,756.64,755.44,754.73,753.82,121.09,-881.84,513.67,-0.50,1.08,-2.34,-4.89
28544,748.31,756.52,755.44,754.73,753.75,118.65,-883.79,489.75,1.56,0.44,-1.46,-3.42
28579,748.42,756.60,755.51,754.69,753.80,115.72,-884.77,489.26,1.33,-1.09,-1.49,-2.26
28617,748.43,756.57,755.45,754.72,753.79,122.56,-875.49,495.61,0.03,1.66,-0.22,-3.93
28652,748.43,756.64,755.41,754.76,753.81,114.75,-878.42,502.44,-0.37,1.58,0.64,-5.96
28688,748.41,756.63,755.46,754.75,753.81,105.96,-875.98,495.61,-1.22,1.53,2.24,-4.31
28724,748.47,756.59,755.44,754.73,753.81,132.32,-868.16,493.65,-0.50,1.59,-0.47,-4.69
28759,748.37,756.70,755.44,754.72,753.81,131.84,-879.39,484.86,0.69,2.40,2.88,-4.89
28795,748.38,756.59,755.46,754.76,753.80,112.79,-880.86,500.98,1.66,1.46,-0.02,-4.31
28832,748.44,756.60,755.43,754.70,753.79,115.23,-880.86,492.19,0.75,1.36,1.02,-4.36
28867,748.45,756.64,755.41,754.78,753.82,117.68,-885.25,486.82,-0.45,1.66,0.40,-6.41
28902,748.50,756.58,755.46,754.68,753.81,111.33,-871.09,498.54,-0.27,0.02,2.65,-3.45
28937,748.41,756.61,755.36,754.75,753.78,117.19,-881.35,499.51,2.18,0.43,-3.03,-6.86
28972,748.42,756.65,755.39,754.77,753.81,102.54,-893.07,502.93,1.60,-0.85,0.40,-6.68
29010,748.44,756.59,755.43,754.73,753.80,112.79,-885.25,487.79,1.90,0.42,1.38,-4.83
29046,748.41,756.63,755.44,754.85,753.83,114.26,-872.56,493.65,2.18,-1.24,2.44,-6.30
29081,748.49,756.67,755.49,754.83,753.87,131.35,-885.25,497.07,1.29,-1.05,-0.40,-5.50
29116,748.43,756.63,755.43,754.77,753.82,115.72,-874.51,492.19,1.37,-0.34,0.01,-5.57
29151,748.38,756.60,755.43,754.75,753.79,117.19,-883.30,494.14,0.35,2.85,0.61,-4.88
29186,748.46,756.71,755.42,754.77,753.84,106.45,-888.67,488.28,0.17,0.28,0.92,-6.65
29224,748.49,756.57,755.45,754.73,753.81,120.12,-884.77,484.86,3.10,-0.15,1.26,-4.05
29259,748.43,756.54,755.42,754.74,753.78,119.63,-880.37,490.72,-0.79,2.56,1.85,-4.69
29295,748.44,756.54,755.35,754.75,753.77,113.28,-873.54,479.00,0.87,2.56,0.56,-6.60
29330,748.41,756.60,755.44,754.72,753.79,121.09,-880.86,503.91,0.19,3.33,-1.25,-4.27
29366,748.47,756.62,755.40,754.73,753.80,112.79,-882.81,486.82,3.03,1.47,1.05,-5.95
29401,748.47,756.55,755.45,754.68,753.79,104.98,-881.84,484.86,0.11,1.00,-1.80,-3.43
29439,748.38,756.53,755.43,754.65,753.75,114.26,-871.58,497.07,-1.31,0.60,-0.36,-2.74
29475,748.47,756.56,755.39,754.73,753.79,106.93,-891.11,489.26,-1.46,0.16,0.21,-5.63
29510,748.43,756.59,755.46,754.70,753.79,126.46,-886.72,479.00,-0.32,-1.02,0.66,-3.56
29546,748.38,756.62,755.46,754.72,753.79,118.16,-884.28,489.26,0.02,0.07,-1.68,-3.81
29581,748.40,756.59,755.41,754.72,753.78,109.37,-879.39,493.16,-0.79,1.31,3.66,-4.81
29617,748.43,756.57,755.41,754.70,753.78,133.79,-884.77,491.21,1.42,3.14,0.34,-4.56
29655,748.41,756.60,755.47,754.73,753.80,123.05,-892.09,494.63,0.43,2.05,1.61,-3.60
29690,748.46,756.62,755.45,754.64,753.79,132.32,-879.88,490.23,-0.04,1.76,-0.26,-3.22
29726,748.36,756.63,755.48,754.71,753.80,122.07,-879.39,504.39,2.43,1.19,1.84,-3.34
29761,748.41,756.63,755.53,754.74,753.83,122.56,-887.70,500.00,0.83,3.27,-0.98,-2.62
29797,748.45,756.59,755.46,754.70,753.80,109.86,-885.25,493.65,0.64,0.95,0.31,-3.56
29832,748.48,756.64,755.47,754.67,753.81,118.65,-882.32,502.44,-0.16,3.39,-0.90,-3.42
29870,748.42,756.66,755.49,754.76,753.83,119.63,-875.00,489.26,-0.54,1.02,-0.58,-4.33
29905,748.44,756.69,755.53,754.72,753.84,101.56,-888.18,488.28,0.95,-0.27,0.75,-2.79
29941,748.45,756.61,755.46,754.74,753.82,105.47,-880.37,492.68,-0.29,0.48,1.94,-4.33
29976,748.43,756.62,755.46,754.72,753.81,116.70,-892.58,487.30,0.89,-1.05,-0.60,-3.96
30012,748.45,756.54,755.52,754.68,753.80,109.86,-884.77,500.49,0.04,0.46,0.96,-1.36
30047,748.34,756.65,755.44,754.70,753.78,118.65,-886.23,504.39,0.36,2.66,1.43,-4.06
30085,748.44,756.65,755.44,754.71,753.81,115.23,-892.09,496.09,-0.31,3.23,1.21,-4.60
30120,748.52,756.65,755.47,754.78,753.85,120.61,-890.14,502.44,1.45,1.28,2.27,-5.19
30156,748.43,756.65,755.49,754.74,753.83,114.26,-884.77,497.56,-0.52,-1.08,2.73,-3.61
30192,748.44,756.62,755.52,754.74,753.83,125.00,-881.84,486.33,0.95,3.69,2.31,-2.80
30227,748.38,756.65,755.33,754.72,753.77,120.12,-884.77,469.24,-0.53,0.42,0.12,-7.31
30262,748.45,756.62,755.43,754.63,753.78,122.07,-883.79,480.96,-1.47,0.08,0.85,-3.38
30300,748.36,756.65,755.49,754.70,753.80,113.28,-875.98,499.02,1.85,0.35,-0.70,-3.12
30336,748.43,756.70,755.43,754.73,753.82,125.00,-881.84,496.58,1.98,3.81,1.51,-5.43
30371,748.42,756.62,755.54,754.67,753.81,118.16,-880.37,491.21,1.27,-1.00,2.08,-1.29
30407,748.45,756.62,755.47,754.68,753.80,112.30,-880.86,500.00,0.27,-0.31,0.95,-3.26
30442,748.42,756.65,755.51,754.76,753.83,105.96,-890.62,493.65,1.15,1.37,0.66,-3.52
30478,748.43,756.66,755.44,754.69,753.80,116.70,-870.61,484.86,0.09,2.36,-0.31,-4.49
30516,748.46,756.69,755.45,754.66,753.82,119.63,-884.77,497.56,0.73,-0.09,1.69,-3.99
30551,748.43,756.63,755.47,754.73,753.81,114.75,-881.35,494.14,1.95,3.35,1.37,-4.09
30586,748.47,756.69,755.50,754.73,753.85,122.07,-883.30,505.86,0.56,1.08,-1.37,-3.89
30622,748.49,756.69,755.48,754.75,753.86,108.89,-874.02,495.12,0.66,3.31,-2.60,-4.73
30658,748.45,756.70,755.39,754.73,753.82,117.19,-884.77,479.98,-0.55,0.32,-0.19,-6.76
30693,748.51,756.69,755.48,754.84,753.88,126.95,-894.53,479.98,0.61,1.68,0.29,-6.20
30731,748.46,756.79,755.47,754.80,753.88,117.19,-883.79,486.33,0.70,1.56,0.08,-6.46
30766,748.51,756.62,755.45,754.70,753.82,122.07,-878.91,490.72,0.87,0.62,0.99,-4.18
30801,748.47,756.64,755.51,754.72,753.83,114.75,-884.77,493.65,0.51,1.70,1.50,-3.10
30836,748.52,756.66,755.46,754.65,753.82,105.96,-880.37,485.84,-0.40,0.02,-2.11,-3.73
30871,748.52,756.67,755.43,754.73,753.84,120.12,-889.65,496.58,2.31,1.12,-1.65,-5.60
30907,748.54,756.66,755.44,754.77,753.85,111.82,-895.02,495.61,-0.48,2.69,1.74,-6.03
30944,748.47,756.72,755.44,754.71,753.84,109.86,-897.46,490.72,2.82,-0.47,-0.46,-5.21
30980,748.47,756.69,755.49,754.68,753.83,129.39,-879.39,491.70,0.85,3.68,-0.19,-3.21
31015,748.50,756.65,755.44,754.75,753.84,121.09,-879.88,488.77,-0.31,1.23,-0.40,-5.34
31051,748.48,756.62,755.44,754.73,753.82,110.84,-890.62,481.45,1.24,-0.20,0.34,-4.78
31086,748.52,756.68,755.41,754.71,753.83,114.26,-883.79,492.68,-0.68,1.45,-0.87,-5.96
31122,748.54,756.71,755.50,754.81,753.89,120.61,-885.74,494.14,0.56,2.16,-0.08,-5.32
31160,748.48,756.72,755.44,754.78,753.85,116.21,-888.67,487.79,2.11,1.64,0.01,-6.36
31195,748.44,756.70,755.49,754.79,753.86,110.35,-896.00,492.68,0.04,-0.95,2.42,-4.96
31231,748.47,756.79,755.45,754.77,753.87,117.68,-880.37,498.05,1.25,0.51,2.21,-6.38
31266,748.49,756.71,755.49,754.80,753.87,128.42,-876.95,483.89,0.23,0.13,-0.69,-5.52
31302,748.43,756.76,755.47,754.73,753.85,127.93,-882.32,499.02,-1.40,1.23,1.89,-4.92
31337,748.46,756.71,755.49,754.86,753.88,130.86,-888.18,494.63,1.00,0.53,0.21,-6.14
31375,748.50,756.68,755.55,754.79,753.88,109.86,-882.32,500.98,2.31,0.21,2.17,-3.53
31411,748.52,756.67,755.45,754.80,753.86,118.65,-884.28,493.65,1.50,2.73,-0.24,-6.10
31446,748.50,756.80,755.43,754.76,753.87,106.45,-889.65,499.02,-0.76,2.95,1.79,-6.98
31482,748.57,756.70,755.51,754.82,753.90,111.33,-889.65,492.19,0.65,1.00,0.86,-5.44
31517,748.50,756.69,755.56,754.90,753.91,119.14,-873.54,489.26,2.69,0.89,3.07,-5.08
31553,748.48,756.68,755.53,754.81,753.87,114.75,-882.81,488.28,-0.47,2.08,1.14,-4.36
31591,748.42,756.75,755.48,754.80,753.86,128.91,-884.77,491.70,1.45,3.02,2.63,-5.77
31626,748.50,756.76,755.44,754.82,753.88,130.86,-886.23,475.59,-0.91,-0.05,-2.81,-7.40
31662,748.52,756.69,755.43,754.75,753.85,124.51,-881.35,502.93,-0.02,-0.56,-0.84,-6.15
31697,748.47,756.74,755.45,754.77,753.86,125.49,-888.18,498.54,-0.79,-0.59,-0.23,-6.26
31733,748.43,756.71,755.45,754.78,753.84,111.82,-872.07,509.77,0.39,1.00,-0.77,-5.90
31768,748.55,756.81,755.48,754.79,753.91,109.86,-885.25,491.70,-1.86,-0.44,-0.34,-6.39
31806,748.47,756.68,755.45,754.78,753.85,123.54,-887.21,492.68,-0.98,2.16,0.67,-5.74
31841,748.58,756.64,755.52,754.81,753.89,122.07,-892.58,483.40,1.56,0.18,-1.05,-4.48
31877,748.49,756.78,755.50,754.84,753.91,114.26,-876.95,495.12,1.48,2.27,-0.98,-6.20
31912,748.53,756.68,755.47,754.81,753.87,124.02,-886.72,498.05,-2.56,-0.63,1.75,-5.96
31947,748.50,756.65,755.47,754.77,753.85,114.26,-895.02,499.51,-0.15,3.68,-0.97,-4.96
31983,748.54,756.72,755.51,754.79,753.89,118.65,-884.77,498.05,1.82,1.66,-0.37,-5.07
32020,748.50,756.79,755.44,754.82,753.89,105.96,-882.81,484.37,1.09,1.65,1.26,-7.62
32056,748.53,756.74,755.53,754.82,753.91,120.12,-889.65,498.05,0.63,0.75,-1.89,-4.97
32091,748.54,756.72,755.50,754.84,753.90,126.95,-886.23,473.14,-0.66,1.63,0.79,-6.05
32127,748.59,756.71,755.51,754.80,753.90,118.65,-879.39,479.00,0.08,2.82,2.53,-5.31
32162,748.57,756.73,755.53,754.79,753.90,104.49,-869.63,486.82,0.27,0.28,0.98,-4.54
32198,748.59,756.73,755.42,754.86,753.90,113.77,-893.55,493.65,0.08,1.96,-1.24,-8.39
32235,748.48,756.77,755.43,754.79,753.87,120.61,-884.28,492.19,-0.57,0.84,1.58,-7.23
32270,748.60,756.69,755.43,754.80,753.88,121.58,-893.07,491.21,0.94,1.15,0.32,-7.30
32305,748.57,756.72,755.39,754.80,753.87,106.45,-892.09,483.40,-0.92,1.66,1.59,-8.15
32340,748.47,756.72,755.44,754.80,753.86,111.33,-885.25,488.28,2.19,0.43,-0.67,-6.67
32376,748.53,756.77,755.42,754.80,753.88,118.65,-885.74,506.35,-0.75,2.82,-2.12,-7.78
32411,748.58,756.77,755.43,754.82,753.90,115.72,-885.25,497.07,2.77,1.08,-1.73,-7.92
32449,748.52,756.67,755.47,754.79,753.86,117.19,-877.44,496.58,0.96,2.82,-0.76,-5.45
32484,748.58,756.79,755.34,754.74,753.86,112.79,-885.25,487.30,-0.30,1.91,1.34,-9.16
32520,748.58,756.68,755.49,754.74,753.87,106.93,-880.37,487.79,0.76,1.69,-0.60,-4.61
32555,748.60,756.77,755.53,754.76,753.92,125.49,-866.70,499.51,-0.51,-0.75,0.86,-4.75
32590,748.61,756.75,755.51,754.87,753.93,115.72,-892.09,487.79,1.26,0.50,-0.98,-6.53
32625,748.55,756.73,755.44,754.83,753.89,118.65,-880.37,498.05,2.93,2.34,1.88,-7.40
32662,748.52,756.79,755.53,754.78,753.90,113.77,-895.51,489.26,-1.85,0.57,-0.18,-4.95
32698,748.52,756.85,755.56,754.79,753.93,125.00,-880.86,486.33,1.09,2.44,-2.59,-4.71
32733,748.56,756.80,755.47,754.82,753.91,122.07,-886.72,498.05,0.91,-0.25,0.48,-7.09
32769,748.54,756.76,755.55,754.78,753.91,114.26,-880.37,479.00,1.14,-0.40,-1.33,-4.11
32804,748.57,756.71,755.52,754.80,753.90,111.82,-885.25,497.07,0.21,0.54,1.32,-5.05
32840,748.58,756.73,755.43,754.78,753.88,121.58,-882.81,490.72,1.08,1.40,-1.43,-7.06
32878,748.61,756.75,755.50,754.79,753.91,118.65,-894.53,486.82,0.70,0.39,-1.56,-5.80
32913,748.58,756.82,755.53,754.78,753.93,125.49,-890.14,490.23,2.19,1.63,-1.08,-5.27
32949,748.47,756.79,755.50,754.88,753.91,125.00,-882.81,483.89,-1.35,2.56,-1.30,-6.80
32984,748.53,756.83,755.52,754.84,753.93,112.30,-882.81,490.72,-1.31,1.86,-1.08,-6.25
33019,748.55,756.75,755.46,754.82,753.90,114.75,-881.35,489.75,0.17,0.01,0.68,-6.99
33055,748.60,756.72,755.49,754.83,753.91,115.72,-890.62,495.61,1.17,1.85,0.95,-6.34
33093,748.52,756.86,755.53,754.80,753.93,115.72,-868.16,490.23,0.63,0.71,1.37,-5.67
33128,748.57,756.79,755.52,754.87,753.94,102.54,-877.44,482.42,-0.62,3.21,-0.66,-6.63
33164,748.57,756.79,755.48,754.75,753.90,114.26,-891.60,497.07,1.13,2.24,-1.24,-5.69
33199,748.61,756.75,755.56,754.82,753.93,119.14,-873.05,491.21,-1.39,1.41,0.58,-4.64
33235,748.62,756.79,755.53,754.76,753.93,121.09,-886.23,496.09,-0.09,1.64,0.27,-4.91
33270,748.57,756.80,755.47,754.90,753.93,114.75,-887.70,485.35,-0.46,2.08,1.36,-8.41
33308,748.56,756.78,755.53,754.83,753.92,112.79,-876.46,500.49,2.66,-1.53,-0.63,-5.62
33343,748.65,756.71,755.51,754.86,753.93,114.26,-879.39,483.40,2.14,-0.08,1.08,-6.34
33379,748.63,756.75,755.51,754.85,753.94,119.63,-881.35,496.09,-0.10,0.63,-1.19,-6.35
33414,748.56,756.77,755.50,754.81,753.91,110.35,-905.27,489.26,-1.96,-0.32,0.82,-6.03
33450,748.55,756.81,755.56,754.89,753.95,106.93,-865.23,496.09,4.29,3.40,-1.34,-6.11
33486,748.61,756.81,755.55,754.87,753.96,122.56,-888.67,480.47,3.32,1.69,-0.40,-6.16
33523,748.56,756.78,755.50,754.93,753.94,112.30,-884.28,488.77,-1.60,4.19,-0.05,-7.97
33559,748.61,756.78,755.49,754.88,753.94,117.68,-876.95,497.56,2.05,1.01,0.41,-7.67
33594,748.52,756.86,755.56,754.79,753.93,111.33,-898.93,461.43,0.10,0.89,2.23,-4.87
33630,748.60,756.81,755.53,754.80,753.93,117.19,-882.81,503.42,1.34,2.91,2.21,-5.66
33665,748.54,756.86,755.50,754.83,753.93,117.68,-895.02,469.24,-0.77,1.40,2.80,-6.99
33701,748.55,756.79,755.54,754.82,753.92,112.30,-876.95,493.65,3.44,0.95,-0.30,-5.23
33739,748.60,756.70,755.56,754.85,753.93,117.19,-884.28,490.23,-0.92,0.03,1.75,-4.66
33774,748.62,756.85,755.58,754.85,753.97,119.63,-876.95,486.33,-2.63,1.28,-3.60,-5.53
33810,748.65,756.81,755.53,754.84,753.96,118.65,-890.14,499.02,-0.31,2.90,-1.18,-6.14
33845,748.52,756.79,755.49,754.79,753.90,111.82,-875.98,487.30,-0.74,1.07,2.40,-6.04
33881,748.59,756.82,755.52,754.85,753.94,101.56,-879.39,495.12,1.76,2.89,-0.87,-6.57
33918,748.55,756.85,755.55,754.78,753.93,108.40,-887.21,501.46,-0.16,1.89,-0.25,-4.77
33954,748.59,756.84,755.48,754.91,753.96,114.75,-881.35,496.58,0.75,1.25,0.60,-8.63
33989,748.60,756.83,755.52,754.78,753.93,124.02,-873.05,491.21,0.87,0.95,-1.18,-5.56
34024,748.57,756.81,755.60,754.86,753.96,121.58,-884.77,497.56,0.89,3.20,1.50,-4.43
34060,748.54,756.82,755.55,754.86,753.94,103.03,-873.54,492.19,-0.32,1.37,0.86,-5.93
34095,748.57,756.86,755.51,754.89,753.96,107.42,-884.77,484.86,1.73,2.06,2.57,-7.82
34133,748.56,756.77,755.61,754.85,753.95,107.42,-884.28,487.79,0.23,2.04,-0.63,-3.91
34168,748.58,756.81,755.51,754.85,753.94,116.70,-877.44,494.63,0.85,0.64,-0.34,-6.73
34203,748.61,756.80,755.57,754.87,753.96,121.09,-883.30,497.07,-0.05,-1.80,-0.39,-5.62
34239,748.59,756.85,755.49,754.82,753.94,115.23,-873.54,496.58,0.29,2.60,-0.89,-7.06
34274,748.53,756.89,755.54,754.83,753.95,106.45,-881.35,498.54,-0.35,-0.08,-0.95,-6.15
34309,748.57,756.82,755.58,754.91,753.97,125.00,-880.37,491.70,-0.37,2.95,-0.24,-5.94
34347,748.65,756.86,755.50,754.85,753.96,119.14,-896.00,492.68,-1.10,-0.15,0.60,-7.70
34382,748.64,756.83,755.55,754.88,753.98,114.75,-875.98,498.05,-1.37,0.00,0.46,-6.57
34418,748.65,756.83,755.49,754.84,753.95,122.07,-887.70,479.49,1.16,-4.10,2.43,-7.31
34454,748.58,756.76,755.45,754.89,753.92,107.91,-891.60,498.05,1.38,1.38,-0.40,-8.48
34489,748.57,756.77,755.48,754.97,753.94,116.70,-878.42,488.77,-1.48,2.37,0.10,-8.91
34525,748.54,756.83,755.46,754.94,753.94,121.09,-890.14,500.49,1.02,-0.56,-2.00,-9.25
34563,748.66,756.75,755.48,754.85,753.93,130.37,-888.67,483.89,-0.43,0.53,-2.91,-7.13
34598,748.62,756.84,755.47,754.85,753.95,118.65,-888.67,500.98,1.34,1.98,2.89,-8.02
34634,748.62,756.87,755.51,754.89,753.97,126.95,-886.23,496.09,1.04,-0.18,-0.71,-8.10
34669,748.59,756.85,755.50,754.88,753.96,112.30,-877.93,499.51,0.92,0.92,1.67,-7.70
34705,748.63,756.82,755.52,754.85,753.96,110.35,-881.84,490.72,-1.16,0.51,2.54,-6.67
34740,748.62,756.85,755.51,754.92,753.97,115.23,-892.58,499.51,-1.12,0.73,1.56,-8.10
34778,748.59,756.77,755.49,754.86,753.93,94.24,-882.81,500.49,-1.02,0.18,1.10,-7.12
34813,748.61,756.76,755.52,754.85,753.94,107.91,-883.79,501.46,-2.16,2.47,2.36,-6.23
34849,748.61,756.80,755.48,754.87,753.94,113.28,-881.35,491.70,-0.82,2.45,0.10,-7.83
34884,748.56,756.77,755.46,754.79,753.89,104.00,-873.05,489.26,1.62,1.38,-1.11,-6.69
34920,748.65,756.81,755.51,754.81,753.94,111.33,-883.30,493.65,-1.02,1.20,-1.76,-6.43
34955,748.62,756.80,755.45,754.90,753.94,109.86,-886.23,478.03,0.16,1.44,1.95,-8.92
34993,748.61,756.75,755.50,754.87,753.93,119.14,-898.93,483.89,-1.71,0.06,-2.56,-6.84
35028,748.63,756.82,755.49,754.90,753.96,123.05,-877.44,481.45,0.05,1.38,1.11,-8.26
35064,748.65,756.87,755.47,754.82,753.95,107.42,-873.05,482.42,-0.24,0.89,1.61,-7.92
35099,748.67,756.84,755.58,754.85,753.98,133.30,-881.35,498.05,-1.92,1.76,0.93,-5.64
35135,748.60,756.93,755.50,754.94,753.99,120.61,-882.81,489.26,0.56,0.49,0.01,-9.49
35170,748.63,756.85,755.41,754.76,753.91,121.58,-883.30,491.21,-0.15,0.91,0.23,-8.42
35208,748.69,756.83,755.55,754.91,754.00,116.70,-883.30,492.19,-0.50,0.47,0.43,-7.21
35244,748.63,756.84,755.56,754.88,753.98,126.46,-893.55,487.30,0.19,0.21,1.97,-6.34
35279,748.64,756.92,755.51,754.84,753.98,119.63,-895.51,484.37,-0.54,-2.79,-0.45,-7.55
35315,748.60,756.93,755.53,754.94,754.00,107.42,-873.05,490.23,-1.62,2.30,2.68,-8.47
35350,748.63,756.83,755.58,754.98,754.00,103.03,-876.46,490.23,1.80,-0.36,0.53,-7.27
35386,748.58,756.90,755.53,754.85,753.97,119.63,-879.39,480.47,-0.02,1.30,2.01,-6.94
35424,748.59,756.88,755.54,754.88,753.97,115.72,-875.49,497.56,0.08,2.34,-0.64,-6.85
35460,748.52,756.85,755.47,754.88,753.93,120.61,-885.74,490.72,-0.20,0.78,1.04,-8.29
35495,748.66,756.92,755.50,754.89,753.99,115.72,-877.93,492.68,0.67,-0.13,2.18,-8.83
35531,748.58,756.87,755.51,754.90,753.97,115.72,-883.79,489.26,0.72,0.95,1.43,-8.05
35566,748.63,756.85,755.54,754.96,753.99,110.84,-881.35,493.65,1.95,0.80,-1.24,-8.10
35602,748.57,756.84,755.51,754.88,753.95,127.93,-871.09,492.68,0.44,-0.32,0.44,-7.37
35639,748.58,756.79,755.56,754.87,753.95,101.07,-880.37,496.58,-1.24,1.21,-0.23,-5.74
35674,748.58,756.88,755.53,754.87,753.96,108.89,-887.70,491.70,-1.55,0.52,-1.92,-6.93
35709,748.60,756.92,755.57,754.96,754.01,124.51,-878.42,495.61,1.98,0.90,0.56,-7.70
35744,748.59,756.86,755.49,754.92,753.97,123.05,-888.67,503.42,0.54,-1.44,-1.43,-8.61
35780,748.59,756.78,755.45,754.92,753.94,127.44,-882.32,497.07,-0.92,0.52,-0.14,-9.08
35815,748.60,756.87,755.46,754.85,753.95,117.68,-881.84,501.46,0.24,1.16,0.05,-8.50
35852,748.59,756.85,755.52,754.94,753.98,125.98,-887.70,488.28,0.31,2.03,0.09,-8.15
35887,748.62,756.83,755.51,754.92,753.97,105.96,-880.86,504.39,0.63,1.88,-0.56,-8.04
35922,748.61,756.83,755.57,754.95,753.99,122.56,-889.16,496.58,0.40,3.74,2.92,-6.92
35957,748.55,756.87,755.50,754.92,753.96,122.07,-872.56,492.19,-1.01,-0.28,1.05,-8.50
35993,748.58,756.89,755.49,754.89,753.96,118.16,-866.21,493.65,-0.44,0.74,1.06,-8.45
36028,748.58,756.85,755.51,754.91,753.96,121.09,-881.35,482.91,0.67,0.74,1.01,-7.84
36065,748.64,756.83,755.54,754.88,753.97,125.49,-879.39,499.51,1.26,0.15,-0.32,-6.68
36100,748.56,756.87,755.52,754.90,753.97,125.98,-886.23,498.54,1.70,1.14,0.75,-7.66
36136,748.56,756.81,755.52,754.89,753.94,112.30,-881.35,499.02,-1.91,2.89,0.12,-7.08
36171,748.62,756.83,755.54,754.81,753.95,128.91,-885.74,498.54,-1.34,0.83,2.57,-5.59
36207,748.63,756.91,755.52,754.86,753.98,122.07,-883.30,491.70,1.08,0.21,2.92,-7.57
36242,748.58,756.93,755.51,754.92,753.98,114.26,-883.79,489.26,-0.36,-0.72,-1.19,-8.75
36280,748.57,756.83,755.54,754.87,753.95,112.79,-892.58,502.44,-0.59,1.65,1.95,-6.53
36316,748.55,756.84,755.54,754.95,753.97,117.68,-894.53,485.35,0.39,1.47,0.85,-7.60
36351,748.60,756.87,755.54,754.85,753.97,118.65,-881.35,497.56,-1.42,2.82,-0.73,-6.48
36387,748.60,756.91,755.54,754.89,753.99,109.37,-883.30,494.63,0.92,-0.93,-0.15,-7.44
36422,748.58,756.87,755.47,754.92,753.96,130.37,-885.74,493.65,2.23,4.95,2.40,-9.32
36457,748.61,756.88,755.56,754.91,753.99,106.45,-879.39,501.46,0.72,1.49,0.68,-7.04
36495,748.62,756.89,755.56,754.86,753.98,114.26,-879.39,488.28,-0.41,1.20,-1.95,-6.51
36530,748.60,756.90,755.55,754.98,754.01,112.79,-882.32,500.49,0.47,3.16,-0.95,-8.36
36566,748.57,756.88,755.51,754.96,753.98,125.49,-878.42,495.61,-0.26,-0.47,-1.88,-8.86
36601,748.62,756.81,755.53,754.89,753.96,112.30,-878.91,492.68,-1.39,0.56,0.77,-7.01
36637,748.62,756.88,755.55,754.96,754.00,107.42,-879.88,500.49,0.64,0.05,-0.95,-8.06
36672,748.61,756.89,755.58,754.92,754.00,120.61,-868.16,487.79,-0.35,-0.60,1.28,-6.75
36709,748.69,756.91,755.55,754.98,754.03,102.54,-887.70,488.77,0.18,1.03,-0.47,-8.79
36745,748.66,756.88,755.49,754.94,753.99,118.16,-889.16,486.82,2.50,2.73,1.08,-9.41
36780,748.64,756.89,755.51,754.92,753.99,114.75,-897.95,484.86,-0.93,0.74,-0.82,-8.61
36815,748.66,756.87,755.57,754.94,754.01,124.51,-881.35,497.56,1.60,0.56,-1.12,-7.37
36851,748.67,757.00,755.57,754.82,754.01,122.07,-874.02,487.30,-0.45,0.92,2.26,-6.65
36886,748.64,756.89,755.55,754.88,753.99,110.35,-887.21,492.68,2.27,1.76,-0.32,-7.01
36924,748.65,756.84,755.56,754.92,753.99,117.19,-875.49,494.14,0.06,0.85,0.73,-6.89
36959,748.61,756.79,755.50,754.95,753.96,112.79,-870.61,495.12,-3.90,1.37,0.94,-8.22
36994,748.62,756.87,755.52,754.91,753.98,120.61,-889.65,520.02,0.12,2.38,0.41,-7.92
37030,748.66,756.85,755.51,754.96,754.00,117.68,-887.70,483.40,2.36,-2.96,1.98,-8.85
37065,748.71,756.87,755.56,754.96,754.02,117.68,-881.35,492.19,-2.04,-1.12,1.08,-8.06
37100,748.62,756.89,755.56,754.89,753.99,125.49,-880.37,501.95,-0.07,-0.82,0.53,-6.96
37138,748.64,756.84,755.52,754.92,753.98,117.19,-890.14,487.30,-0.76,0.29,1.66,-7.84
37173,748.58,756.86,755.53,754.98,753.99,117.68,-872.07,490.72,-0.76,-0.63,3.03,-8.59
37209,748.63,756.90,755.59,754.96,754.02,122.07,-878.42,493.16,2.33,0.22,0.91,-7.14
37244,748.62,756.88,755.58,754.93,754.00,111.82,-868.16,491.21,-0.03,1.06,-1.32,-6.82
37280,748.66,756.83,755.48,754.80,753.94,111.33,-883.30,487.79,-0.47,0.29,0.64,-7.16
37315,748.57,756.82,755.46,754.95,753.95,114.26,-883.79,496.58,-0.29,1.50,2.40,-9.51
37353,748.64,756.83,755.52,754.90,753.97,122.07,-876.95,499.51,1.49,-0.51,-1.50,-7.53
37388,748.72,756.80,755.56,754.93,754.00,120.61,-887.70,483.89,1.79,1.44,0.78,-7.16
37424,748.59,756.87,755.43,754.89,753.95,120.12,-890.62,500.49,2.40,3.06,0.69,-9.84
37459,748.60,756.83,755.47,754.92,753.95,118.16,-888.67,491.21,0.14,3.16,0.00,-8.96
37494,748.64,756.91,755.52,754.89,753.99,119.63,-877.93,489.26,-2.06,1.97,2.57,-7.97
37529,748.67,756.86,755.48,754.87,753.97,123.54,-891.11,489.26,-1.37,2.92,-0.91,-8.47
37567,748.60,756.84,755.56,754.87,753.97,123.05,-880.86,492.19,-0.49,-0.77,1.61,-6.20
37602,748.62,756.87,755.46,754.94,753.97,105.47,-888.18,491.21,0.12,1.87,-0.19,-9.79
37637,748.63,756.87,755.52,754.90,753.98,125.00,-869.63,480.96,-0.05,3.84,1.86,-7.85
37672,748.67,756.90,755.57,754.88,754.01,121.09,-881.35,489.26,1.25,2.61,1.73,-6.76
37708,748.66,756.90,755.52,754.88,753.99,101.07,-872.07,495.61,2.80,3.19,0.18,-7.87
37743,748.62,757.00,755.56,754.94,754.03,110.84,-888.18,497.07,0.49,-1.00,-1.50,-8.43
37780,748.61,756.93,755.52,754.84,753.97,113.28,-867.19,485.35,-1.09,4.02,1.08,-7.44
37815,748.59,756.92,755.55,754.98,754.01,117.19,-879.88,500.49,2.98,0.95,1.87,-8.53
37851,748.65,756.91,755.53,754.92,754.00,129.39,-879.39,494.63,-0.30,2.06,-0.08,-8.33
37886,748.65,756.90,755.51,754.89,753.99,113.77,-881.84,493.65,0.11,0.33,1.56,-8.15
37921,748.65,756.96,755.50,754.91,754.00,125.98,-875.49,490.72,0.15,1.37,2.36,-9.44
37957,748.67,756.86,755.53,754.89,753.99,123.54,-867.19,492.68,1.27,-0.66,1.17,-7.51
37994,748.67,756.89,755.55,754.86,753.99,123.54,-870.61,482.42,0.11,1.77,0.45,-6.63
38030,748.63,756.86,755.57,754.94,754.00,127.93,-887.21,501.46,1.28,2.17,-1.44,-6.95
38065,748.67,756.86,755.52,754.91,753.99,120.12,-891.60,490.23,0.24,0.61,-0.46,-8.02
38101,748.67,756.84,755.58,754.99,754.02,121.09,-875.49,494.14,0.72,3.11,1.08,-7.58
38136,748.59,756.81,755.57,754.94,753.98,121.58,-875.98,494.14,1.69,2.22,-0.46,-6.59
38174,748.67,756.81,755.47,754.97,753.98,118.16,-894.53,488.28,2.80,2.66,-1.76,-9.72
38210,748.65,756.88,755.57,754.96,754.01,112.30,-879.39,488.77,0.42,0.71,1.29,-7.54
38245,748.65,756.84,755.44,754.85,753.94,105.47,-888.67,486.82,-1.13,3.96,0.90,-8.92
38281,748.58,756.89,755.49,754.91,753.97,115.23,-880.86,481.93,0.09,1.22,0.16,-8.67
38316,748.61,756.87,755.54,754.94,753.99,109.86,-884.28,497.07,-2.06,1.22,0.74,-7.91
38352,748.65,756.89,755.53,754.92,754.00,119.14,-879.88,503.42,0.24,1.72,-2.50,-8.16
38389,748.64,756.84,755.48,754.94,753.98,109.86,-886.72,499.51,-0.85,2.82,-1.04,-9.41
38424,748.62,756.82,755.53,754.85,753.96,119.63,-883.79,493.16,1.86,1.11,-1.39,-6.32
38460,748.62,756.78,755.49,754.87,753.94,125.00,-880.86,499.51,-0.90,2.06,-0.15,-7.57
38495,748.68,756.94,755.49,754.96,754.02,111.82,-885.25,483.89,0.95,1.54,0.48,-10.16
38530,748.65,756.89,755.56,754.97,754.02,122.07,-880.37,504.39,-1.18,1.80,3.32,-8.18
38566,748.67,756.86,755.51,754.90,753.98,119.14,-878.42,501.95,-0.09,2.64,-0.86,-8.11
38604,748.64,756.88,755.50,754.97,754.00,110.35,-873.54,491.70,0.21,0.02,2.02,-9.65
38639,748.66,756.85,755.57,754.92,754.00,116.21,-875.00,493.65,-0.46,2.96,1.41,-6.90
38675,748.64,756.82,755.51,754.93,753.98,124.02,-882.32,483.40,0.37,0.63,1.36,-8.20
38710,748.72,756.86,755.53,754.94,754.01,120.61,-889.16,508.30,1.63,0.21,0.36,-8.35
38746,748.70,756.93,755.55,754.97,754.04,119.63,-893.55,492.68,1.01,2.87,0.08,-8.77
38781,748.67,756.84,755.48,754.92,753.98,112.79,-888.18,493.65,-0.70,1.31,-1.00,-9.23
38819,748.65,756.89,755.54,754.95,754.01,116.21,-870.12,498.54,0.42,1.82,1.75,-8.41
38854,748.62,756.87,755.56,754.97,754.00,117.19,-894.53,491.70,0.25,0.30,-2.97,-7.70
38890,748.58,756.82,755.56,755.00,753.99,112.30,-879.39,491.21,0.98,1.50,-0.77,-7.90
38925,748.65,756.91,755.52,754.91,754.00,115.72,-876.46,499.51,-0.63,1.05,-0.19,-8.56
38961,748.63,756.86,755.50,754.88,753.97,107.91,-878.42,496.09,-0.02,1.19,1.77,-7.93
38996,748.63,756.93,755.51,754.97,754.01,117.19,-887.70,486.33,3.40,1.57,1.68,-9.49
39033,748.66,756.96,755.55,755.04,754.05,110.84,-888.67,494.63,1.46,0.85,-2.13,-10.06
39069,748.71,756.91,755.51,755.02,754.04,122.07,-883.30,491.21,0.57,2.15,0.23,-10.40
39104,748.65,756.83,755.48,755.00,753.99,122.56,-879.39,484.86,0.74,-0.34,0.48,-10.02
39139,748.74,756.84,755.56,754.97,754.03,114.75,-881.35,492.68,1.07,0.16,-1.34,-8.02
39175,748.66,756.90,755.54,755.03,754.03,115.23,-893.55,480.47,0.60,3.10,1.90,-9.67
39210,748.72,756.92,755.53,754.95,754.03,116.70,-883.79,478.52,-1.89,1.14,-0.60,-9.00
39249,748.63,756.92,755.53,755.00,754.02,118.65,-893.07,502.93,0.68,2.20,-0.39,-9.50
39284,748.66,756.91,755.51,754.96,754.01,116.21,-870.61,498.05,1.38,1.62,0.73,-9.34
39319,748.71,756.92,755.55,754.92,754.02,125.49,-877.44,497.56,-0.74,3.76,2.66,-7.95
39354,748.69,756.85,755.51,754.94,754.00,128.91,-887.70,486.82,0.27,1.02,1.50,-8.80
39390,748.68,756.87,755.53,754.97,754.01,125.98,-877.93,492.19,0.45,1.63,-0.25,-8.67
39425,748.68,756.83,755.50,754.89,753.98,129.39,-869.63,496.58,-1.56,0.49,-0.24,-7.97
39463,748.73,756.88,755.50,754.97,754.02,98.14,-881.35,488.28,-0.11,0.08,0.53,-9.65
39498,748.65,756.92,755.48,754.96,754.00,115.23,-878.42,491.21,-0.09,1.94,1.80,-10.21
39534,748.70,756.94,755.52,754.97,754.03,120.61,-874.02,488.77,1.55,0.68,-0.54,-9.78
39569,748.67,756.91,755.52,754.95,754.01,117.68,-875.49,503.42,0.05,2.18,1.24,-9.17
39605,748.67,756.90,755.52,754.94,754.01,120.12,-872.07,492.19,-0.03,0.23,1.87,-8.81
39641,748.63,756.88,755.51,755.01,754.01,120.61,-891.60,495.61,1.21,-0.29,2.06,-9.96
39679,748.65,756.98,755.50,755.00,754.03,132.81,-889.65,484.86,-1.31,2.90,0.41,-10.84
39714,748.66,756.89,755.51,754.94,754.00,103.03,-884.77,492.19,1.30,1.10,-1.83,-9.01
39750,748.71,757.06,755.53,754.92,754.05,110.84,-881.84,488.77,-1.58,0.68,0.60,-9.81
39785,748.67,756.92,755.54,754.97,754.03,109.86,-881.84,488.77,0.38,-0.08,0.49,-8.90
39821,748.72,756.86,755.52,754.99,754.02,137.70,-882.81,496.09,0.03,-1.81,0.92,-9.45
39856,748.68,756.92,755.50,755.03,754.03,120.12,-886.23,492.68,1.58,2.90,-0.11,-10.85
39894,748.69,756.88,755.56,754.98,754.03,108.89,-891.11,482.91,1.77,3.44,3.01,-8.16
39930,748.61,756.94,755.47,754.93,753.99,116.70,-883.30,487.30,-2.10,1.92,2.16,-10.06
39965,748.71,756.90,755.51,755.01,754.03,112.79,-887.21,497.07,-1.28,2.97,-0.80,-10.38
40001,748.60,756.89,755.60,755.03,754.03,116.21,-888.67,494.63,3.45,1.01,0.71,-7.96
40036,748.69,756.90,755.55,754.86,754.00,110.84,-886.72,494.14,0.45,3.52,0.46,-6.81
40072,748.68,756.88,755.54,755.00,754.02,112.79,-889.65,492.68,0.88,1.09,1.89,-9.00
40110,748.73,756.91,755.48,754.95,754.02,117.19,-874.51,495.12,1.88,0.41,0.98,-10.28
40146,748.73,756.99,755.53,754.98,754.06,116.21,-876.95,487.79,0.06,-0.08,0.42,-10.00
40181,748.71,757.02,755.51,754.95,754.05,116.21,-875.98,491.21,-1.32,0.65,2.31,-10.31
40217,748.70,756.93,755.44,755.02,754.02,115.72,-866.70,498.54,-0.71,1.63,0.46,-12.36
40253,748.74,756.96,755.53,754.93,754.04,97.66,-883.79,485.35,-1.05,0.55,-1.76,-9.11
40288,748.69,756.95,755.52,754.94,754.02,115.72,-888.18,494.63,-0.76,1.34,1.52,-9.22
40326,748.71,756.98,755.59,754.93,754.05,100.59,-885.25,504.39,0.44,1.77,-0.11,-7.55
40362,748.76,756.97,755.51,754.93,754.05,119.63,-868.65,484.86,-0.05,2.84,-1.34,-9.74
40397,748.71,756.95,755.56,754.97,754.05,119.14,-893.07,484.86,1.96,0.21,0.38,-8.90
40433,748.70,756.94,755.56,754.90,754.02,116.70,-870.12,494.63,3.07,1.92,-1.14,-7.76
40468,748.66,756.96,755.54,755.01,754.04,119.14,-881.35,486.82,0.38,1.38,0.34,-9.64
40504,748.69,756.90,755.66,754.96,754.05,113.28,-874.02,492.68,0.66,2.69,0.84,-5.87
40542,748.70,756.92,755.56,754.96,754.04,120.61,-869.63,499.02,0.52,2.13,1.55,-8.31
40577,748.74,756.94,755.53,755.00,754.05,128.91,-867.68,502.93,2.33,2.05,-1.71,-10.03
40613,748.75,756.95,755.62,755.00,754.08,118.16,-875.49,493.65,-0.38,-0.65,0.63,-7.88
40648,748.78,756.93,755.55,754.93,754.05,115.72,-877.44,487.30,-1.27,1.08,1.55,-8.39
40684,748.74,756.88,755.52,755.00,754.04,110.84,-888.18,481.45,0.95,0.82,-2.39,-9.68
40719,748.72,756.99,755.56,755.04,754.08,121.58,-876.46,484.37,2.07,0.63,-0.27,-10.17
40757,748.70,756.96,755.51,755.06,754.06,108.89,-893.55,497.07,1.28,1.68,0.49,-11.30
40792,748.76,756.90,755.55,755.00,754.05,125.00,-878.91,493.65,0.21,-0.41,0.24,-9.42
40827,748.71,756.94,755.53,754.99,754.04,122.07,-897.46,496.09,-2.14,5.23,2.27,-9.64
40863,748.69,756.95,755.52,755.06,754.05,121.09,-885.74,490.23,0.68,1.40,-0.92,-11.10
40898,748.77,756.98,755.50,755.05,754.08,119.14,-892.58,493.16,1.86,0.75,-2.16,-11.92
40934,748.69,756.97,755.53,754.99,754.05,124.02,-875.49,492.68,-0.41,0.87,0.87,-9.95
40972,748.70,756.94,755.51,754.97,754.03,124.02,-875.49,495.61,0.11,3.60,0.90,-10.16
41007,748.72,756.96,755.51,754.96,754.04,101.07,-888.18,474.12,0.21,1.21,-1.20,-10.05
41042,748.77,756.88,755.60,754.99,754.06,119.14,-880.86,499.02,0.66,-1.79,-0.66,-7.87
41078,748.71,756.92,755.53,755.02,754.05,101.56,-887.70,493.16,1.81,-0.26,1.08,-10.04
41113,748.78,756.90,755.53,754.98,754.04,120.61,-870.61,484.86,-1.53,2.92,1.82,-9.47
41149,748.72,756.97,755.58,754.98,754.06,135.74,-896.48,485.84,-1.76,1.26,1.42,-8.76
41186,748.80,756.91,755.59,754.98,754.07,119.14,-886.23,492.19,0.99,3.18,-0.39,-8.25
41221,748.72,756.99,755.54,754.94,754.05,119.14,-879.39,482.91,0.22,-0.89,0.98,-9.20
41257,748.80,756.92,755.52,755.02,754.07,120.61,-893.07,495.61,1.89,0.45,0.95,-10.65
41292,748.72,756.92,755.58,755.01,754.06,111.33,-877.44,488.77,2.84,1.64,-1.65,-8.82
41328,748.69,756.88,755.53,755.00,754.03,107.91,-882.81,500.49,1.62,-0.22,1.34,-9.30
41363,748.70,756.90,755.58,755.08,754.06,101.56,-877.44,495.61,-1.34,1.62,3.03,-9.50
41401,748.68,756.90,755.53,755.03,754.03,113.77,-871.58,499.02,-0.45,-1.50,0.82,-9.80
41437,748.72,756.92,755.57,755.04,754.06,125.49,-875.00,502.44,0.07,1.87,1.68,-9.41
41472,748.71,756.97,755.55,755.02,754.06,120.61,-871.58,479.98,-1.49,2.50,0.27,-10.04
41508,748.72,756.88,755.58,755.07,754.06,126.95,-886.72,496.58,1.66,1.12,-0.08,-9.24
41544,748.69,756.94,755.57,755.03,754.06,121.58,-890.62,492.68,-3.48,0.33,1.31,-9.18
41579,748.72,756.92,755.57,754.97,754.05,118.16,-881.84,512.21,-0.30,-0.83,2.73,-8.34
41617,748.73,756.95,755.56,754.99,754.06,112.79,-884.77,482.42,0.94,1.50,1.06,-9.14
41652,748.71,756.98,755.50,755.02,754.05,109.86,-879.88,483.40,0.73,0.74,-0.16,-11.34
41688,748.68,756.91,755.62,755.06,754.07,118.65,-886.23,484.37,-1.61,-0.38,-0.97,-8.27
41723,748.76,756.97,755.51,754.99,754.06,121.58,-889.16,489.75,0.18,-0.41,0.54,-10.70
41759,748.80,756.96,755.51,754.94,754.05,125.98,-884.77,492.68,0.86,0.27,-0.27,-9.81
41794,748.74,757.00,755.56,755.05,754.09,123.05,-877.93,497.07,2.55,1.28,-0.32,-10.39
41832,748.68,757.01,755.56,754.99,754.06,126.95,-871.09,498.54,1.27,3.22,-0.45,-9.46
41868,748.73,756.98,755.60,755.04,754.09,113.77,-890.14,487.30,-1.27,1.97,-1.18,-9.27
41903,748.70,756.95,755.56,755.02,754.06,135.25,-893.07,482.91,0.66,-0.41,1.28,-9.65
41939,748.73,756.96,755.52,755.09,754.08,132.32,-904.30,484.37,0.63,1.15,-0.12,-11.68
41974,748.80,757.04,755.51,754.98,754.08,135.74,-874.51,492.68,0.53,1.14,1.01,-11.27
42013,748.71,756.94,755.57,754.96,754.04,116.21,-884.77,492.68,1.28,4.01,3.89,-8.37
42048,748.65,757.01,755.58,755.06,754.07,113.77,-870.61,495.61,0.87,3.65,0.80,-9.96
42084,748.68,756.90,755.57,755.02,754.04,118.65,-894.04,490.72,-0.31,1.89,0.65,-8.84
42120,748.76,756.98,755.64,755.10,754.12,113.28,-889.65,491.21,-0.68,3.62,-0.37,-9.24
42155,748.78,756.97,755.59,755.00,754.08,116.21,-891.60,497.07,0.79,1.39,-1.24,-8.92
42191,748.75,756.94,755.57,755.03,754.07,110.35,-893.07,487.30,-0.77,0.11,1.11,-9.49
42233,748.70,756.96,755.59,755.03,754.07,128.91,-895.51,482.42,-1.57,1.95,0.05,-9.07
42268,748.73,756.93,755.59,754.97,754.05,112.30,-879.39,490.23,0.86,0.72,-1.56,-7.87
42304,748.79,756.90,755.60,755.04,754.08,122.56,-876.95,488.77,1.10,1.24,1.07,-8.56
42340,748.71,756.88,755.59,754.99,754.04,121.58,-888.67,493.16,1.73,-0.21,-0.21,-7.64
42375,748.79,756.92,755.56,754.95,754.06,111.82,-889.16,486.33,0.59,1.74,0.65,-8.47
42411,748.79,756.90,755.58,755.07,754.08,114.26,-891.60,493.16,-0.05,1.50,2.36,-9.67
42450,748.77,756.91,755.69,755.04,754.10,132.81,-880.37,490.23,-0.18,0.74,-2.14,-6.48
42486,748.83,756.86,755.58,755.07,754.09,121.09,-884.77,493.65,0.66,2.05,-0.65,-9.45
42521,748.74,756.90,755.57,755.07,754.07,128.91,-898.93,488.28,-0.40,1.50,0.86,-9.58
42557,748.75,757.01,755.56,755.05,754.09,114.75,-886.72,484.37,0.53,1.50,0.24,-10.53
42592,748.75,756.95,755.59,754.90,754.05,113.28,-878.42,508.79,2.35,1.37,0.76,-7.23
42628,748.72,756.95,755.60,755.03,754.07,104.49,-875.00,484.86,2.72,2.44,-0.42,-8.64
42666,748.75,756.92,755.66,755.02,754.09,114.75,-885.74,492.19,0.49,1.27,0.19,-6.95
42701,748.75,756.95,755.65,755.04,754.10,105.47,-892.58,488.77,-1.50,0.37,1.27,-7.76
42737,748.75,756.99,755.59,755.06,754.10,105.96,-898.44,491.21,1.20,3.25,-0.08,-9.93
42772,748.78,756.92,755.56,755.08,754.09,128.91,-887.70,493.65,0.21,0.82,-0.60,-10.46
42808,748.78,756.99,755.58,755.09,754.11,106.45,-890.14,496.09,-0.90,0.47,-0.48,-10.50
42843,748.72,757.01,755.60,755.03,754.09,127.93,-878.42,494.63,0.89,1.55,-0.18,-9.12
42881,748.75,756.96,755.56,755.06,754.08,111.82,-890.14,488.77,0.34,1.43,0.74,-10.29
42918,748.73,756.91,755.60,755.05,754.07,111.82,-869.63,487.79,1.81,2.18,-0.27,-8.72
42953,748.74,756.99,755.64,755.04,754.10,112.79,-873.54,499.51,2.05,0.01,0.06,-8.20
42989,748.79,757.02,755.56,755.02,754.09,120.61,-880.86,503.42,1.94,1.32,-0.67,-10.39
43025,748.74,756.94,755.56,754.97,754.05,123.54,-887.21,497.56,-2.02,1.87,-1.79,-8.98
43061,748.72,756.98,755.62,755.09,754.10,121.09,-886.72,497.07,1.90,0.34,-1.01,-9.56
43099,748.80,757.01,755.58,755.01,754.10,119.14,-869.14,499.02,0.32,1.03,-0.07,-9.71
43135,748.74,757.12,755.61,755.11,754.15,114.75,-888.18,492.19,1.89,3.15,0.98,-11.08
43171,748.80,757.05,755.64,755.04,754.13,122.07,-874.51,480.96,-0.38,2.31,1.18,-8.91
43206,748.83,757.08,755.56,755.03,754.13,109.86,-888.67,490.23,0.30,3.53,0.71,-11.04
43242,748.76,757.00,755.65,754.95,754.09,119.63,-887.70,485.35,-1.77,1.00,2.02,-6.78
43278,748.72,756.96,755.60,755.08,754.09,118.65,-872.56,490.72,0.21,0.57,1.34,-9.45
43316,748.79,757.05,755.54,755.11,754.12,102.05,-878.91,502.93,1.89,0.29,0.56,-12.45
43352,748.78,757.03,755.61,755.04,754.11,117.68,-900.88,493.16,0.81,-0.50,1.11,-9.38
43388,748.77,756.98,755.67,755.06,754.12,129.39,-880.86,482.91,0.43,-0.15,-0.42,-7.89
43423,748.81,756.99,755.59,755.14,754.13,112.30,-896.48,497.56,2.02,2.24,0.63,-11.25
43459,748.72,757.08,755.46,755.01,754.07,114.26,-878.42,497.56,-0.85,1.69,0.31,-13.07
43495,748.79,757.04,755.63,754.99,754.11,117.68,-876.95,502.93,0.10,0.19,0.42,-8.24
43533,748.77,757.06,755.51,755.03,754.09,120.61,-884.77,498.54,1.09,2.11,1.42,-11.93
43569,748.76,757.04,755.63,755.07,754.12,110.84,-882.81,483.89,-0.56,3.15,-0.95,-9.45
43605,748.81,757.05,755.59,755.01,754.11,119.14,-877.93,488.77,2.17,2.29,-0.50,-9.72
43641,748.71,757.03,755.55,755.06,754.09,116.21,-882.32,485.35,0.52,1.37,-0.64,-11.00
43676,748.82,757.06,755.58,755.04,754.12,120.61,-875.00,499.02,1.11,1.31,0.12,-10.68
43712,748.79,757.05,755.62,755.07,754.13,119.14,-885.25,493.65,0.96,1.10,2.56,-9.99
43750,748.80,757.01,755.60,755.01,754.11,125.00,-884.28,513.67,-2.05,-0.23,0.24,-9.30
43786,748.77,757.10,755.61,755.02,754.12,113.77,-884.28,491.21,-0.04,1.21,0.68,-9.84
43822,748.75,757.08,755.57,755.13,754.13,120.61,-872.56,485.84,-0.32,0.92,-0.98,-12.19
43858,748.71,757.08,755.60,755.03,754.11,115.23,-889.16,492.68,-0.37,0.63,-1.11,-9.82
43894,748.77,757.01,755.61,755.10,754.12,130.86,-886.23,490.23,-1.22,2.15,-0.66,-10.25
43930,748.72,757.04,755.62,755.08,754.11,123.54,-888.18,500.98,0.27,1.57,-0.82,-9.70
43968,748.79,756.94,755.63,755.02,754.09,113.77,-883.30,490.23,1.47,1.13,-0.35,-8.06
44004,748.76,757.05,755.60,755.13,754.14,121.58,-871.58,492.19,0.61,1.18,2.76,-11.17
44040,748.74,756.98,755.58,755.00,754.08,116.70,-883.30,492.19,0.60,-0.60,1.31,-9.01
44075,748.76,756.98,755.63,755.03,754.10,102.54,-879.88,506.35,0.65,2.08,2.79,-8.25
44111,748.78,756.95,755.57,755.01,754.08,124.51,-872.56,492.19,2.31,2.15,-0.69,-9.39
44147,748.79,756.93,755.58,755.09,754.10,121.58,-879.39,491.21,-0.16,-0.59,0.08,-10.15
44185,748.74,757.01,755.66,755.08,754.12,109.37,-884.28,498.54,-0.02,2.88,0.43,-8.59
44221,748.78,756.98,755.61,755.07,754.11,118.16,-892.09,505.37,-0.02,-1.17,1.16,-9.53
44256,748.81,757.07,755.61,755.11,754.15,122.07,-891.60,495.61,0.37,2.84,-2.27,-10.96
44292,748.79,757.02,755.60,755.08,754.12,120.61,-887.21,502.44,0.00,1.86,-0.56,-10.26
44327,748.78,756.96,755.64,755.02,754.10,125.00,-884.77,487.79,-0.92,0.97,0.49,-7.90
44363,748.71,757.12,755.59,755.13,754.14,114.75,-885.25,494.14,-0.28,2.11,2.76,-11.92
44402,748.80,757.01,755.56,755.06,754.11,110.84,-878.42,507.32,-0.27,0.68,-0.48,-10.92
44437,748.83,757.04,755.64,754.98,754.12,117.19,-873.54,499.02,-0.47,2.11,2.11,-8.12
44473,748.78,757.01,755.64,755.09,754.13,115.23,-887.70,480.47,1.77,2.79,1.05,-9.21
44508,748.80,757.02,755.57,755.12,754.13,120.12,-877.93,497.56,-2.50,-1.17,-0.50,-11.53
44544,748.83,756.98,755.59,755.05,754.11,123.05,-897.95,497.56,1.71,-0.51,1.17,-10.08
44579,748.77,757.03,755.61,755.06,754.12,124.51,-878.42,503.91,1.64,1.71,-0.86,-9.81
44617,748.76,757.04,755.60,755.10,754.12,111.82,-877.44,499.51,-0.45,2.23,0.22,-10.49
44653,748.77,757.06,755.60,755.17,754.15,120.61,-887.70,488.28,0.95,1.53,0.21,-11.88
44689,748.83,757.07,755.57,755.14,754.15,121.58,-882.81,493.16,-0.05,2.00,0.27,-12.55
44724,748.86,756.99,755.61,755.11,754.14,110.35,-892.58,492.68,1.00,0.70,1.00,-10.39
44760,748.81,756.98,755.60,755.10,754.12,105.96,-888.67,486.82,0.93,0.92,-1.12,-10.43
44796,748.88,756.99,755.54,755.19,754.15,123.54,-883.79,489.75,0.29,0.13,1.53,-13.28
44835,748.77,756.98,755.63,755.08,754.11,115.72,-886.72,494.14,0.12,0.37,-0.11,-9.15
44871,748.83,756.94,755.60,755.09,754.11,122.56,-876.95,507.81,1.12,0.26,2.27,-9.89
44906,748.79,757.01,755.58,755.07,754.11,114.75,-891.60,499.02,1.44,3.31,-0.44,-10.57
44942,748.82,756.95,755.62,755.02,754.10,113.28,-883.30,497.07,0.53,2.34,-1.34,-8.39
44978,748.80,757.03,755.62,755.06,754.13,124.51,-887.70,484.37,1.26,1.98,-1.69,-9.69
45014,748.82,757.00,755.56,755.02,754.10,113.77,-889.16,498.05,1.02,2.47,0.40,-10.16
45052,748.81,757.05,755.62,755.11,754.15,121.58,-880.37,486.82,1.00,0.15,0.69,-10.37
45088,748.71,757.07,755.63,755.11,754.13,106.93,-878.91,484.37,2.44,2.44,-0.02,-9.91
45123,748.81,757.11,755.64,755.06,754.15,112.79,-886.23,491.21,1.93,0.65,-2.74,-9.84
45159,748.74,757.04,755.59,755.10,754.12,117.19,-889.65,487.79,0.84,1.74,0.28,-10.80
45195,748.79,757.06,755.59,754.98,754.11,122.56,-869.14,495.61,0.38,2.10,-0.54,-9.30
45231,748.80,757.07,755.59,755.04,754.12,128.42,-900.39,483.40,-0.81,3.64,1.34,-10.38
45269,748.76,757.05,755.63,755.01,754.11,121.58,-883.30,488.77,0.09,0.50,-1.13,-8.66
45305,748.88,757.01,755.66,755.08,754.16,121.09,-884.77,490.23,1.51,1.34,1.21,-8.85
45340,748.79,757.08,755.62,755.04,754.13,114.75,-872.56,503.91,1.31,2.24,1.19,-9.72
45376,748.80,757.07,755.62,755.10,754.15,111.33,-881.84,497.56,1.24,-0.57,2.18,-10.60
45411,748.79,757.05,755.58,755.08,754.12,115.72,-875.98,499.02,0.32,-0.21,-1.41,-11.05
45449,748.88,756.99,755.69,755.08,754.16,114.26,-880.86,498.05,0.51,1.01,0.08,-8.18
45485,748.81,757.02,755.59,755.06,754.12,114.75,-879.88,501.95,1.14,0.25,1.39,-10.26
45521,748.82,757.09,755.64,755.08,754.16,116.21,-885.25,499.51,1.37,1.05,1.75,-10.01
45556,748.82,757.09,755.57,755.08,754.14,123.54,-887.21,497.07,0.72,1.32,-1.18,-11.61
45592,748.88,757.05,755.59,755.11,754.16,123.05,-870.12,503.91,2.15,3.38,0.29,-11.67
45628,748.82,757.04,755.59,755.03,754.12,118.65,-876.95,493.65,0.30,3.92,0.87,-10.01
45666,748.83,757.01,755.61,755.11,754.14,122.07,-874.51,499.51,-0.63,1.28,1.24,-10.59
45701,748.85,757.03,755.67,755.14,754.17,114.75,-887.21,479.49,0.00,1.23,1.45,-9.77
45737,748.83,757.11,755.62,755.11,754.17,119.63,-869.63,488.28,0.65,1.22,0.88,-11.07
45772,748.84,757.04,755.69,755.11,754.17,120.12,-884.77,496.58,1.76,1.44,0.44,-8.77
45809,748.81,757.04,755.64,755.12,754.15,115.23,-880.37,507.81,0.51,0.76,1.75,-10.02
45844,748.80,757.07,755.70,755.03,754.15,117.68,-875.49,479.49,-0.06,3.46,1.47,-7.56
45882,748.78,757.07,755.64,755.05,754.13,115.23,-882.32,495.61,-1.94,1.51,0.98,-9.27
45917,748.84,757.05,755.60,754.99,754.12,116.21,-886.72,489.75,-0.01,2.53,-0.27,-9.51
45953,748.89,757.05,755.67,755.07,754.17,117.68,-895.02,499.02,-2.01,1.44,3.63,-8.92
45988,748.85,757.01,755.65,755.05,754.14,117.68,-890.14,487.79,1.69,3.34,-0.73,-8.71
46023,748.81,757.12,755.59,755.08,754.15,106.45,-880.37,490.23,0.74,0.74,1.74,-11.45
46059,748.85,757.01,755.60,755.09,754.14,128.91,-876.46,499.51,-0.24,0.41,1.86,-10.47
46097,748.84,757.08,755.57,755.14,754.16,125.98,-881.35,489.26,0.08,0.98,-0.47,-12.55
46132,748.87,757.01,755.59,755.13,754.15,112.30,-888.18,491.70,0.76,1.58,1.92,-11.34
46168,748.85,757.05,755.64,755.01,754.14,132.81,-876.46,499.51,-0.37,1.92,-1.25,-8.82
46203,748.90,757.06,755.62,755.15,754.18,114.75,-895.51,492.19,-0.29,-0.89,-1.45,-11.39
46238,748.87,757.07,755.64,755.15,754.18,132.32,-880.37,496.58,0.53,-0.01,-3.04,-10.92
46274,748.80,757.09,755.65,755.13,754.17,117.68,-872.07,489.75,-1.03,2.33,0.86,-10.28
46312,748.88,757.07,755.61,755.12,754.17,115.72,-880.37,485.84,-1.08,2.09,1.35,-11.18
46347,748.93,757.09,755.66,755.07,754.18,121.58,-885.25,493.16,0.82,1.34,0.23,-9.67
46383,748.89,757.08,755.66,755.06,754.17,115.23,-891.60,493.65,0.97,3.89,1.82,-9.24
46418,748.89,757.04,755.67,755.18,754.20,123.05,-887.70,494.63,1.18,-1.93,-2.96,-10.37
46454,748.82,757.03,755.66,755.04,754.14,120.61,-875.00,486.82,0.31,1.62,1.76,-8.29
46490,748.88,757.07,755.66,754.98,754.15,109.86,-887.21,504.39,-1.52,2.04,-0.63,-7.94
46528,748.84,757.08,755.68,755.03,754.16,124.02,-882.81,498.54,1.42,2.50,-1.05,-8.32
46563,748.82,757.03,755.66,755.04,754.14,120.61,-888.67,500.49,1.67,-0.01,-1.94,-8.28
46599,748.98,757.08,755.63,755.15,754.21,117.19,-883.30,493.16,-0.56,-0.43,-0.66,-11.79
46635,748.91,757.07,755.63,755.07,754.17,97.66,-874.02,512.70,-0.58,1.39,1.38,-10.31
46670,748.93,757.12,755.62,755.05,754.18,128.42,-888.18,489.75,-2.78,1.23,-0.33,-10.58
46706,748.94,757.10,755.65,755.07,754.19,121.09,-884.28,491.70,1.08,1.58,0.43,-10.08
46744,748.96,757.11,755.65,755.13,754.21,111.33,-873.54,497.07,0.44,1.85,-0.53,-11.10
46780,748.89,757.11,755.69,755.12,754.20,113.28,-882.32,484.37,0.11,-0.06,1.74,-9.73
46816,748.90,757.11,755.67,755.06,754.19,111.33,-881.84,494.63,0.14,1.31,-1.53,-9.41
46852,748.88,757.11,755.60,755.10,754.17,129.88,-868.16,482.91,1.49,0.62,-0.50,-11.57
46887,748.90,757.20,755.63,755.11,754.21,126.46,-889.16,484.86,1.65,1.64,-2.54,-11.91
46923,748.84,757.09,755.67,755.14,754.18,125.49,-877.93,505.86,-2.12,0.16,-1.35,-10.33
46961,748.91,757.14,755.61,755.05,754.17,128.42,-875.49,487.30,3.60,3.13,0.29,-10.85
46997,748.87,757.11,755.60,755.10,754.17,113.28,-877.44,496.09,-0.34,0.77,-0.11,-11.55
47033,748.91,757.14,755.70,755.12,754.22,115.72,-882.32,493.65,0.37,1.98,1.40,-9.71
47068,748.85,757.13,755.69,755.13,754.20,124.51,-888.67,506.35,1.72,0.63,-0.42,-9.86
47104,748.92,757.10,755.65,755.14,754.20,107.42,-887.70,480.96,-0.37,4.03,1.30,-10.92
47139,748.85,757.05,755.70,755.15,754.19,128.42,-892.58,489.75,-1.53,-0.34,-1.44,-9.11
47178,748.92,757.11,755.66,755.04,754.18,119.14,-877.44,496.09,1.82,3.81,-0.39,-9.46
47213,748.89,757.08,755.63,755.13,754.18,116.70,-874.51,488.77,0.34,0.62,1.18,-10.93
47249,748.86,757.07,755.64,755.11,754.17,119.14,-890.14,500.00,1.19,0.29,-0.98,-10.33
47285,748.94,757.04,755.66,755.08,754.18,112.79,-882.81,488.28,0.46,-1.31,1.80,-9.49
47320,748.95,757.05,755.66,755.12,754.19,114.75,-884.28,493.16,-0.66,-1.11,-0.71,-10.11
47356,748.91,757.09,755.64,755.09,754.18,118.16,-875.00,483.40,-3.16,0.73,4.62,-10.36
47394,748.93,757.08,755.62,755.14,754.19,103.03,-890.62,481.45,-0.99,0.35,0.91,-11.66
47430,748.86,757.10,755.69,755.08,754.18,125.00,-881.84,487.30,-0.63,0.42,-3.01,-8.77
47466,748.90,757.14,755.59,755.12,754.19,124.02,-885.25,493.16,0.24,0.51,1.28,-12.38
47501,748.85,757.13,755.64,755.18,754.20,129.88,-892.58,497.07,0.75,-0.60,1.84,-11.91
47537,748.84,757.13,755.61,755.06,754.16,125.98,-881.84,487.79,0.50,-0.87,2.12,-10.71
47573,748.85,757.17,755.65,755.14,754.20,117.19,-878.42,494.14,0.44,0.18,0.58,-11.33
47611,748.91,757.20,755.62,755.18,754.23,121.09,-887.21,502.93,0.36,-1.15,4.07,-13.08
47647,748.88,757.21,755.59,755.14,754.20,119.63,-870.12,483.89,2.66,-2.11,0.04,-13.14
47682,748.95,757.14,755.65,755.14,754.22,115.23,-882.81,487.30,-0.07,1.15,-1.05,-11.54
47718,748.90,757.13,755.68,755.08,754.20,119.63,-885.25,488.77,-0.69,2.12,0.72,-9.61
47754,748.89,757.09,755.67,755.13,754.19,124.02,-886.23,479.98,0.40,0.26,1.80,-10.21
47789,748.83,757.14,755.62,755.14,754.18,114.75,-877.44,485.84,-0.84,1.47,-0.07,-11.66
47828,748.94,757.08,755.70,755.11,754.21,112.79,-889.16,493.65,0.34,1.47,1.37,-9.09
47863,748.88,757.16,755.70,755.11,754.22,121.09,-883.30,493.65,-0.40,1.61,0.80,-9.68
47899,748.91,757.12,755.65,755.17,754.21,120.12,-883.30,498.54,1.02,2.59,-3.05,-11.73
47934,748.95,757.12,755.64,755.13,754.21,126.46,-889.16,488.28,0.82,0.89,-0.80,-11.37
47970,748.85,757.17,755.69,755.06,754.19,114.26,-895.02,494.14,-0.80,1.93,2.65,-9.23
48008,748.87,757.15,755.66,755.09,754.19,118.16,-884.77,493.65,1.05,0.38,2.91,-10.09
48044,748.89,757.12,755.61,755.11,754.19,116.70,-878.42,490.23,-0.56,-0.63,1.31,-11.63
48079,748.81,757.10,755.68,755.13,754.18,113.77,-882.32,487.79,0.63,-1.59,3.87,-9.80
48115,748.87,757.12,755.61,755.10,754.18,116.70,-881.84,501.46,0.27,-0.53,-0.16,-11.30
48151,748.92,757.10,755.66,755.08,754.19,118.65,-875.49,485.84,1.15,0.18,-1.71,-9.71
48187,748.89,757.07,755.60,755.09,754.16,132.81,-881.84,492.68,-0.31,0.45,1.11,-11.34
48225,748.91,757.16,755.64,755.05,754.19,119.14,-885.74,485.35,-0.98,-0.18,1.76,-10.47
48261,748.85,757.15,755.69,755.13,754.21,110.35,-883.30,488.28,-1.47,1.48,-0.85,-10.08
48296,748.85,757.19,755.64,755.06,754.19,112.30,-871.58,487.30,1.24,-0.31,-1.02,-10.50
48332,748.84,757.11,755.64,755.13,754.18,110.84,-885.25,491.70,-0.57,1.46,-1.47,-10.98
48368,748.89,757.08,755.63,755.14,754.18,107.91,-877.44,498.05,-1.74,2.37,1.29,-11.36
48404,748.87,757.07,755.69,755.22,754.21,109.86,-882.32,491.70,-0.74,-1.05,0.44,-10.74
48442,748.87,756.97,755.65,755.18,754.17,122.07,-902.83,488.28,0.92,0.22,-0.66,-10.27
48478,748.88,757.15,755.71,755.10,754.21,115.23,-885.25,492.19,-0.85,1.48,0.85,-9.30
48513,748.87,757.12,755.69,755.05,754.18,117.19,-884.28,485.35,0.06,0.60,-0.82,-8.82
48549,748.83,757.10,755.67,755.07,754.17,108.89,-873.05,486.33,0.48,2.89,-2.26,-9.19
48585,748.87,757.12,755.59,755.09,754.17,128.42,-888.18,498.05,0.45,1.79,0.13,-11.63
48621,748.83,757.06,755.66,755.15,754.17,115.72,-885.25,486.33,-0.02,-0.44,-0.76,-10.17
48660,748.84,757.07,755.61,755.18,754.17,113.28,-876.95,491.70,1.38,1.79,-0.25,-12.10
48695,748.88,757.08,755.63,755.17,754.19,125.00,-886.72,486.82,0.21,0.40,1.99,-11.64
48731,748.86,757.05,755.62,755.08,754.15,125.49,-869.14,503.42,0.80,2.41,0.69,-10.23
48767,748.90,757.07,755.66,755.19,754.21,114.26,-891.11,496.58,-1.38,-0.37,1.45,-11.07
48803,748.87,757.09,755.64,755.08,754.17,113.28,-874.51,495.12,0.16,0.92,1.07,-10.01
48838,748.91,757.11,755.62,755.16,754.20,123.54,-890.62,499.51,2.36,0.94,1.99,-12.11
48877,748.87,757.10,755.65,755.11,754.18,117.68,-887.21,500.00,-0.85,0.10,1.40,-10.33
48912,748.87,757.09,755.66,755.12,754.19,117.19,-877.93,491.21,0.24,0.42,0.16,-10.19
48948,748.91,757.06,755.64,755.14,754.19,120.12,-873.05,501.95,0.89,1.48,-2.92,-10.79
48984,748.92,757.09,755.68,755.11,754.20,121.09,-885.25,494.63,-0.99,1.83,-0.48,-9.67
49020,748.83,757.11,755.64,755.06,754.16,125.00,-888.18,482.91,0.67,-0.28,0.82,-9.85
49056,748.81,757.10,755.64,755.13,754.17,120.12,-882.32,485.35,-0.57,1.92,1.52,-10.75
49094,748.84,757.11,755.57,755.12,754.16,122.56,-881.35,492.19,1.02,-1.72,-2.24,-12.46
49130,748.88,757.13,755.63,755.18,754.21,113.28,-871.09,486.82,0.40,1.02,2.15,-12.22
49165,748.86,757.13,755.64,755.15,754.20,125.00,-875.00,487.79,1.58,2.77,-0.24,-11.36
49201,748.76,757.14,755.61,755.12,754.15,108.40,-876.95,500.98,-0.18,4.21,0.40,-11.54
49237,748.89,757.07,755.61,755.08,754.16,122.56,-875.98,503.42,1.34,0.78,-0.60,-10.82
49273,748.89,757.12,755.60,755.07,754.17,116.21,-885.25,495.12,0.48,-0.18,1.23,-11.33
49310,748.91,757.06,755.66,755.14,754.20,116.21,-876.95,496.58,-0.41,-1.14,-0.55,-10.35
49345,748.85,757.14,755.67,755.09,754.19,115.23,-876.46,485.84,2.44,1.04,-0.05,-9.67
49381,748.87,757.08,755.68,755.11,754.19,119.63,-883.79,484.86,-0.89,0.34,1.72,-9.41
49416,748.87,757.11,755.65,755.08,754.18,118.65,-874.51,490.23,-0.44,3.61,0.44,-10.04
49452,748.84,757.01,755.58,755.11,754.14,118.16,-885.25,495.61,1.15,0.37,0.36,-11.33
49487,748.86,757.11,755.66,755.16,754.20,118.65,-890.14,485.35,-0.69,1.76,-1.05,-10.75
49525,748.92,757.05,755.61,755.15,754.18,109.86,-880.86,490.72,0.54,1.37,2.27,-11.76
49560,748.90,757.06,755.65,755.14,754.19,118.65,-883.79,487.30,-1.36,2.71,0.12,-10.58
49596,748.94,757.02,755.67,755.17,754.20,123.05,-881.84,507.81,0.80,2.18,2.14,-10.40
49632,748.87,757.10,755.66,755.16,754.19,115.72,-875.49,492.19,-1.39,2.49,1.48,-10.90
49667,748.90,757.10,755.71,755.12,754.21,123.05,-875.00,491.70,1.22,-0.13,-1.40,-9.16
49702,748.91,757.15,755.60,755.20,754.22,108.89,-876.95,499.02,-0.24,-0.31,-0.98,-13.48
49740,748.88,757.09,755.62,755.22,754.20,122.07,-884.77,483.89,0.80,2.01,1.75,-12.65
49776,748.89,757.16,755.66,755.12,754.21,122.07,-876.46,495.61,-0.54,0.95,2.11,-10.99
49811,748.82,757.14,755.65,755.11,754.18,129.39,-880.37,491.21,1.14,0.28,-0.04,-10.62
49847,748.84,757.10,755.70,755.12,754.19,121.58,-888.18,495.61,1.01,1.47,-2.30,-9.27
49883,748.86,757.10,755.69,755.15,754.20,129.88,-874.02,497.56,2.85,-1.27,1.66,-10.05
49921,748.91,757.12,755.61,755.17,754.20,113.77,-875.49,495.12,-1.38,0.09,1.15,-12.47
49956,748.90,757.09,755.68,755.19,754.22,108.89,-884.77,492.19,-1.25,1.02,0.31,-10.87
49992,748.84,757.07,755.60,755.16,754.17,124.02,-887.70,492.68,-0.55,0.81,0.31,-11.87
50028,748.85,757.14,755.64,755.12,754.19,113.28,-880.37,488.77,0.08,0.87,3.92,-10.91
50063,748.84,757.17,755.63,755.17,754.20,122.56,-883.79,492.19,0.21,1.87,4.24,-12.07
50099,748.83,757.05,755.65,755.16,754.17,118.16,-886.23,495.12,-1.27,2.44,-1.71,-10.48
