currTime,s1,s2,s3,s4,s,AccX,AccY,AccZ,GyroX,GyroY,GyroZ,GRF
23,782.59,766.97,754.56,753.21,764.33,-37.60,-875.98,538.09,-0.98,1.37,-1.37,-204.43
55,782.68,767.00,754.60,753.17,764.36,-37.60,-874.51,538.09,-0.74,1.88,0.24,-203.38
86,782.66,766.98,754.60,753.11,764.34,-32.71,-875.49,533.20,-0.28,-1.40,-1.36,-202.20
118,782.69,766.91,754.61,753.05,764.32,-24.41,-869.14,532.23,3.24,1.31,0.22,-200.76
149,782.74,766.93,754.60,753.06,764.34,-39.06,-874.02,541.99,0.66,0.78,-2.09,-201.47
180,782.79,766.89,754.56,753.18,764.35,-36.62,-866.21,520.02,-0.02,-0.57,-0.50,-204.10
212,782.95,766.89,754.60,753.03,764.37,-37.11,-872.56,534.18,1.20,-1.97,-3.10,-201.41
244,782.92,766.77,754.55,753.03,764.32,-24.90,-866.70,545.90,-0.76,0.28,-0.18,-201.55
275,782.97,766.71,754.58,752.91,764.29,-30.76,-870.61,550.78,0.27,1.95,-0.96,-198.70
307,782.98,766.69,754.59,752.94,764.30,-30.27,-870.12,548.83,-1.33,2.15,0.84,-198.75
339,783.06,766.67,754.54,752.91,764.30,-28.32,-866.70,539.55,0.15,-4.03,2.08,-199.92
370,783.09,766.55,754.50,752.93,764.27,-40.53,-875.00,538.57,0.44,1.79,0.92,-200.16
402,783.00,766.61,754.47,752.90,764.25,-28.32,-870.12,546.87,1.79,-0.78,-1.40,-200.69
434,782.98,766.56,754.56,752.99,764.27,-16.60,-866.70,541.99,0.55,-1.63,-2.81,-199.20
466,783.02,766.53,754.56,753.00,764.28,-24.90,-870.61,548.34,0.68,4.22,1.98,-199.40
497,782.92,766.62,754.58,753.00,764.28,-32.23,-866.21,524.90,0.08,-0.85,-0.25,-199.34
529,782.72,766.64,754.49,753.17,764.25,-13.18,-871.09,539.55,-1.31,-1.62,0.30,-203.32
561,782.76,766.67,754.54,753.07,764.26,-32.71,-871.09,540.04,1.45,1.14,-0.62,-201.24
593,782.66,766.64,754.60,753.10,764.25,-31.74,-865.72,540.04,-0.97,1.26,-1.36,-199.60
624,782.60,766.72,754.52,753.10,764.23,-31.25,-882.32,540.04,0.79,-1.02,-1.31,-201.82
656,782.52,766.74,754.51,753.15,764.23,-36.13,-875.00,529.79,-1.43,0.42,-1.43,-202.78
688,782.43,766.80,754.56,753.16,764.24,-41.99,-870.61,530.27,-0.02,-0.08,-0.34,-201.74
720,782.35,766.72,754.56,753.15,764.19,-42.97,-871.58,538.57,-1.67,0.58,-2.33,-200.59
751,782.26,766.75,754.51,753.18,764.17,-35.16,-863.77,535.64,-0.53,-0.82,-0.47,-202.44
783,782.37,766.83,754.53,753.18,764.23,-43.95,-868.65,532.71,-2.12,0.76,-1.15,-202.87
815,782.32,766.78,754.59,753.12,764.20,-41.02,-866.70,538.09,-0.43,2.10,0.58,-200.01
848,782.32,766.82,754.53,753.10,764.19,-35.64,-869.14,527.83,1.39,-1.18,1.14,-201.56
880,782.34,766.77,754.57,753.06,764.18,-38.09,-874.51,548.83,-2.05,-0.26,0.34,-199.60
912,782.29,766.77,754.56,753.01,764.16,-30.27,-865.23,538.09,-0.87,1.56,0.67,-198.76
944,782.36,766.77,754.51,753.02,764.16,-26.37,-875.00,538.09,-0.53,-1.95,-1.58,-200.53
975,782.35,766.75,754.59,753.00,764.17,-27.34,-861.82,547.36,0.97,0.94,-0.44,-198.13
1007,782.42,766.69,754.57,752.99,764.17,-32.71,-874.51,531.25,0.13,0.45,-2.42,-198.23
1039,782.52,766.73,754.59,752.97,764.20,-37.11,-873.54,529.79,-1.60,1.92,0.03,-197.85
1070,782.55,766.68,754.64,752.98,764.21,-27.83,-857.42,542.48,0.95,-1.21,0.19,-196.60
1102,782.63,766.69,754.59,752.91,764.20,-22.95,-860.84,550.29,0.22,0.95,0.40,-197.27
1134,782.63,766.62,754.61,752.91,764.19,-38.09,-873.05,538.57,-1.47,-0.68,-0.85,-196.10
1166,782.63,766.61,754.55,752.93,764.18,-41.50,-865.72,530.76,0.14,-0.38,-0.42,-197.83
1197,782.70,766.55,754.57,752.95,764.19,-27.34,-882.81,532.71,-0.18,-1.73,1.24,-197.31
1229,782.70,766.57,754.55,752.97,764.20,-18.07,-878.91,533.69,-0.36,0.77,1.59,-198.41
1261,782.72,766.51,754.52,753.02,764.19,-23.93,-882.32,532.23,1.01,0.19,-0.20,-199.46
1293,782.73,766.55,754.53,752.98,764.20,-31.25,-883.30,524.90,0.76,0.44,-1.63,-199.01
1324,782.72,766.48,754.50,753.04,764.19,-27.34,-870.61,546.39,-0.35,-0.92,2.73,-199.99
1355,782.74,766.45,754.56,753.06,764.21,-24.90,-869.63,534.67,-0.09,1.12,-0.67,-198.61
1386,782.61,766.48,754.61,753.08,764.20,-25.39,-874.02,533.20,0.21,-1.11,0.44,-197.55
1417,782.64,766.65,754.57,753.17,764.26,-19.53,-883.79,547.36,1.27,-1.51,1.33,-201.29
1449,782.61,766.61,754.53,753.11,764.22,-24.90,-871.58,548.34,-0.19,1.32,-0.51,-200.81
1480,782.61,766.70,754.48,753.12,764.23,-24.90,-873.05,545.41,2.31,1.25,0.71,-202.90
1512,782.55,766.69,754.55,753.15,764.23,-30.27,-871.09,530.76,2.03,2.50,-0.98,-201.41
1543,782.47,766.71,754.54,753.19,764.23,-32.71,-881.84,539.06,-1.59,1.32,-2.08,-202.15
1575,782.45,766.69,754.56,753.21,764.23,-34.18,-866.21,527.83,-1.06,0.00,1.58,-201.73
1606,782.34,766.69,754.52,753.09,764.16,-16.60,-864.26,535.16,-1.38,1.24,0.40,-200.52
1638,782.27,766.76,754.58,753.15,764.19,-26.86,-875.49,551.76,0.86,0.81,-0.60,-200.23
1669,782.31,766.67,754.63,753.15,764.19,-27.34,-878.42,535.64,0.55,1.36,-0.89,-198.41
1700,782.25,766.75,754.60,753.17,764.19,-26.37,-877.93,533.20,-0.59,0.73,-0.40,-200.00
1734,782.34,766.77,754.57,753.15,764.21,-21.00,-879.39,533.69,0.54,0.02,-0.27,-200.92
1766,782.24,766.80,754.60,753.16,764.20,-47.36,-875.98,547.36,-0.23,1.90,-1.47,-200.21
1797,782.32,766.80,754.53,753.09,764.18,-33.69,-883.30,536.13,0.10,-0.23,-0.69,-201.07
1829,782.31,766.86,754.60,753.12,764.22,-29.79,-871.58,547.36,-0.87,-0.31,2.06,-200.40
1861,782.29,766.85,754.55,753.15,764.21,-28.81,-866.70,535.64,-2.07,1.05,-2.38,-201.77
1893,782.31,766.81,754.61,753.08,764.20,-39.06,-867.19,530.76,0.68,-0.20,0.14,-198.95
1924,782.34,766.84,754.65,753.12,764.24,-37.11,-872.07,531.25,-0.37,-0.76,-0.45,-198.88
1956,782.39,766.81,754.58,753.15,764.23,-34.18,-864.26,541.02,-0.85,0.85,-2.16,-201.14
1988,782.38,766.85,754.61,753.11,764.24,-35.16,-871.09,535.64,-0.40,0.69,-1.38,-200.16
2020,782.32,766.94,754.63,753.15,764.26,-25.88,-869.14,537.60,0.63,0.50,1.99,-200.62
2051,782.29,766.97,754.59,753.11,764.24,-29.79,-866.21,532.23,-1.82,1.14,-0.36,-201.06
2083,782.24,766.92,754.62,753.12,764.23,-33.69,-872.07,530.27,-1.04,0.15,-1.24,-200.08
2115,782.22,766.88,754.51,753.20,764.20,-32.71,-879.88,544.92,-0.76,0.44,0.63,-203.49
2147,782.19,766.96,754.59,753.26,764.25,-32.71,-882.32,552.25,0.18,-0.56,-1.11,-203.10
2178,782.23,766.95,754.55,753.20,764.23,-33.20,-881.84,525.39,1.21,-0.52,-0.79,-203.23
2210,782.21,767.07,754.61,753.11,764.25,-25.88,-863.77,528.81,-1.05,-0.56,-1.76,-201.23
2242,782.23,767.00,754.64,753.11,764.24,-29.79,-866.21,541.02,-0.73,0.83,-0.20,-199.89
2274,782.23,767.05,754.61,753.16,764.26,-41.99,-874.51,524.41,-1.31,1.85,-0.71,-201.96
2305,782.23,767.06,754.68,753.18,764.29,-46.88,-872.07,529.30,-0.84,0.60,-1.14,-200.60
2337,782.09,767.11,754.59,753.19,764.25,-28.32,-874.51,535.16,0.63,-0.68,-2.57,-203.02
2369,782.08,767.26,754.64,753.28,764.31,-38.09,-865.72,524.90,1.61,-0.85,0.25,-204.02
2400,782.00,767.25,754.61,753.24,764.28,-34.18,-878.42,536.13,0.08,0.95,0.03,-203.73
2432,781.91,767.25,754.63,753.30,764.27,-33.69,-868.65,532.23,0.58,0.86,-1.60,-203.95
2464,781.91,767.33,754.58,753.26,764.27,-42.97,-875.00,540.04,-0.11,-1.95,-1.02,-205.13
2496,781.84,767.37,754.66,753.28,764.29,-38.57,-867.68,532.23,-1.00,-0.92,-1.88,-203.77
2527,781.76,767.37,754.64,753.22,764.25,-30.76,-867.68,531.25,-1.07,0.34,3.53,-203.12
2559,781.74,767.40,754.68,753.24,764.26,-30.76,-873.54,537.60,-1.92,0.50,-1.21,-202.47
2591,781.64,767.34,754.65,753.14,764.19,-28.81,-874.02,530.76,0.42,1.31,-1.88,-200.83
2624,781.71,767.40,754.68,753.21,764.25,-26.86,-862.30,534.18,0.58,0.47,-0.55,-202.00
2656,781.63,767.45,754.65,753.23,764.24,-32.71,-862.30,539.55,-1.90,2.46,-1.28,-203.14
2688,781.51,767.49,754.66,753.27,764.23,-45.41,-868.16,542.97,-0.05,1.79,-1.37,-203.24
2720,781.45,767.55,754.60,753.25,764.21,-22.46,-871.09,537.60,-2.11,0.81,-0.69,-204.91
2751,781.38,767.71,754.63,753.30,764.25,-32.71,-870.12,539.55,1.50,1.53,-3.08,-205.92
2783,781.22,767.68,754.73,753.32,764.23,-25.39,-875.00,537.60,-0.87,2.47,2.12,-202.90
2814,781.07,767.73,754.69,753.41,764.23,-38.09,-868.16,540.04,-1.17,-1.05,-1.28,-204.96
2845,780.91,767.87,754.76,753.44,764.24,-32.71,-869.14,543.46,-1.14,-1.26,-0.01,-204.37
2877,780.81,767.91,754.71,753.49,764.23,-30.27,-860.84,530.27,0.41,0.51,-1.40,-206.36
2908,780.67,768.04,754.72,753.44,764.22,-37.60,-869.63,535.64,-0.31,2.55,-3.01,-205.80
2939,780.54,768.01,754.73,753.51,764.20,-22.46,-865.72,539.06,-0.11,2.27,0.58,-206.02
2970,780.49,768.14,754.77,753.41,764.20,-29.79,-873.05,548.83,-0.11,2.19,-1.40,-204.35
3002,780.42,768.12,754.71,753.36,764.15,-30.27,-863.77,538.57,-0.35,0.92,-0.75,-204.61
3033,780.36,768.18,754.76,753.37,764.17,-33.20,-866.70,534.18,-1.23,-0.93,0.19,-203.84
3065,780.23,768.26,754.74,753.38,764.15,-25.39,-878.42,542.48,0.49,-1.13,-2.15,-204.83
3096,780.14,768.40,754.76,753.49,764.20,-38.09,-880.86,534.18,-2.53,-0.30,0.59,-206.67
3128,779.93,768.44,754.83,753.45,764.17,-43.46,-869.14,528.32,-0.54,0.17,-1.60,-204.06
3159,779.77,768.61,754.90,753.44,764.18,-26.86,-868.16,540.04,-0.49,1.92,1.68,-202.75
3191,779.62,768.74,754.82,753.43,764.15,-30.27,-865.23,536.62,0.37,0.95,-1.05,-205.21
3222,779.44,768.83,754.84,753.44,764.14,-26.37,-872.07,534.67,-0.66,1.57,-2.82,-205.16
3254,779.37,768.84,754.83,753.37,764.11,-28.81,-876.46,535.16,-0.57,-0.67,-3.02,-204.03
3286,779.40,768.85,754.81,753.33,764.10,-28.81,-862.79,549.80,-0.44,-0.43,-1.56,-204.10
3318,779.38,768.88,754.84,753.32,764.11,-21.97,-871.09,540.53,-0.60,0.82,0.72,-203.34
3349,779.32,768.89,754.88,753.25,764.08,-26.86,-868.16,535.64,-2.44,1.56,0.41,-201.26
3381,779.24,768.98,754.93,753.25,764.10,-32.71,-856.93,532.23,-0.72,2.04,-1.11,-200.53
3413,779.27,768.91,754.90,753.14,764.05,-27.34,-881.35,540.53,-1.49,-1.25,-2.88,-199.24
3445,779.40,768.89,754.82,753.14,764.06,-22.46,-867.68,521.48,-0.71,0.02,-0.38,-201.51
3476,779.42,768.95,754.88,753.11,764.09,-18.55,-863.77,541.50,-0.60,0.88,0.72,-200.14
3510,779.53,768.91,754.87,753.15,764.12,-23.93,-877.93,535.16,-0.73,1.47,-1.47,-201.08
3541,779.54,768.89,754.84,753.11,764.09,-42.48,-867.68,537.60,-1.98,-0.37,0.37,-201.02
3573,779.50,768.86,754.81,753.13,764.08,-19.04,-863.28,534.18,-1.04,-2.10,2.51,-201.54
3605,779.51,768.97,754.87,753.20,764.14,-23.93,-879.39,544.43,0.32,0.74,-0.30,-201.97
3637,779.53,768.92,754.87,753.14,764.11,-23.44,-861.82,530.27,-0.05,0.16,-0.40,-200.91
3668,779.51,768.91,754.84,753.09,764.09,-31.74,-875.00,528.32,1.06,-0.89,0.83,-200.77
3700,779.48,769.04,754.82,753.15,764.12,-30.76,-867.68,534.18,-0.82,1.88,-0.81,-203.08
3732,779.38,769.08,754.94,753.23,764.16,-37.60,-867.68,535.64,-1.78,-0.21,0.00,-201.20
3764,779.21,769.23,754.99,753.26,764.17,-41.50,-878.91,532.71,0.21,-0.98,0.64,-201.06
3795,779.06,769.30,754.90,753.31,764.14,-31.25,-872.07,535.16,-2.63,-0.27,-1.96,-203.88
3827,778.94,769.40,754.98,753.30,764.16,-21.97,-857.91,531.25,-1.31,0.82,-0.40,-202.53
3859,778.91,769.31,754.91,753.30,764.11,-28.81,-876.46,536.62,-1.35,1.14,0.37,-203.03
3891,778.85,769.36,754.94,753.26,764.10,-25.39,-877.44,542.48,-0.26,-1.89,-0.21,-202.08
3922,778.88,769.40,754.92,753.21,764.10,-25.39,-873.05,532.71,-1.31,0.78,-1.50,-202.24
3954,778.90,769.28,754.90,753.13,764.05,-35.16,-872.07,543.95,-0.35,1.27,-0.64,-200.86
3986,778.98,769.35,754.88,753.07,764.07,-25.39,-865.72,538.09,0.05,1.78,0.93,-201.21
4018,779.02,769.28,754.91,753.06,764.07,-25.39,-865.72,531.74,-1.90,3.94,-1.83,-199.84
4049,779.10,769.23,754.89,752.98,764.05,-31.25,-863.28,528.81,-0.60,-0.89,0.59,-199.02
4081,779.21,769.22,754.86,752.94,764.06,-32.23,-879.88,530.76,-0.99,-0.81,1.37,-199.38
4113,779.25,769.14,754.79,752.93,764.03,-35.16,-872.07,551.27,1.02,3.25,0.50,-200.52
4145,779.43,768.99,754.90,752.89,764.05,-37.11,-863.28,526.37,-2.02,-0.27,0.22,-196.57
4176,779.63,769.05,754.87,752.84,764.10,-37.11,-883.30,536.62,-0.50,-3.16,-0.79,-197.74
4208,779.78,768.88,754.83,752.83,764.08,-28.81,-869.14,537.60,-0.02,1.15,0.26,-197.87
4240,779.86,768.96,754.80,752.76,764.09,-24.90,-877.44,538.57,0.06,-0.29,2.99,-198.59
4272,779.97,768.81,754.81,752.69,764.07,-18.55,-881.84,535.16,1.32,2.61,0.49,-196.36
4335,780.15,768.73,754.75,752.72,764.09,-17.09,-881.35,541.02,0.56,-0.05,-1.81,-198.15
4383,780.37,768.52,754.71,752.76,764.09,-26.37,-864.26,540.53,-1.42,0.18,-1.69,-198.84
4431,780.36,768.51,754.87,752.80,764.14,-35.64,-863.77,538.57,-1.50,1.89,0.61,-195.30
4485,780.62,768.29,754.87,752.83,764.15,-20.02,-868.16,527.34,-2.34,-2.62,-2.02,-194.89
4533,780.86,768.26,754.82,752.70,764.16,-46.39,-863.28,532.71,0.94,1.47,-1.31,-195.01
4565,781.00,768.15,754.72,752.70,764.14,-28.81,-881.84,536.62,-0.05,2.31,0.95,-197.05
4596,781.15,768.10,754.74,752.68,764.17,-30.76,-861.33,526.37,-0.57,-3.14,-2.11,-196.33
4628,781.28,767.95,754.69,752.63,764.14,-24.90,-868.65,539.06,-0.54,0.40,-3.66,-196.05
4659,781.43,767.91,754.73,752.67,764.19,-26.86,-874.51,546.87,-0.76,-2.08,0.93,-195.93
4690,781.61,767.75,754.70,752.63,764.17,-32.71,-869.63,534.18,-0.05,1.79,0.09,-195.34
4722,781.76,767.72,754.71,752.68,764.22,-37.60,-872.56,538.09,-1.00,-0.43,-1.86,-196.05
4753,781.81,767.62,754.67,752.67,764.19,-20.02,-876.46,538.57,-2.15,0.60,2.10,-196.46
4785,782.01,767.57,754.70,752.67,764.24,-26.86,-854.98,540.53,0.03,-1.81,0.05,-195.80
4817,782.01,767.50,754.69,752.76,764.24,-28.81,-867.68,542.97,-1.79,-0.03,-1.35,-197.05
4848,782.21,767.53,754.71,752.82,764.32,-40.04,-871.58,546.39,0.96,0.77,-1.71,-198.10
4880,782.17,767.45,754.67,752.80,764.27,-36.62,-883.79,536.62,0.18,2.39,-0.47,-198.01
4912,782.21,767.43,754.72,752.83,764.30,-36.62,-879.88,541.50,-0.82,0.67,-0.98,-197.26
4944,782.32,767.33,754.70,752.76,764.28,-44.43,-879.39,543.46,-0.69,0.27,-1.86,-196.30
4975,782.42,767.35,754.67,752.81,764.31,-24.90,-873.05,537.11,0.02,1.50,-0.03,-198.15
5007,782.55,767.28,754.68,752.73,764.31,-41.50,-869.14,552.73,-0.94,1.88,-0.76,-196.92
5039,782.67,767.25,754.71,752.75,764.35,-29.30,-874.02,518.55,-0.29,0.18,0.24,-196.44
5071,782.83,767.13,754.70,752.66,764.33,-32.23,-856.45,537.60,-1.12,-0.96,-1.35,-194.89
5102,782.97,767.08,754.67,752.71,764.36,-41.99,-876.95,528.32,1.08,2.79,-2.04,-196.49
5134,783.16,766.95,754.60,752.65,764.34,-30.76,-868.65,540.04,-1.06,-3.46,-1.08,-197.13
5166,783.35,766.82,754.57,752.69,764.36,-27.34,-874.02,525.88,-0.19,1.05,-0.89,-198.02
5198,783.43,766.80,754.62,752.77,764.40,-43.46,-867.19,517.09,-1.00,1.68,-3.08,-198.09
5229,783.51,766.84,754.56,752.88,764.45,-25.39,-876.46,547.85,0.53,-0.27,-1.42,-201.78
5263,783.50,766.81,754.56,752.92,764.45,-38.57,-878.42,535.16,0.35,3.44,0.11,-202.09
5295,783.52,766.81,754.57,753.04,764.49,-26.86,-872.07,537.60,1.34,-0.95,-0.32,-203.70
5327,783.62,766.75,754.53,752.98,764.47,-31.74,-869.63,544.92,-1.92,-1.19,-0.88,-203.57
5359,783.75,766.72,754.59,753.00,764.52,-32.71,-857.42,545.90,0.11,0.04,-1.89,-202.59
5391,783.74,766.79,754.63,753.01,764.54,-26.37,-871.09,540.53,-0.16,1.47,0.71,-202.27
5422,783.80,766.68,754.60,752.84,764.48,-37.60,-870.12,533.69,0.22,1.29,-0.79,-199.90
5454,783.91,766.64,754.51,752.88,764.49,-16.11,-883.30,543.95,-1.63,-1.11,-0.69,-202.75
5486,784.00,766.59,754.63,752.88,764.52,-35.16,-856.93,541.02,0.74,-1.29,-1.62,-199.59
5518,783.92,766.53,754.56,753.02,764.51,-31.74,-866.70,540.04,0.50,3.25,-0.86,-202.82
5549,783.87,766.66,754.57,753.07,764.54,-21.48,-862.79,525.39,-1.74,2.21,0.17,-204.12
5581,783.88,766.66,754.57,753.15,764.57,-35.64,-861.33,540.53,-1.84,-2.60,0.06,-205.19
5613,783.89,766.73,754.62,753.15,764.60,-33.69,-863.28,531.25,1.13,0.72,-1.64,-204.61
5645,783.93,766.76,754.59,753.21,764.62,-33.69,-878.91,538.57,-0.21,1.70,-2.33,-206.56
5676,783.86,766.86,754.67,753.25,764.66,-25.88,-872.07,528.81,0.41,-1.13,-1.12,-205.92
5708,783.78,766.87,754.57,753.19,764.60,-29.79,-865.23,541.99,-0.02,0.01,-1.10,-207.22
5740,783.78,766.97,754.59,753.26,764.65,-27.34,-860.84,550.78,1.31,1.83,-2.28,-208.47
5772,783.66,766.92,754.59,753.36,764.63,-34.67,-868.65,527.83,0.91,2.04,-0.91,-209.05
5803,783.73,766.97,754.55,753.28,764.63,-33.69,-841.80,582.52,0.81,2.94,-1.61,-209.60
5835,783.68,767.06,754.60,753.35,764.67,-44.92,-890.62,523.93,-2.75,2.12,-2.47,-210.06
5866,783.65,767.05,754.58,753.31,764.65,-32.23,-871.09,518.07,0.59,0.78,0.00,-209.83
5897,783.55,767.13,754.67,753.23,764.64,-33.69,-877.93,543.95,-2.14,1.53,-0.75,-206.64
5929,783.46,767.19,754.61,753.18,764.61,-32.23,-870.12,537.11,0.21,-2.07,1.50,-207.53
5960,783.31,767.24,754.63,753.32,764.62,-19.53,-878.42,544.92,-0.68,0.14,0.85,-208.94
5991,783.31,767.28,754.69,753.29,764.64,-18.07,-866.70,543.46,-0.18,-0.89,-1.77,-207.53
6022,783.21,767.30,754.70,753.28,764.62,-44.92,-884.28,528.81,-0.43,0.97,0.33,-206.86
6054,783.33,767.25,754.65,753.24,764.62,-25.39,-868.65,532.71,0.45,2.76,-0.40,-207.48
6088,783.32,767.34,754.63,753.24,764.63,-23.93,-875.98,547.36,1.85,-0.33,0.63,-208.56
6120,783.31,767.36,754.64,753.17,764.62,-31.74,-863.77,534.67,1.25,0.47,-0.53,-207.45
6151,783.28,767.41,754.72,753.21,764.66,-23.93,-864.26,536.13,1.54,2.15,-0.62,-206.41
6182,783.19,767.46,754.69,753.13,764.62,-29.30,-868.65,544.43,-1.24,0.20,-0.95,-205.96
6214,783.26,767.54,754.67,753.10,764.64,-26.86,-872.56,541.50,0.37,1.80,-1.14,-206.94
6245,783.32,767.55,754.65,753.09,764.65,-35.64,-875.00,532.23,-0.40,-0.70,-0.11,-207.73
6277,783.12,767.50,754.75,753.18,764.64,-40.53,-867.68,531.74,0.02,-0.34,-0.34,-205.27
6309,783.08,767.65,754.71,753.19,764.66,-24.41,-869.14,525.39,-0.15,-0.06,2.47,-207.49
6341,783.05,767.71,754.68,753.20,764.66,-35.64,-863.28,539.55,-1.86,-1.79,-0.44,-208.81
6372,783.02,767.64,754.68,753.17,764.62,-27.34,-867.19,541.99,0.51,0.18,0.95,-207.60
6404,782.95,767.73,754.62,753.20,764.62,-28.32,-877.93,534.67,0.52,-0.84,-2.10,-210.28
6436,782.82,767.67,754.74,753.19,764.60,-33.69,-874.51,538.57,0.60,-0.41,-2.38,-205.96
6468,782.71,767.82,754.70,753.14,764.59,-35.64,-869.14,547.85,1.73,-0.08,-0.07,-207.33
6499,782.68,767.79,754.70,753.28,764.61,-29.30,-865.23,538.57,-0.73,0.27,0.21,-208.93
6531,782.56,767.88,754.68,753.25,764.59,-31.74,-868.16,535.64,-0.47,0.73,-1.37,-209.17
6563,782.40,767.97,754.69,753.35,764.60,-26.86,-864.26,541.99,-1.15,0.96,-0.27,-210.72
6595,782.27,768.00,754.74,753.34,764.59,-41.50,-875.49,539.06,-0.68,-0.40,-0.82,-209.09
6626,782.14,768.02,754.78,753.29,764.56,-31.74,-859.37,534.18,0.42,-2.23,-0.81,-207.12
6658,782.19,768.02,754.70,753.39,764.57,-30.76,-870.61,545.90,0.18,-1.22,-1.21,-210.67
6690,781.96,768.07,754.78,753.32,764.53,-27.34,-865.23,538.57,-3.15,-0.52,-0.06,-207.22
6722,781.86,768.11,754.81,753.30,764.52,-31.25,-857.42,532.23,0.41,0.28,-0.82,-206.24
6753,781.87,768.13,754.72,753.33,764.51,-44.43,-869.14,535.64,-0.89,0.25,-0.78,-209.14
6785,781.80,768.18,754.85,753.33,764.54,-27.34,-871.09,521.00,0.27,0.37,0.50,-205.84
6817,781.76,768.29,754.87,753.35,764.57,-28.32,-875.98,535.64,2.14,-0.14,-1.89,-206.66
6848,781.80,768.28,754.80,753.28,764.54,-25.88,-884.28,537.11,-0.34,-2.89,-0.66,-207.20
6880,781.79,768.27,754.83,753.30,764.55,-33.20,-873.54,522.95,-0.83,-2.67,0.38,-206.71
6912,781.79,768.25,754.82,753.20,764.52,7.32,-862.79,526.37,-1.53,-3.85,1.24,-205.46
6944,781.95,768.24,754.77,753.14,764.52,-16.11,-878.42,544.92,0.75,0.31,-1.08,-206.11
6977,782.05,768.12,754.79,753.13,764.52,-30.76,-866.70,530.27,-0.65,-2.69,-0.88,-204.82
7009,782.06,768.18,754.77,753.09,764.53,-4.88,-828.61,518.55,0.72,-0.55,-0.56,-205.18
7040,782.11,768.19,754.73,753.06,764.52,-27.34,-878.42,539.55,-1.76,0.39,-1.02,-206.04
7072,782.14,768.16,754.76,753.05,764.53,-38.57,-881.84,547.36,-0.68,0.24,0.47,-205.12
7104,782.16,768.18,754.76,752.99,764.52,-11.72,-871.58,529.79,4.31,0.08,-0.75,-204.48
7136,782.16,768.16,754.75,753.09,764.54,-24.90,-888.18,513.67,-1.63,-1.15,-0.21,-205.96
7167,782.20,768.14,754.79,753.02,764.54,-27.83,-863.28,545.90,-0.05,3.17,-2.43,-203.85
7199,782.20,768.09,754.80,753.01,764.52,-42.97,-871.58,543.95,0.23,-0.49,-0.67,-203.18
7231,782.26,768.22,754.79,752.95,764.56,-17.58,-876.95,538.57,0.52,1.12,-2.02,-203.65
7263,782.32,768.07,754.79,753.00,764.55,-28.81,-871.09,530.76,0.89,0.69,0.53,-203.45
7294,782.32,768.08,754.77,752.89,764.51,-36.62,-852.05,533.69,-0.56,1.69,2.68,-202.39
7326,782.40,768.06,754.72,752.98,764.54,-9.77,-867.19,533.20,0.96,-1.25,-0.19,-205.01
7357,782.45,767.97,754.79,752.95,764.54,-16.11,-873.05,545.90,0.16,0.80,-2.07,-202.62
7389,782.47,768.09,754.75,752.98,764.57,-52.73,-892.09,542.48,0.42,0.95,-1.79,-205.01
7420,782.43,767.99,754.78,752.91,764.53,-37.11,-875.00,535.16,-0.77,0.35,-2.44,-202.21
7451,782.47,767.97,754.75,752.93,764.53,-29.30,-871.09,541.02,-0.02,-1.67,-1.32,-203.18
7482,782.38,767.92,754.77,752.97,764.51,-39.06,-860.84,543.95,-1.27,2.20,-3.08,-202.61
7513,782.33,767.99,754.79,752.94,764.51,-18.55,-859.86,548.83,-0.26,-0.81,-0.77,-202.11
7545,782.32,767.96,754.76,752.95,764.50,-63.96,-794.92,579.59,0.86,-3.05,-3.21,-202.81
7577,782.30,767.99,754.68,752.99,764.49,-140.62,-770.02,617.68,2.33,0.98,-0.31,-205.52
7608,782.33,767.94,754.64,752.99,764.47,-23.93,-910.64,523.93,-5.01,-1.97,0.87,-206.22
7639,782.09,767.96,754.67,753.00,764.43,-54.69,-832.03,538.57,31.31,-5.15,-0.52,-204.73
7671,781.81,767.98,754.66,753.10,764.39,-35.64,-877.44,542.48,0.80,-0.69,-0.06,-205.69
7702,781.65,768.03,754.71,753.19,764.40,-13.18,-862.30,542.97,2.60,-1.18,-3.26,-205.77
7734,781.55,768.10,754.74,753.17,764.39,-48.83,-873.54,534.67,1.85,0.46,-0.03,-204.98
7765,781.64,768.02,754.75,753.21,764.41,-37.11,-854.49,550.78,-0.10,-5.01,-1.40,-204.79
7797,781.61,768.02,754.77,753.12,764.38,-28.81,-864.26,543.46,1.25,-0.02,-0.85,-202.83
7829,781.60,768.01,754.80,753.09,764.37,-42.48,-877.44,536.13,-0.73,1.63,1.01,-201.81
7862,781.55,768.01,754.71,753.03,764.33,-40.53,-869.63,540.04,-1.65,-0.70,-0.11,-202.82
7894,781.45,767.94,754.78,753.02,764.30,-36.13,-870.61,545.41,-0.44,-1.08,0.39,-200.21
7926,781.43,768.00,754.75,752.99,764.29,-35.16,-866.21,540.53,-0.93,1.12,-0.73,-200.68
7958,781.47,768.00,754.74,752.99,764.30,-32.23,-864.26,541.50,-0.66,4.26,0.05,-201.24
7989,781.37,767.91,754.73,753.02,764.26,-35.16,-870.12,551.27,0.79,0.21,1.82,-200.85
8021,781.37,768.03,754.67,753.12,764.30,-24.90,-864.26,543.95,-0.10,0.09,-1.82,-204.79
8053,781.31,768.02,754.81,753.05,764.30,-28.81,-872.07,535.16,0.76,2.27,-3.06,-200.01
8085,781.31,767.97,754.75,753.05,764.27,-28.32,-872.56,537.60,-0.55,0.75,-2.12,-201.06
8116,781.30,768.01,754.72,753.07,764.28,-27.83,-876.95,541.99,-0.21,2.84,-0.60,-202.44
8148,781.36,767.94,754.75,753.12,764.29,-35.16,-871.58,537.60,-0.60,0.49,-0.56,-202.00
8180,781.36,768.03,754.76,753.10,764.31,-24.90,-873.54,537.60,-0.02,0.11,-0.07,-202.23
8212,781.40,768.02,754.71,753.04,764.29,-20.51,-874.02,545.90,-0.35,0.50,0.79,-202.71
8243,781.37,767.93,754.73,753.02,764.26,-35.16,-867.68,538.57,-0.18,-0.41,-0.58,-201.10
8275,781.34,768.01,754.74,753.03,764.28,-26.86,-880.86,541.50,-0.33,-0.47,-0.89,-201.50
8307,781.35,768.07,754.72,753.07,764.30,-28.32,-865.23,545.90,-0.78,0.15,-0.33,-202.97
8339,781.30,768.06,754.73,753.05,764.29,-39.06,-862.30,532.23,-1.48,0.13,0.82,-202.20
8370,781.29,768.06,754.71,753.09,764.29,-36.62,-861.33,541.99,-0.59,1.64,-1.21,-203.11
8402,781.24,768.08,754.74,753.05,764.28,-43.95,-862.79,548.34,-0.24,1.54,1.27,-201.92
8434,781.32,768.05,754.77,753.12,764.31,-40.04,-865.23,541.99,-0.08,2.74,0.34,-202.08
8466,781.18,768.18,754.72,753.08,764.29,-42.48,-865.72,537.60,0.61,-0.98,1.57,-203.56
8497,781.24,768.01,754.68,753.05,764.25,-30.27,-872.07,547.36,0.22,-0.56,-3.08,-202.81
8529,781.23,768.04,754.73,753.11,764.28,-43.46,-866.70,544.92,0.36,-0.21,0.77,-202.69
8561,781.23,768.01,754.70,753.06,764.25,-21.00,-880.37,530.27,-0.58,3.18,0.34,-202.37
8593,781.22,768.05,754.67,753.10,764.26,-29.79,-864.26,548.34,-1.66,0.72,-1.98,-204.01
8624,781.26,768.07,754.79,753.12,764.31,-28.81,-873.54,536.13,1.17,2.14,1.66,-201.65
8656,781.23,768.05,754.72,753.02,764.25,-39.55,-864.75,534.67,0.32,2.22,-1.35,-201.52
8688,781.26,767.97,754.78,753.04,764.26,-34.18,-872.07,543.95,0.28,0.52,0.83,-199.93
8719,781.28,768.01,754.76,752.99,764.26,-32.23,-865.72,542.48,0.85,-2.31,0.56,-200.18
8753,781.44,768.04,754.78,753.04,764.32,-25.39,-867.68,534.18,0.77,-1.02,-1.75,-201.13
8785,781.66,768.04,754.76,753.09,764.39,-25.88,-870.12,543.95,0.55,1.03,0.14,-203.18
8816,782.11,768.14,754.76,753.15,764.54,-43.95,-886.23,524.90,-1.85,-3.21,-1.93,-206.39
8848,782.56,768.16,754.79,753.23,764.68,-27.34,-849.61,564.45,-1.92,-2.90,-1.96,-208.30
8879,783.43,768.19,754.71,753.22,764.89,-29.30,-867.19,551.27,1.94,-0.76,0.08,-213.63
8910,784.22,768.35,754.77,753.25,765.15,-47.36,-873.05,550.78,0.53,1.59,0.53,-216.36
8941,784.68,768.36,754.73,753.26,765.26,-26.37,-874.02,523.93,2.86,-0.50,1.95,-219.23
8972,785.03,768.46,754.80,753.28,765.39,-24.90,-859.37,545.41,1.81,0.53,-2.66,-219.95
9004,785.07,768.32,754.83,753.15,765.34,-27.83,-858.89,546.87,-0.90,-2.03,-0.54,-216.05
9035,785.15,768.20,754.75,753.05,765.29,-44.92,-874.51,532.23,-0.99,-0.25,0.63,-216.03
9067,785.23,768.16,754.74,752.89,765.26,-32.23,-865.23,519.53,-1.51,-1.89,-1.54,-213.98
9098,785.50,768.05,754.70,752.76,765.25,-33.20,-872.07,527.83,-2.62,0.77,-0.81,-212.82
9130,785.75,767.84,754.70,752.76,765.26,-45.41,-862.30,577.64,-0.66,1.41,-0.21,-212.27
9161,785.72,767.62,754.65,752.50,765.12,-26.37,-860.84,555.18,0.12,0.96,-1.26,-207.76
9193,786.08,767.35,754.57,752.45,765.11,-21.00,-860.84,543.46,0.58,1.32,-0.28,-208.03
9224,786.30,767.04,754.63,752.37,765.08,-41.50,-862.30,536.13,1.39,-0.80,0.96,-203.68
9256,786.43,766.71,754.64,752.26,765.01,-30.27,-877.44,546.39,-0.71,-1.18,-0.25,-199.53
9288,786.39,766.39,754.60,752.09,764.87,-38.09,-863.77,552.25,0.85,0.05,-0.02,-195.36
9320,785.80,765.98,754.54,752.05,764.59,-24.90,-864.26,556.64,-0.08,-0.84,0.83,-191.10
9351,784.54,765.48,754.52,751.77,764.08,-36.62,-867.19,546.87,-1.42,-1.75,0.19,-179.05
9383,782.79,765.00,754.46,751.72,763.49,-31.74,-871.09,546.39,-0.57,-0.76,3.47,-170.03
9415,780.79,764.53,754.40,751.60,762.83,-30.27,-866.21,538.57,-4.58,-2.01,0.71,-159.10
9447,778.60,764.25,754.47,751.80,762.28,-44.43,-853.52,566.41,-3.72,-1.01,-0.60,-150.45
9478,776.94,764.21,754.38,752.11,761.91,-20.51,-866.70,511.72,2.83,-1.17,-0.46,-151.08
9510,775.83,764.04,754.33,752.33,761.63,-31.25,-865.23,535.16,-4.92,4.39,-1.52,-150.55
9542,775.18,763.91,754.36,752.64,761.52,-35.64,-893.55,520.51,0.79,-3.16,-0.52,-151.07
9574,774.13,763.72,754.44,753.04,761.33,-47.85,-870.12,543.95,0.51,-4.61,-1.56,-149.88
9605,772.18,763.28,754.42,752.94,760.71,-39.55,-859.86,542.97,-2.45,-3.21,1.97,-138.59
9639,768.61,762.68,754.40,752.83,759.63,-27.83,-876.46,549.32,-13.55,1.56,-1.47,-120.60
9671,765.08,762.07,754.38,752.83,758.59,-43.95,-902.83,506.35,-8.22,1.17,-1.27,-104.07
9702,762.13,761.47,754.37,752.85,757.71,-29.79,-881.35,539.06,-6.07,-5.97,-1.63,-89.73
9734,759.20,760.99,754.33,752.35,756.72,-31.25,-848.63,550.29,-15.22,2.53,-1.58,-69.31
9766,755.49,760.14,754.23,751.29,755.29,-79.59,-930.66,488.77,-19.95,4.92,-5.49,-36.58
9797,751.24,758.94,753.87,749.13,753.30,-21.97,-969.73,519.04,-9.57,1.92,-10.27,10.32
9829,748.05,757.51,753.43,747.32,751.58,124.02,-891.11,420.90,-40.91,-7.02,-6.66,48.51
9861,746.98,756.32,753.07,747.33,750.92,145.02,-1501.46,418.95,-48.94,23.37,-28.89,52.71
9893,746.83,756.11,753.08,748.11,751.03,215.33,-1010.25,534.18,11.88,77.49,-15.42,43.52
9924,746.53,755.63,753.05,748.76,750.99,-42.97,-1103.03,575.68,17.40,107.21,-55.99,38.15
9956,746.40,755.34,753.03,749.36,751.03,-242.68,-1032.71,528.81,13.79,120.69,-68.11,31.57
9988,746.40,755.10,753.07,749.82,751.10,-510.74,-985.35,487.30,8.04,98.16,-77.86,27.79
10020,746.39,754.90,753.05,750.24,751.15,-632.81,-783.69,428.22,-1.67,66.73,-60.56,22.58
10051,746.38,754.74,752.95,750.64,751.18,-675.78,-710.94,456.54,-18.69,39.39,-34.69,15.68
10083,746.34,754.57,753.02,750.90,751.21,-637.21,-652.34,472.17,-32.59,24.19,-8.07,14.96
10115,746.34,754.45,752.97,751.26,751.26,-547.36,-692.87,540.04,-34.72,21.15,16.08,9.24
10147,746.29,754.40,753.00,751.43,751.28,-409.18,-707.52,542.48,-19.24,38.02,31.53,8.19
10178,746.20,754.28,753.04,751.72,751.31,-337.89,-755.37,493.16,-8.69,52.23,46.85,6.29
10210,746.17,754.20,753.06,751.86,751.32,-286.62,-759.28,456.05,-3.13,56.15,59.24,5.41
10242,746.03,754.00,753.00,752.06,751.27,-264.65,-779.30,417.97,-6.63,42.62,59.18,3.31
10274,745.87,753.82,752.92,752.22,751.21,-177.73,-795.90,361.33,-8.73,15.38,50.47,0.67
10305,745.85,753.66,752.92,752.26,751.17,-54.20,-797.36,340.82,-24.90,-8.76,29.94,1.69
10336,745.77,753.62,752.94,752.41,751.19,62.01,-954.59,396.48,-33.32,-13.71,37.43,0.48
10367,745.73,753.52,752.99,752.57,751.20,168.46,-944.34,413.09,-21.87,-3.81,41.82,0.20
10398,745.56,753.38,753.01,752.60,751.14,199.22,-964.36,410.16,-13.11,-2.57,25.38,2.11
10430,745.54,753.36,752.90,752.62,751.11,240.23,-954.10,329.59,-7.98,2.71,18.95,-0.75
10461,745.54,753.36,752.98,752.75,751.16,281.25,-983.89,277.83,-4.79,12.18,22.94,-0.87
10493,745.43,753.31,752.96,752.82,751.13,295.90,-909.18,271.48,-11.63,20.87,-4.02,-1.43
10526,746.44,753.35,752.92,752.62,751.33,1212.40,-2000.00,1893.07,-205.18,15.24,-96.05,-3.25
10557,750.88,753.72,752.89,752.67,752.54,-1293.46,-938.48,-94.73,230.08,-43.66,-17.03,-22.99
10589,760.78,754.49,753.04,752.77,755.27,369.14,-1661.13,755.37,13.68,-89.40,-136.40,-60.97
10620,768.17,755.18,753.07,752.73,757.29,1.46,-1093.26,479.00,52.76,-0.49,-33.05,-90.33
10652,770.35,756.42,753.12,752.97,758.21,76.66,-1087.40,602.05,45.73,-10.32,-30.08,-110.31
10683,779.23,758.63,753.37,754.14,761.34,-77.15,-881.35,516.11,34.43,-3.95,-10.67,-169.29
10715,793.10,761.50,753.71,756.52,766.21,-32.71,-851.56,542.48,27.73,-11.66,-9.15,-266.44
10746,806.57,764.35,754.22,759.36,771.13,-18.07,-835.45,587.40,16.98,-9.01,-5.17,-364.66
10778,816.23,767.33,754.65,761.62,774.96,0.49,-863.77,578.61,5.92,-4.08,-2.88,-444.13
10810,822.47,770.53,754.93,762.31,777.56,-22.46,-827.64,551.27,-5.44,3.15,-4.03,-494.40
10842,825.31,774.02,755.08,761.79,779.05,-21.00,-883.30,546.87,-13.44,3.03,-5.55,-520.81
10873,825.31,776.92,755.15,760.70,779.52,-43.95,-895.02,506.84,-11.89,7.85,-3.52,-526.39
10905,822.72,779.23,755.17,759.82,779.24,-41.02,-856.93,509.28,-10.99,5.58,-2.14,-522.53
10937,818.42,780.85,755.17,759.24,778.42,-35.16,-903.81,493.65,-8.28,3.22,-3.05,-512.30
10969,813.49,781.86,755.21,759.27,777.46,-35.16,-881.35,509.77,-5.52,4.95,-0.71,-503.04
11000,808.35,782.83,755.33,759.79,776.57,-26.37,-893.55,493.65,-4.53,5.88,-5.09,-497.78
11032,803.85,783.80,755.56,760.70,775.98,-52.25,-919.43,489.75,-2.63,8.28,-4.85,-497.64
11064,800.15,785.41,755.71,761.76,775.76,-30.76,-886.72,512.21,3.20,2.88,-2.05,-509.86
11096,797.65,787.35,755.96,762.61,775.89,-59.08,-928.71,472.66,5.16,3.24,-4.31,-523.23
11127,795.28,789.64,756.28,763.80,776.25,-44.92,-878.91,494.63,0.75,5.32,-2.15,-542.92
11159,791.70,792.63,756.71,765.56,776.65,-24.41,-882.81,517.58,-2.53,2.86,-2.42,-569.71
11191,786.92,796.12,757.23,767.78,777.01,-43.46,-901.86,491.21,-10.69,1.31,-3.78,-601.03
11223,780.94,800.44,757.92,770.06,777.34,-23.44,-910.64,508.79,-13.12,2.14,-4.18,-631.69
11254,774.22,805.23,758.86,772.36,777.67,-40.04,-905.76,489.75,-20.00,5.87,-4.34,-657.42
11286,767.02,810.37,759.87,774.44,777.93,-44.43,-918.46,465.82,-20.79,6.06,-10.06,-679.33
11318,760.62,815.95,760.97,776.36,778.48,-2.93,-911.62,474.12,-25.99,6.95,-13.23,-703.08
11350,754.74,820.78,762.27,777.43,778.81,-35.64,-932.62,437.01,-29.11,7.54,-8.89,-704.97
11381,749.72,824.77,763.80,776.84,778.78,-69.34,-937.99,499.02,-43.19,6.22,-16.94,-672.94
11415,747.32,826.50,765.98,773.41,778.30,-123.54,-1131.84,456.05,-58.69,-37.53,-33.69,-573.66
11447,746.42,824.86,768.20,768.25,776.93,634.28,-2000.00,465.82,-40.46,-65.85,-38.47,-426.48
11478,745.87,820.38,769.81,762.14,774.55,-3.91,-1026.86,499.02,-68.21,-42.24,-64.78,-258.54
11510,745.48,813.38,770.63,755.54,771.26,-19.04,-1039.55,420.90,-66.27,-55.31,-92.99,-83.48
11542,745.25,802.93,770.28,748.29,766.69,-38.09,-1245.61,379.39,-85.02,-70.34,-141.61,99.23
11574,744.91,788.51,767.01,740.56,760.25,-69.82,-1393.55,389.16,-118.95,-78.83,-234.21,248.19
11605,744.69,775.90,761.11,733.37,753.77,206.05,-1479.00,337.89,-172.31,-40.00,-250.14,308.99
11637,744.50,762.79,755.87,727.62,747.69,702.64,-1328.13,-243.65,-250.14,24.66,-250.14,368.83
11669,744.18,755.98,753.06,726.89,745.03,-184.08,-2000.00,203.61,-250.14,145.60,-250.14,365.52
11701,744.04,754.68,753.01,728.22,744.99,-779.30,-2000.00,-147.46,85.33,118.15,-152.11,355.62
11732,744.10,754.27,753.05,729.56,745.25,-443.85,-404.30,97.17,102.69,161.11,61.47,340.05
11763,743.97,753.93,752.96,730.86,745.43,-663.57,-110.35,47.36,68.33,152.89,109.94,321.69
11794,743.98,753.81,752.97,732.10,745.71,-563.96,-130.86,114.75,41.95,113.94,122.29,304.56
11825,744.00,753.73,752.90,733.34,745.99,-523.93,-387.21,213.38,-6.07,82.26,189.69,285.31
11857,743.86,753.70,752.96,734.58,746.27,-394.53,-782.23,322.75,-6.66,52.01,250.13,269.15
11888,743.93,753.87,753.03,735.73,746.64,-119.14,-963.87,451.66,12.24,59.06,250.13,252.28
11920,743.78,753.89,752.97,736.91,746.89,29.30,-1380.37,601.56,4.77,99.89,250.13,233.86
11951,743.74,754.04,753.08,737.91,747.19,111.82,-1588.87,840.33,4.75,118.55,249.31,220.83
11982,743.67,754.21,753.10,738.87,747.46,206.54,-2000.00,903.32,-19.50,108.56,209.36,206.19
12014,743.65,754.05,752.99,739.83,747.63,948.73,-2000.00,994.14,-45.60,105.36,160.65,190.68
12045,743.57,754.01,753.06,740.70,747.83,1084.96,-2000.00,959.47,-30.67,125.91,162.05,180.07
12077,743.68,754.08,753.00,741.84,748.15,1448.73,-1226.07,559.08,42.21,129.25,106.50,160.88
12108,743.60,753.87,752.97,742.69,748.28,1929.69,-543.95,564.94,-39.73,245.46,79.95,149.68
12140,743.58,753.59,753.02,743.47,748.41,1258.79,-899.41,614.26,58.77,220.44,-0.40,141.71
12172,744.42,753.25,752.91,744.10,748.67,1999.94,-2000.00,1999.94,-197.77,59.82,-250.14,129.65
12203,748.44,754.32,752.87,745.22,750.21,-1365.72,-1127.93,-523.44,5.53,-18.10,-198.49,89.70
12235,767.79,755.83,753.09,745.75,755.62,-560.06,-774.41,18.55,-16.37,-128.74,-188.42,8.90
12267,808.34,759.98,753.11,745.69,766.78,617.68,-1107.91,568.36,250.13,-14.98,-162.32,-162.27
12300,824.47,766.11,753.57,747.15,772.82,513.18,-418.46,1305.18,40.47,-33.15,-26.07,-276.64
12332,828.92,771.10,754.15,750.94,776.28,89.36,-858.40,697.75,19.75,-23.37,-8.13,-373.48
12364,834.45,774.41,754.48,753.51,779.21,22.95,-863.77,548.83,23.98,-5.92,-3.73,-448.46
12396,836.95,777.73,754.61,753.73,780.75,-17.09,-872.07,544.43,0.52,12.31,-0.74,-483.81
12427,833.34,781.97,754.73,752.83,780.71,-26.86,-905.27,457.03,-6.97,14.99,4.10,-489.17
12459,825.73,786.80,754.71,752.67,779.97,-55.18,-969.73,384.28,3.96,8.24,-1.03,-499.96
12491,818.40,790.54,754.88,753.24,779.27,-32.23,-940.92,461.43,12.74,6.08,2.96,-508.82
12523,813.49,793.61,754.90,753.60,778.90,-39.55,-916.50,450.20,15.61,9.79,-3.81,-521.38
12554,810.87,795.14,754.98,754.48,778.87,-45.90,-904.79,475.59,20.48,15.21,-6.80,-535.64
12586,808.15,795.96,755.23,756.50,778.96,-44.43,-912.11,458.98,22.82,2.07,-4.92,-556.44
12618,805.00,795.24,755.57,759.92,778.93,-41.99,-896.00,479.49,33.48,-2.73,-7.81,-581.61
12650,801.74,795.02,756.18,763.72,779.17,-21.48,-861.33,524.90,28.13,-6.08,-3.28,-609.36
12681,797.57,794.71,756.66,766.70,778.91,-35.16,-852.05,535.16,13.28,-5.31,-4.68,-624.68
12713,793.33,795.21,757.33,769.24,778.78,-26.37,-870.12,539.06,11.50,-2.00,-4.20,-634.71
12745,789.08,796.33,757.99,771.64,778.76,-20.02,-873.05,551.27,9.62,-2.76,-6.27,-647.89
12776,785.49,798.43,758.63,774.10,779.16,-20.51,-882.81,526.37,7.64,1.05,-3.63,-672.87
12808,781.98,799.80,759.24,776.06,779.27,-15.14,-894.04,540.04,8.95,-1.81,-9.55,-685.35
12840,776.59,800.11,759.85,777.31,778.46,-12.70,-888.67,529.30,-0.07,-0.20,-9.37,-672.57
12872,769.97,800.60,760.60,779.19,777.59,-4.39,-892.58,539.55,10.03,2.91,-10.83,-662.78
12903,762.36,802.26,761.80,781.53,776.99,-8.30,-905.76,520.51,0.15,5.12,-18.24,-654.61
12935,755.09,802.87,762.98,782.32,775.82,-5.37,-897.46,544.43,-3.81,4.35,-23.45,-616.74
12967,748.67,800.42,763.73,778.11,772.73,77.64,-871.09,518.55,-51.70,-11.47,-24.88,-494.43
12999,746.44,791.45,764.04,767.51,767.36,-268.07,-1296.39,911.13,-53.02,-29.49,-53.71,-251.09
13030,745.51,776.08,762.97,750.30,758.72,19.53,-1652.83,738.28,-100.65,-42.64,-134.95,102.10
13062,744.89,765.38,759.03,737.85,751.79,-308.59,-1966.31,299.80,-111.87,-3.45,-231.50,275.15
13094,744.61,760.92,754.86,732.02,748.10,134.77,-1903.81,854.98,-176.44,90.44,-250.14,293.62
13126,744.58,758.11,753.31,731.40,746.85,-240.72,-1857.42,334.96,-199.32,195.26,-214.31,286.88
13157,744.54,756.93,753.16,731.92,746.64,-645.02,-749.51,106.45,70.17,246.61,-81.03,284.94
13190,744.38,755.75,753.04,732.63,746.45,-842.29,-253.42,-122.07,-27.44,217.60,-9.11,281.55
13221,744.35,755.06,753.00,733.48,746.47,-708.01,-287.60,138.67,-54.98,133.55,59.05,273.91
13252,744.30,754.57,753.00,734.35,746.56,-544.92,-558.11,336.43,-96.15,75.71,117.14,264.93
13283,744.26,754.46,753.02,735.43,746.79,-268.07,-794.43,592.77,-73.55,56.34,152.61,250.69
13315,744.15,754.49,753.04,736.34,747.01,-2000.00,-1892.58,1393.55,-149.28,59.89,82.46,237.80
13346,744.09,754.58,753.01,737.22,747.23,241.70,-1311.04,852.54,-27.95,106.22,147.83,223.81
13378,743.97,754.52,752.98,738.13,747.40,730.47,-1387.70,943.85,-11.87,109.66,83.73,210.43
13409,743.98,754.17,752.91,738.95,747.50,1001.95,-1267.58,1005.86,5.48,108.01,22.34,199.48
13441,744.03,754.25,752.96,739.90,747.79,1188.48,-808.11,885.25,29.08,109.26,-3.16,185.99
13472,744.06,755.58,752.90,740.95,748.37,1690.43,-706.54,1010.25,79.82,77.43,-82.31,158.24
13504,750.43,765.12,753.51,745.14,753.55,-159.67,-580.57,-237.30,107.30,-85.67,-46.06,13.26
13535,780.73,775.40,754.00,750.77,765.23,-564.94,-922.36,-287.11,69.85,-91.65,-21.98,-243.80
13567,794.21,782.68,754.45,755.09,771.61,271.00,-840.33,285.64,52.11,-35.79,6.38,-400.87
13599,803.38,789.99,754.90,758.18,776.61,66.41,-852.54,475.59,6.43,-11.88,-10.05,-525.06
13630,803.59,796.35,755.43,759.69,778.77,-48.34,-928.71,477.54,2.72,1.26,-8.17,-586.07
13662,799.74,798.33,755.78,761.31,778.79,-53.71,-952.64,401.86,3.85,5.31,-5.36,-603.68
13694,795.17,796.85,756.10,762.20,777.58,-52.73,-932.13,439.45,7.66,-1.27,-5.23,-581.28
13726,790.14,795.04,756.37,761.69,775.81,-35.16,-864.26,494.14,6.56,4.04,0.52,-535.30
13757,786.21,795.43,756.37,760.36,774.59,-27.34,-905.27,458.01,4.91,6.02,-3.46,-505.40
13789,783.83,796.18,756.30,758.98,773.82,-48.34,-920.90,436.04,5.18,7.02,-3.12,-484.69
13821,782.44,797.23,756.34,758.08,773.52,-37.60,-908.20,436.52,7.73,4.53,-2.27,-474.02
13853,782.09,798.39,756.38,757.76,773.65,-42.97,-904.79,464.36,7.63,1.31,-1.72,-476.31
13884,781.29,799.07,756.39,757.75,773.62,-45.90,-918.46,457.52,6.46,3.18,-2.62,-478.68
13916,780.44,799.12,756.60,758.12,773.57,-44.92,-918.95,456.05,8.77,1.63,-2.18,-476.59
13948,779.27,797.64,756.61,758.10,772.91,-37.11,-909.18,468.26,12.56,-1.92,-1.08,-460.05
13980,778.87,795.51,756.62,758.40,772.35,-21.48,-903.81,471.68,11.14,-3.82,-0.91,-445.61
14011,778.17,794.67,756.82,760.33,772.50,-46.39,-913.09,484.86,5.89,-1.00,-2.07,-460.12
14043,775.84,795.58,757.49,763.70,773.15,-47.36,-919.43,488.77,-0.19,-0.86,-5.55,-492.20
14077,771.68,797.39,758.32,767.42,773.70,-35.16,-908.20,483.89,-0.15,1.63,-9.05,-526.58
14108,766.33,799.89,759.42,771.35,774.25,-53.71,-951.17,474.12,-3.84,2.07,-13.59,-558.51
14140,760.93,802.63,760.71,774.77,774.76,-48.34,-914.06,476.56,-0.29,6.48,-18.52,-580.46
14172,755.47,805.20,761.93,777.09,774.92,-8.79,-892.09,496.58,-8.19,4.50,-20.27,-585.96
14204,750.67,806.33,763.10,777.17,774.32,-32.71,-906.25,513.67,-4.16,-4.63,-16.14,-550.64
14235,747.08,805.12,764.23,774.02,772.61,-83.98,-996.58,566.41,-6.76,-18.35,-21.22,-454.18
14267,745.91,799.95,765.20,767.71,769.69,-153.81,-1051.27,627.93,-38.30,-42.21,-40.56,-291.38
14299,745.34,789.90,765.97,757.84,764.76,-121.09,-1138.18,476.07,-41.12,-69.72,-68.91,-44.58
14331,744.98,776.92,765.54,745.36,758.20,-59.08,-1296.88,479.98,-46.86,-60.90,-118.82,233.79
14362,744.68,766.58,762.75,733.46,751.87,-27.34,-1772.46,571.78,-42.56,-55.14,-183.15,423.38
14394,744.34,761.14,758.60,726.26,747.58,118.65,-1676.27,358.89,-33.36,-49.01,-250.14,470.76
14426,744.27,757.13,754.77,719.79,743.99,370.61,-1909.18,316.89,-110.82,-1.38,-250.14,502.96
14458,744.15,755.04,752.95,719.02,742.79,122.56,-1235.84,259.28,-65.46,44.85,-228.06,486.08
14489,744.25,754.21,752.98,720.32,742.94,-415.53,-1355.96,579.59,-11.93,7.60,-19.47,474.24
14521,744.07,753.89,753.05,721.76,743.19,-379.88,-386.23,70.80,4.69,-2.87,103.40,457.76
14553,744.24,753.73,753.00,723.27,743.56,-96.19,-241.70,310.06,-4.96,15.21,61.46,435.06
14584,744.17,753.55,752.99,724.70,743.85,-230.47,-348.63,500.98,56.70,87.18,114.81,415.31
14615,744.08,753.67,752.93,725.86,744.13,-409.67,-141.60,468.26,31.70,100.83,132.76,396.18
14646,744.05,753.45,752.94,727.05,744.37,-416.50,-207.03,638.18,-2.36,50.45,155.10,380.80
14678,744.00,753.89,752.64,727.81,744.58,107.91,-548.83,591.80,31.82,-36.35,195.98,358.90
14709,747.17,753.75,753.00,729.27,745.80,-1488.77,1855.47,-1243.65,250.13,-250.14,-214.74,336.54
14740,744.28,753.22,753.07,730.82,745.35,796.39,-2000.00,713.38,31.29,250.13,167.05,329.58
14772,743.92,753.30,752.92,732.08,745.55,849.12,-908.69,193.85,147.02,121.76,45.05,308.12
14803,744.00,753.35,752.90,733.39,745.91,171.39,-1190.43,-174.32,33.54,98.45,71.47,287.43
14835,743.78,753.74,752.94,734.57,746.26,-48.34,-916.02,-65.92,-33.11,9.29,76.34,268.77
14866,743.81,753.47,752.91,735.69,746.47,187.99,-994.63,458.01,-64.42,-36.73,33.87,253.41
14898,743.81,753.48,752.90,736.71,746.73,167.97,-834.47,1019.53,-43.59,-14.00,55.58,238.40
14929,743.80,753.36,752.91,737.76,746.96,109.37,-855.47,902.34,32.23,-42.05,41.44,224.12
14963,743.77,753.41,752.87,738.76,747.20,-75.68,-507.32,447.75,14.58,-95.40,19.21,207.88
14994,743.94,753.16,752.90,739.80,747.45,3.91,-1040.53,373.54,10.73,-150.95,19.19,194.90
15026,743.91,753.26,752.94,740.83,747.73,195.31,-944.34,183.11,61.04,-152.60,81.58,180.06
15058,743.86,753.25,752.92,741.82,747.96,432.62,-1010.74,166.02,32.63,-133.87,61.43,165.22
15089,743.83,753.27,752.98,742.82,748.23,402.83,-1059.08,72.27,35.95,-111.24,65.50,151.92
15121,743.90,753.39,752.84,743.77,748.47,333.50,-768.55,-102.05,-21.93,-95.15,46.29,133.29
15153,743.74,753.96,753.78,745.10,749.14,403.81,-1066.41,-135.74,-61.14,-103.75,33.49,133.06
15185,743.82,760.62,754.82,750.32,752.40,859.37,-1867.19,755.86,-250.14,71.52,123.34,28.48
15216,743.70,778.72,756.23,758.28,759.23,-674.80,-2000.00,1540.53,-108.85,133.41,52.25,-198.43
15248,753.02,790.69,757.39,762.22,765.83,209.96,-687.01,825.68,40.01,-68.05,-72.51,-355.55
15280,771.79,795.56,757.14,759.57,771.01,-249.02,-964.36,809.08,-90.83,5.46,-13.32,-426.16
15312,787.00,794.16,756.18,754.35,772.92,-125.98,-689.45,714.36,8.80,0.88,0.79,-414.13
15343,808.83,787.70,755.29,751.76,775.89,-118.16,-990.23,453.12,-8.63,2.81,9.10,-421.40
15375,824.04,784.56,755.08,751.71,778.85,-29.30,-873.05,559.57,-2.44,0.47,2.10,-452.81
15407,827.64,783.39,754.81,751.26,779.27,-20.51,-829.59,582.52,-3.65,3.30,-1.20,-455.93
15439,826.79,782.66,754.72,750.31,778.62,-27.83,-829.59,559.57,-20.18,6.21,-0.53,-435.55
15470,828.22,782.36,754.52,749.78,778.72,-37.60,-898.44,541.99,-15.99,6.01,-2.29,-434.89
15502,831.07,781.60,754.44,749.60,779.18,-20.02,-897.95,518.55,-11.58,2.23,-1.56,-437.99
15534,831.80,781.00,754.40,750.07,779.32,-41.50,-871.58,521.00,-5.35,1.71,-1.54,-443.63
15566,833.05,781.21,754.43,750.73,779.86,-26.86,-864.75,539.55,2.59,-0.70,-1.04,-458.46
15597,832.18,782.11,754.56,751.79,780.16,-50.29,-856.93,538.09,-1.76,2.07,-2.80,-475.15
15629,830.44,783.19,754.70,752.91,780.31,-32.23,-874.02,525.39,0.51,1.19,-2.32,-490.78
15661,829.33,783.58,754.94,753.80,780.41,-39.06,-876.46,535.16,4.79,-0.54,0.98,-497.45
15693,828.50,783.29,754.96,754.14,780.22,-32.71,-854.00,538.57,7.55,-4.27,-0.34,-496.51
15724,827.79,782.44,754.96,753.96,779.79,-39.55,-859.37,551.76,2.40,-1.20,-0.60,-484.82
15756,827.69,781.60,754.86,753.86,779.50,-18.07,-879.88,533.20,3.92,0.45,3.76,-478.68
15788,828.15,780.88,754.87,753.76,779.42,-40.04,-857.91,560.55,2.24,0.20,-1.29,-472.90
15820,828.43,780.54,754.87,753.71,779.39,-25.39,-844.73,550.29,-0.47,1.25,-2.03,-470.08
15853,829.70,780.37,754.84,753.71,779.66,-32.23,-855.47,550.29,0.89,1.02,0.42,-474.08
15885,831.91,780.28,754.94,753.16,780.07,-19.04,-855.47,563.48,1.90,1.43,-2.70,-470.34
15917,834.25,779.44,754.73,752.41,780.21,-39.55,-857.91,542.97,-0.54,2.92,-2.60,-465.65
15948,835.94,778.29,754.62,751.61,780.11,-26.86,-862.79,510.25,1.85,-2.57,-2.31,-453.14
15980,837.42,776.40,754.45,750.87,779.78,-34.67,-877.44,548.34,0.89,1.92,1.21,-436.59
16012,838.76,774.32,754.26,749.99,779.33,-38.57,-864.75,542.48,0.31,-3.05,2.51,-416.21
16043,839.19,772.35,754.18,749.40,778.78,-54.20,-874.51,535.16,-1.42,2.08,1.27,-395.28
16074,837.92,770.34,754.06,749.03,777.84,-24.90,-880.86,544.92,-4.01,-2.53,2.11,-372.25
16105,833.97,767.98,753.83,748.57,776.09,-25.88,-868.65,553.71,-4.35,-1.31,4.68,-338.60
16137,826.77,765.06,753.63,748.44,773.47,-32.71,-890.14,520.51,-11.96,-0.50,8.15,-293.61
16168,819.82,762.62,753.39,748.41,771.06,-41.02,-846.19,538.09,-5.13,-6.21,8.12,-255.76
16200,812.37,760.51,753.33,748.82,768.76,-56.64,-875.49,509.77,-9.79,-6.11,8.06,-221.02
16231,804.40,758.80,753.22,749.15,766.39,-54.69,-893.07,522.46,-13.95,-9.85,12.93,-187.36
16262,794.99,757.60,753.23,749.51,763.84,-34.18,-918.46,532.71,-16.85,-9.27,19.25,-150.60
16294,784.40,756.37,753.18,749.82,760.94,-72.27,-927.25,500.00,-21.89,-18.99,31.18,-110.16
16325,774.98,755.54,753.15,750.17,758.46,-151.86,-800.78,511.72,-24.37,-11.92,29.30,-77.04
16357,767.50,755.13,753.12,750.51,756.56,-206.05,-919.92,384.77,-25.41,-39.63,30.84,-53.67
16388,762.20,754.95,753.12,750.75,755.25,-195.31,-936.04,368.16,-24.26,-68.96,36.08,-37.71
16420,759.03,754.94,753.01,751.03,754.50,-58.11,-887.21,457.03,-18.95,-77.66,28.24,-33.69
16452,757.78,755.02,753.02,751.19,754.26,75.68,-941.41,538.09,-4.67,-61.92,21.02,-32.09
16483,757.30,754.94,752.98,751.37,754.15,-41.99,-930.18,480.47,-2.45,-34.64,21.02,-33.37
16515,756.97,754.97,753.04,751.54,754.13,-115.23,-852.05,460.45,6.82,-40.23,9.29,-33.50
16547,757.20,755.10,753.00,751.80,754.27,64.94,-872.56,554.69,14.20,-33.81,0.20,-40.22
16579,757.88,755.09,752.99,751.97,754.48,54.69,-894.04,556.15,17.02,-5.60,-6.19,-45.34
16610,758.68,755.10,753.06,752.19,754.76,-80.08,-875.98,484.37,11.65,-2.50,-6.13,-49.64
16642,760.03,755.19,753.02,752.26,755.12,-76.66,-885.74,490.72,15.83,2.17,-10.79,-57.02
16674,760.98,755.27,753.00,752.37,755.41,-34.18,-886.23,510.25,14.82,1.30,-8.50,-62.84
16706,762.02,755.54,753.05,752.63,755.81,-10.74,-901.86,517.58,5.86,1.95,-2.46,-71.34
16739,763.30,755.84,753.09,752.73,756.24,-23.93,-869.63,535.64,5.36,1.76,-2.60,-78.51
16771,764.23,756.16,753.17,752.89,756.61,-53.71,-868.65,524.41,0.80,5.63,-2.83,-84.72
16802,764.67,756.33,753.17,753.09,756.81,-42.48,-873.54,508.30,2.68,6.69,-3.56,-90.64
16834,765.12,756.54,753.17,753.07,756.97,-52.25,-875.00,529.79,-2.86,4.58,-2.81,-93.50
16866,766.03,756.65,753.06,752.99,757.18,-41.02,-869.63,536.62,3.05,3.09,-0.40,-99.05
16898,767.21,756.95,753.08,753.07,757.58,-63.48,-876.95,515.14,-0.31,4.08,-1.87,-106.14
16929,768.06,757.60,753.10,753.39,758.04,-45.41,-886.23,503.42,2.10,1.56,-5.96,-118.48
16961,768.37,758.73,753.25,754.01,758.59,-40.04,-916.50,558.59,-0.95,6.85,-9.58,-133.83
16993,768.96,759.79,753.33,754.80,759.22,-55.18,-916.50,488.77,-5.61,4.95,-2.55,-154.05
17025,770.35,760.70,753.52,755.41,759.99,-37.60,-840.33,513.67,9.22,-2.55,-3.11,-170.41
17056,773.44,761.62,753.60,755.75,761.10,-44.43,-880.37,510.74,6.00,-1.73,-2.95,-191.37
17088,777.66,762.97,753.74,755.92,762.57,-52.73,-886.72,519.04,7.58,-0.69,-1.02,-215.67
17120,782.98,764.20,753.83,756.05,764.26,-42.48,-851.56,525.39,5.97,-0.41,-3.89,-243.49
17152,789.01,765.42,753.89,756.02,766.08,-25.39,-853.03,534.67,5.02,-0.72,-1.88,-272.13
17183,795.78,766.24,753.86,755.52,767.85,-27.34,-880.37,521.97,4.98,2.27,-1.69,-295.27
17215,804.20,767.26,753.89,755.35,770.17,-19.04,-900.39,552.73,3.85,3.15,-1.88,-329.15
17247,812.81,768.57,753.95,755.07,772.60,-29.30,-866.21,557.62,1.40,-0.89,-2.53,-363.47
17279,822.34,769.28,753.89,754.40,774.98,-32.23,-874.02,554.20,4.72,-2.56,-0.42,-393.75
17310,830.38,769.34,753.80,753.76,776.82,-26.37,-854.00,546.87,1.97,-2.04,1.44,-414.33
17342,835.72,769.10,753.78,753.34,777.98,-33.69,-888.67,543.95,0.11,-0.90,3.38,-425.33
17374,838.66,769.12,753.72,753.27,778.69,-36.62,-866.70,546.39,-3.91,-2.24,2.40,-436.07
17406,839.81,769.51,753.82,753.49,779.16,-25.39,-864.75,544.92,-3.82,0.02,-2.82,-443.82
17437,839.59,770.09,753.88,754.04,779.40,-32.23,-858.89,547.36,-6.34,-0.89,-1.50,-454.36
17469,838.20,771.29,753.98,755.36,779.71,-16.60,-866.70,538.09,-3.24,0.74,-0.16,-476.19
17500,835.15,773.97,754.39,758.03,780.39,-48.83,-894.53,518.55,-1.66,0.56,-2.59,-516.08
17531,829.30,776.19,754.79,759.70,780.00,-30.76,-876.46,551.76,-2.60,0.22,-5.15,-528.36
17563,823.64,777.81,755.07,760.63,779.29,-23.93,-847.17,540.53,-4.33,0.53,-1.86,-528.69
17594,819.40,779.88,755.38,761.00,778.92,-28.32,-859.37,543.95,-7.60,0.73,-3.31,-528.54
17627,816.03,781.37,755.52,760.72,778.41,-35.64,-896.97,541.99,-2.69,1.25,-0.81,-521.32
17659,814.33,781.68,755.58,760.11,777.93,-41.02,-863.77,527.83,2.32,-0.29,2.13,-507.42
17690,813.79,781.26,755.52,759.30,777.46,-38.57,-888.18,540.04,4.24,0.60,1.56,-491.88
17722,812.75,780.45,755.56,758.48,776.81,-39.55,-857.42,554.69,4.79,-1.60,-0.76,-468.71
17753,811.95,779.24,755.42,757.37,776.00,-38.09,-874.02,545.90,6.53,-0.69,0.65,-443.53
17784,811.30,777.50,755.27,755.92,775.00,-34.67,-867.19,542.48,4.61,-3.40,2.27,-409.60
17816,810.19,775.54,754.99,754.23,773.74,-21.48,-863.77,562.01,0.10,-1.22,2.93,-372.14
17847,808.39,773.23,754.78,752.62,772.25,-24.90,-843.26,543.95,-2.87,-0.39,0.67,-329.03
17879,805.69,770.99,754.55,751.01,770.56,-27.83,-862.30,555.66,-4.77,2.42,1.22,-283.85
17911,801.98,768.83,754.27,749.00,768.52,-23.93,-852.54,537.60,-7.36,4.57,2.93,-231.18
17942,796.23,766.20,753.95,746.82,765.80,-17.58,-876.46,540.04,-11.24,3.01,3.53,-166.19
17974,787.42,763.43,753.52,745.14,762.38,-14.65,-845.21,530.76,-23.31,6.21,6.29,-99.62
18006,775.22,760.11,753.25,744.55,758.28,-56.64,-879.39,505.86,-50.53,7.38,13.41,-29.33
18038,762.87,757.09,753.07,745.11,754.53,-15.14,-869.14,521.48,-43.41,5.84,10.54,24.59
18069,754.45,755.74,753.09,745.98,752.31,89.36,-889.65,481.93,-37.60,22.15,5.68,51.88
18101,750.16,754.77,752.97,746.65,751.14,59.57,-937.01,525.39,-20.72,41.53,-13.17,61.57
18133,748.26,754.43,752.97,747.34,750.75,-166.50,-1092.77,439.94,32.53,25.73,-35.34,60.54
18165,747.64,754.14,752.97,747.97,750.68,-87.89,-653.32,404.30,-4.92,-5.99,-13.27,55.72
18196,747.40,754.07,752.92,748.58,750.74,-14.16,-1092.77,427.73,-16.24,-19.24,11.34,47.16
18228,747.09,754.02,752.87,749.19,750.79,175.78,-888.18,455.08,20.95,-18.18,13.92,38.42
18260,746.99,754.30,752.92,750.06,751.07,50.78,-684.08,343.26,8.92,-10.19,-21.41,24.73
18292,747.54,754.95,753.01,750.91,751.60,-620.12,-986.33,687.50,0.17,43.69,7.27,7.39
18323,749.09,756.57,753.18,751.83,752.67,155.27,-1135.74,225.10,-5.92,14.08,-6.52,-20.04
18355,753.84,758.86,753.42,752.65,754.69,-136.23,-905.76,549.32,41.14,-7.96,1.19,-60.90
18387,761.56,760.66,753.48,753.22,757.23,-73.24,-948.73,469.24,37.63,3.59,-6.34,-108.71
18419,767.71,761.30,753.67,753.82,759.12,-49.32,-913.09,447.27,12.08,3.95,-4.86,-138.97
18450,771.85,762.03,753.70,754.34,760.48,-31.74,-897.46,531.25,2.29,-0.16,-2.92,-165.91
18482,775.23,762.81,753.81,755.08,761.73,-47.85,-848.63,529.30,8.24,-2.92,-3.34,-191.92
18516,778.41,763.47,753.85,755.71,762.86,-28.81,-861.82,526.37,13.05,-0.93,-4.79,-216.55
18547,781.28,763.79,754.01,756.00,763.77,-35.16,-870.61,529.30,9.98,-2.95,-0.18,-229.11
18579,784.04,764.12,754.01,756.03,764.55,-42.48,-887.21,535.16,4.82,-2.54,-1.55,-241.82
18611,786.20,764.57,754.12,756.03,765.23,-38.57,-860.35,543.46,2.43,-0.06,-0.56,-250.09
18643,788.06,765.02,754.18,755.90,765.79,-32.71,-875.98,521.48,-0.06,2.44,-4.33,-256.52
18674,789.65,765.46,754.20,755.80,766.28,-46.88,-873.54,532.71,-0.24,0.45,-3.31,-263.52
18706,791.03,765.82,754.22,755.79,766.72,-42.48,-870.12,533.69,-3.50,1.63,-1.72,-270.55
18738,792.32,766.21,754.26,755.60,767.10,-33.69,-881.35,528.81,-0.75,1.04,-0.87,-274.20
18770,793.47,766.61,754.33,755.51,767.48,-28.32,-871.09,532.71,-0.13,-0.75,-1.11,-278.43
18801,794.27,766.82,754.32,755.34,767.69,-27.83,-873.05,527.83,0.28,1.60,-3.49,-280.63
18833,794.72,767.06,754.38,755.19,767.84,-34.67,-867.68,539.06,-1.73,4.72,-0.73,-280.50
18865,794.93,767.48,754.39,755.07,767.97,-34.67,-858.89,535.16,-2.32,0.14,-2.27,-282.56
18897,795.04,767.82,754.44,754.93,768.06,-33.69,-875.00,520.51,-2.54,0.53,-1.27,-282.35
18928,794.87,768.15,754.47,754.85,768.08,-33.69,-887.70,525.39,-3.76,0.44,2.04,-282.38
18959,794.41,768.45,754.49,754.84,768.05,-40.53,-885.74,565.92,0.22,-1.40,-3.38,-282.64
18991,793.55,768.84,754.54,754.98,767.98,-32.71,-868.65,551.27,-1.61,1.45,-0.11,-283.47
19022,792.44,769.31,754.62,755.02,767.85,-36.13,-854.98,516.60,0.79,1.18,-1.56,-282.11
19053,791.32,769.71,754.69,755.16,767.72,-34.67,-869.63,521.48,-0.69,-1.10,-1.63,-281.84
19084,789.86,770.11,754.76,755.29,767.50,-25.39,-870.61,528.32,-0.11,-1.71,-1.89,-280.19
19115,788.40,770.42,754.86,755.29,767.24,-41.50,-874.02,530.76,1.08,-0.68,0.93,-275.21
19147,787.13,770.59,754.90,755.19,766.95,-36.62,-871.58,542.48,0.51,-1.20,-1.23,-269.73
19179,785.96,770.67,754.89,755.07,766.65,-25.88,-864.26,525.88,0.48,0.53,-2.24,-264.90
19210,784.76,770.70,754.86,754.95,766.32,-38.57,-866.70,537.60,1.93,-0.94,-0.92,-259.93
19242,783.63,770.78,754.97,754.87,766.06,-35.64,-874.02,548.34,1.16,-0.98,-0.81,-252.82
19273,782.48,770.82,754.96,754.72,765.74,-29.30,-861.82,544.92,-0.68,0.43,-1.68,-247.35
19304,781.43,770.81,755.01,754.55,765.45,-43.95,-874.51,517.09,-0.14,2.20,-0.79,-239.87
19336,780.48,770.90,754.99,754.36,765.18,-32.23,-885.25,542.97,2.69,1.04,-0.29,-235.17
19368,779.93,770.71,754.98,754.10,764.93,-34.67,-882.32,541.02,2.20,-2.55,-0.13,-227.92
19401,779.41,770.56,754.99,753.70,764.67,-29.79,-874.51,539.06,-1.02,1.72,-2.80,-218.76
19433,779.13,770.28,754.95,753.38,764.43,-37.60,-875.00,522.46,1.86,-1.30,-1.30,-211.92
19465,778.97,770.06,754.88,753.08,764.25,-39.06,-872.07,545.90,-1.02,0.31,-0.68,-207.08
19497,778.91,769.84,754.87,752.66,764.07,-30.27,-868.16,529.79,-1.56,2.14,-1.50,-199.01
19528,778.68,769.62,754.84,752.48,763.91,-32.71,-870.12,526.86,-1.26,1.88,-1.27,-194.55
19560,778.51,769.25,754.67,752.08,763.63,-40.04,-867.68,527.34,-3.27,-1.52,0.24,-189.31
19592,778.36,769.12,754.69,751.89,763.51,-38.09,-873.05,546.39,0.73,1.16,0.43,-184.64
19624,778.29,769.00,754.64,751.75,763.42,-41.02,-872.56,535.64,-3.10,1.59,-1.49,-182.38
19655,778.31,768.89,754.72,751.76,763.42,-26.37,-883.30,542.97,-1.21,3.95,0.93,-179.90
19687,778.34,768.72,754.64,751.60,763.33,-42.48,-877.44,536.62,-1.18,0.69,-1.20,-178.23
19719,778.53,768.67,754.58,751.46,763.31,-38.09,-891.11,516.11,-0.75,1.61,-0.18,-178.05
19751,778.86,768.32,754.57,751.32,763.27,-29.79,-877.93,532.23,-0.77,0.85,-0.69,-174.47
19782,779.10,767.89,754.51,751.12,763.16,-40.53,-875.00,536.13,-1.85,-0.72,-0.16,-170.38
19814,779.70,767.46,754.43,751.03,763.15,-37.11,-862.30,516.60,0.03,-0.88,0.22,-169.67
19846,780.67,767.24,754.34,751.12,763.34,-43.95,-884.77,513.67,-1.14,-1.86,0.13,-174.57
19878,781.59,767.02,754.37,751.11,763.52,-41.99,-871.58,539.06,-0.32,-0.17,0.55,-175.25
19909,782.27,766.76,754.24,751.13,763.60,-24.90,-883.79,531.25,-0.50,-0.67,-1.94,-179.08
19941,782.95,766.36,754.25,751.25,763.70,-37.60,-874.51,525.39,-1.66,-0.34,-1.37,-179.49
19973,783.89,765.83,754.19,751.06,763.74,-35.16,-877.44,520.51,1.30,-0.53,-1.22,-177.25
20005,785.19,765.27,754.09,750.93,763.87,-41.02,-868.16,537.60,3.36,-0.98,2.06,-177.79
20036,786.33,764.91,754.09,751.06,764.10,-39.06,-877.44,529.30,2.08,-2.79,-0.74,-180.77
20068,786.91,764.59,754.10,751.24,764.21,-23.93,-868.65,536.13,-1.00,-1.93,1.27,-182.60
20100,787.19,764.37,754.07,751.22,764.21,-39.55,-878.42,528.81,2.40,-3.92,-1.01,-182.36
20132,787.30,764.08,754.03,751.10,764.13,-24.41,-879.88,537.60,2.55,-1.54,1.27,-179.58
20163,787.77,763.71,753.97,751.10,764.14,-42.97,-868.16,540.04,-1.40,-1.57,0.48,-179.63
20195,787.84,763.44,754.00,751.10,764.10,-20.51,-880.37,537.60,0.82,0.54,-0.88,-177.10
20227,788.18,763.30,753.91,751.20,764.15,-35.64,-880.86,540.53,1.92,-0.74,0.51,-180.84
20259,788.42,763.13,753.84,751.29,764.17,-32.23,-876.46,538.09,-0.44,1.43,-3.16,-183.28
20292,788.77,763.03,753.84,751.43,764.27,-27.83,-868.16,536.13,0.23,1.60,-0.97,-185.88
20324,789.13,762.97,753.84,751.58,764.38,-34.18,-871.09,541.02,-0.11,-1.26,-0.11,-188.78
20355,789.53,762.93,753.81,751.77,764.51,-44.43,-875.49,531.74,-1.15,-0.80,-1.16,-193.29
20387,789.78,762.94,753.91,751.96,764.65,-45.41,-875.49,537.60,0.59,1.35,-0.95,-194.39
20418,789.98,762.99,753.86,752.21,764.76,-52.73,-873.05,534.67,-0.93,-1.38,-0.71,-200.65
20450,790.17,762.94,753.85,752.37,764.83,-32.71,-876.95,531.74,-1.85,-1.82,-0.11,-203.44
20481,790.32,763.02,753.80,752.48,764.90,-31.25,-874.51,536.62,0.35,0.32,0.29,-207.52
20512,790.61,763.11,753.82,752.57,765.03,-30.76,-877.93,523.44,-0.99,2.10,-0.35,-210.06
20543,790.87,763.13,753.94,752.66,765.15,-32.71,-884.28,521.00,-0.47,-1.31,-1.30,-209.46
20574,791.10,763.26,753.92,752.71,765.25,-40.04,-878.91,532.71,-0.76,2.51,-1.79,-212.39
20606,791.31,763.18,753.88,752.73,765.28,-44.92,-882.32,539.55,-2.11,1.82,0.23,-213.80
20638,791.44,763.17,753.85,752.70,765.29,-50.29,-875.98,531.25,-0.63,-0.50,-0.24,-214.52
20669,791.57,763.27,753.91,752.82,765.39,-30.76,-883.79,538.09,0.26,0.85,-0.37,-215.94
20700,791.64,763.28,753.94,752.85,765.43,-46.39,-871.09,525.88,0.21,-0.07,0.55,-216.13
20732,791.99,763.27,753.85,752.96,765.52,-26.37,-867.68,548.83,-1.22,1.27,-1.09,-220.91
20763,792.04,763.34,753.84,753.15,765.59,-53.22,-870.61,530.27,0.12,0.87,-0.60,-224.63
20795,792.09,763.33,753.91,753.12,765.61,-48.34,-872.07,531.74,-0.63,0.50,-0.32,-222.60
20827,791.96,763.26,753.89,753.24,765.59,-39.06,-874.51,538.57,-2.25,-0.04,-0.12,-223.91
20859,791.76,763.28,753.89,753.27,765.55,-42.48,-869.14,516.11,-0.93,-0.30,-0.98,-223.73
20890,791.60,763.26,753.89,753.32,765.52,-39.06,-874.51,521.00,0.26,0.44,-1.37,-223.97
20922,791.53,763.28,753.82,753.35,765.50,-40.04,-871.58,531.25,-2.34,1.47,0.82,-225.90
20954,791.56,763.31,753.90,753.31,765.52,-40.04,-872.56,536.13,-2.99,1.56,-1.30,-223.68
20986,791.60,763.33,753.81,753.32,765.52,-45.90,-865.23,525.39,-1.34,1.17,-1.66,-226.45
21017,791.60,763.33,753.90,753.21,765.51,-34.67,-877.44,535.64,-0.59,-0.30,1.80,-222.65
21049,791.75,763.28,753.89,753.13,765.51,-30.27,-876.46,539.55,0.65,2.42,0.51,-221.94
21081,791.94,763.35,753.82,753.09,765.55,-35.64,-885.74,535.16,1.31,2.44,-1.40,-224.13
21113,792.05,763.33,753.85,752.96,765.55,-39.06,-875.98,533.20,0.58,1.37,1.79,-221.89
21144,792.27,763.28,753.85,752.99,765.60,-52.73,-878.42,546.87,0.83,-0.35,0.32,-222.40
21178,792.38,763.21,753.79,752.97,765.59,-37.60,-866.21,533.69,-0.76,-1.23,-2.05,-223.39
21210,792.39,763.22,753.93,752.99,765.63,-34.18,-873.05,535.64,-1.03,0.22,0.09,-220.62
21241,792.39,763.16,753.86,753.02,765.61,-32.23,-861.82,539.55,0.71,-1.01,-1.04,-222.09
21273,792.45,763.25,753.87,753.02,765.65,-40.04,-870.12,527.34,1.14,-0.60,-0.66,-222.83
21305,792.33,763.28,753.87,753.16,765.66,-29.79,-870.12,536.62,0.04,-3.47,0.05,-224.86
21337,792.23,763.29,753.85,753.29,765.66,-40.04,-862.30,540.53,1.05,-1.02,-0.30,-226.88
21368,792.05,763.30,753.83,753.41,765.65,-47.85,-870.61,529.30,-0.69,0.03,-1.01,-228.64
21400,791.68,763.42,753.88,753.65,765.66,-30.27,-874.51,546.39,-1.31,0.40,-1.21,-230.62
21432,791.20,763.60,753.95,753.76,765.63,-36.13,-888.18,521.48,-0.91,1.53,-1.28,-230.38
21463,790.64,763.71,753.95,753.90,765.55,-40.04,-885.74,532.23,0.02,1.05,0.63,-231.27
21495,790.16,763.76,753.99,753.88,765.45,-39.06,-877.44,534.67,0.52,1.08,-1.29,-228.69
21527,789.74,763.85,754.01,753.86,765.36,-35.16,-875.00,530.76,-1.12,-1.28,1.00,-227.37
21559,789.59,763.84,754.01,753.79,765.31,-26.86,-867.68,537.60,1.50,0.92,0.11,-225.71
21590,789.47,763.89,753.99,753.69,765.26,-35.16,-861.82,527.83,0.74,2.60,-0.46,-224.62
21622,789.21,763.94,754.00,753.63,765.20,-37.11,-867.68,554.69,-1.36,1.66,-1.22,-222.95
21654,789.12,763.95,753.93,753.64,765.16,-37.60,-873.05,534.18,1.89,-1.58,-0.19,-224.56
21686,789.14,764.01,754.05,753.68,765.22,-42.97,-890.14,536.62,0.47,-0.21,-1.11,-222.90
21717,788.99,764.06,754.01,753.59,765.16,-43.46,-875.00,526.37,-0.63,0.56,0.39,-222.47
21749,788.88,764.17,754.08,753.66,765.20,-35.16,-879.39,531.74,-1.01,-2.50,-1.02,-222.20
21781,788.65,764.37,754.10,753.85,765.24,-37.11,-887.70,536.13,-2.29,0.26,1.54,-225.12
21813,788.24,764.57,754.09,753.96,765.21,-35.16,-863.77,543.46,0.09,-1.27,0.40,-227.37
21844,787.59,764.87,754.15,754.16,765.19,-41.50,-883.30,543.95,0.95,-0.01,-2.40,-228.91
21876,787.03,765.11,754.27,754.27,765.17,-40.53,-857.91,530.27,0.31,1.57,-2.59,-227.45
21907,786.64,765.39,754.22,754.23,765.12,-35.16,-875.98,516.60,1.05,1.37,-0.58,-229.20
21938,786.18,765.53,754.28,754.21,765.05,-36.62,-872.07,534.18,-2.17,-0.87,-1.23,-226.83
21969,785.92,765.65,754.29,754.17,765.01,-35.64,-888.18,531.74,-0.45,1.27,-0.32,-226.21
22000,785.68,765.79,754.30,753.97,764.94,-39.55,-889.65,531.74,0.26,-0.65,-1.26,-223.17
22032,785.47,765.86,754.32,753.97,764.91,-38.09,-870.12,529.30,-0.99,-1.00,-1.21,-222.54
22065,785.31,765.99,754.32,753.84,764.86,-43.46,-874.02,534.18,-1.06,-0.91,-2.08,-221.17
22097,784.96,766.19,754.37,753.92,764.86,-20.02,-872.56,536.62,0.28,0.89,-1.79,-221.54
22128,784.74,766.33,754.28,753.86,764.80,-27.34,-878.91,523.44,-1.43,1.53,-0.82,-223.15
22159,784.54,766.55,754.39,753.82,764.83,-42.97,-872.56,534.67,-1.69,-0.74,0.43,-220.92
22191,784.40,766.75,754.38,753.67,764.80,-30.76,-878.42,532.23,-1.50,-1.64,-3.03,-220.03
22222,784.18,766.72,754.38,753.56,764.71,-41.99,-873.05,534.18,0.75,1.70,-1.71,-217.57
22254,784.17,766.76,754.32,753.42,764.67,-40.04,-874.51,522.95,-1.70,0.97,-1.64,-217.31
22285,784.08,766.70,754.34,753.32,764.61,-24.90,-871.09,535.16,-0.69,-1.23,1.45,-214.39
22317,784.08,766.65,754.31,753.23,764.56,-41.99,-866.21,532.23,-1.63,-0.47,-0.21,-213.48
22349,784.28,766.52,754.38,753.01,764.55,-28.81,-865.23,534.67,-0.41,1.31,-0.22,-208.23
22381,784.47,766.33,754.31,752.89,764.50,-26.86,-876.46,527.83,-1.28,0.16,-0.47,-207.34
22412,784.66,766.14,754.31,752.76,764.47,-34.67,-873.05,521.00,0.64,-1.91,0.53,-204.40
22444,784.92,765.94,754.21,752.78,764.46,-29.30,-875.98,532.23,-1.15,0.32,-0.63,-206.62
22476,785.16,765.84,754.29,752.74,764.51,-41.99,-870.12,529.79,0.06,-1.15,1.21,-204.10
22508,785.24,765.67,754.34,752.75,764.50,-36.62,-868.65,519.53,-0.18,1.02,0.44,-201.85
22539,785.37,765.63,754.21,752.82,764.51,-23.93,-881.84,538.09,0.79,-0.76,-1.33,-206.13
22571,785.38,765.63,754.17,752.82,764.50,-30.76,-872.56,529.30,-1.26,-1.48,1.54,-207.25
22603,785.45,765.62,754.22,752.82,764.53,-28.32,-877.93,532.23,3.56,2.02,-2.38,-206.15
22635,785.56,765.60,754.23,752.84,764.56,-27.83,-881.84,518.07,-1.85,1.73,0.31,-206.36
22666,785.75,765.57,754.28,752.76,764.59,-45.41,-873.05,524.41,-0.79,1.49,-0.15,-204.37
22698,786.06,765.52,754.26,752.90,764.68,-35.16,-882.32,532.23,1.04,-1.73,-0.41,-207.55
22730,785.94,765.53,754.26,752.93,764.66,-40.04,-877.93,530.27,0.03,0.04,-0.66,-207.90
22762,785.63,765.71,754.23,753.18,764.69,-35.64,-867.19,521.97,0.12,2.43,-0.63,-212.59
22793,785.35,766.00,754.34,753.24,764.73,-31.74,-868.16,528.81,1.98,0.76,-1.29,-212.09
22825,785.05,766.03,754.30,753.26,764.66,-45.41,-877.93,527.83,-1.06,-0.91,0.03,-212.74
22857,784.96,766.09,754.32,753.29,764.66,-27.34,-862.30,529.30,1.76,-0.57,1.21,-212.75
22889,784.90,766.18,754.35,753.31,764.69,-32.23,-860.84,532.23,-0.50,0.47,-0.04,-212.66
22920,784.85,766.15,754.36,753.24,764.65,-33.20,-880.37,529.79,-2.50,1.50,-1.19,-210.94
22954,784.74,766.15,754.32,753.30,764.63,-39.55,-873.05,534.18,-0.07,-2.61,1.82,-212.55
22986,784.72,766.18,754.35,753.21,764.61,-39.55,-881.84,532.71,0.81,-2.57,0.09,-210.50
23017,784.65,766.22,754.29,753.18,764.59,-24.90,-876.95,532.71,0.73,1.24,-2.32,-211.85
23049,784.77,766.17,754.33,753.17,764.61,-39.06,-881.84,531.74,-0.56,-2.65,-0.85,-210.72
23081,784.89,766.04,754.27,753.09,764.57,-32.71,-868.16,539.55,-0.89,-0.02,-1.56,-210.32
23113,784.94,766.02,754.37,752.97,764.58,-34.18,-874.51,534.18,-1.20,2.17,-0.69,-206.20
23144,784.96,766.00,754.36,753.03,764.59,-37.11,-874.51,531.25,0.95,0.29,-1.53,-206.98
23176,785.02,765.95,754.31,753.11,764.60,-38.09,-871.58,551.76,0.28,-0.12,-1.20,-209.35
23208,785.06,766.03,754.28,752.98,764.59,-29.30,-877.44,527.83,-0.69,1.62,-1.27,-208.84
23240,785.07,765.91,754.26,753.03,764.57,-39.55,-872.56,536.62,-2.35,0.00,-1.37,-209.35
23271,784.93,765.96,754.23,753.07,764.55,-38.09,-884.77,533.69,0.02,0.62,0.68,-210.49
23303,784.88,766.04,754.31,753.11,764.58,-40.53,-874.51,524.90,-0.48,0.47,-0.60,-209.62
23334,784.81,766.15,754.31,753.16,764.61,-38.57,-880.86,524.41,1.75,1.36,-0.68,-210.86
23365,784.66,766.18,754.36,753.25,764.61,-40.53,-866.21,521.97,0.02,3.72,-5.14,-210.82
23397,784.48,766.24,754.31,753.25,764.57,-37.11,-870.61,530.76,-2.60,-0.18,-2.13,-211.76
23428,784.39,766.32,754.41,753.34,764.61,-52.25,-865.23,520.02,0.47,0.77,-0.98,-211.08
23459,784.10,766.53,754.35,753.38,764.59,-42.97,-885.74,530.27,-0.65,1.26,-2.08,-213.76
23490,783.94,766.64,754.39,753.41,764.59,-39.06,-867.68,522.95,-1.31,-0.93,-1.31,-213.68
23522,783.83,766.64,754.38,753.37,764.55,-34.18,-877.93,526.86,-0.42,0.60,2.31,-212.93
23554,783.63,766.74,754.39,753.44,764.55,-41.99,-875.49,518.07,-1.60,-3.74,0.20,-213.81
23585,783.51,766.77,754.40,753.34,764.51,-46.39,-877.44,522.46,2.07,-0.09,-2.81,-211.85
23617,783.59,766.79,754.39,753.32,764.52,-39.06,-870.12,533.20,-1.89,-0.34,-0.22,-212.26
23648,783.55,766.78,754.35,753.29,764.49,-37.60,-874.02,530.76,-0.26,0.72,-0.24,-212.65
23679,783.52,766.75,754.36,753.25,764.47,-32.71,-875.00,530.76,0.31,-0.67,1.04,-211.37
23711,783.53,766.85,754.31,753.22,764.48,-37.60,-874.51,542.48,1.17,2.29,-1.29,-213.04
23743,783.39,766.93,754.45,753.24,764.50,-38.09,-886.72,527.34,-0.98,-2.08,-1.02,-210.07
23774,783.25,766.89,754.43,753.27,764.46,-28.32,-879.88,528.81,-3.06,-1.22,-1.46,-210.23
23806,783.29,766.97,754.38,753.21,764.46,-27.34,-875.98,521.00,-0.46,1.68,-1.12,-211.46
23840,783.25,767.01,754.44,753.20,764.47,-38.57,-866.21,531.25,-1.82,-0.49,-1.38,-210.02
23871,783.28,766.99,754.42,753.15,764.46,-44.43,-874.51,532.23,-1.76,-1.34,0.37,-209.50
23903,783.24,767.07,754.40,753.18,764.47,-38.57,-877.44,535.16,-0.15,-0.52,-0.31,-211.13
23935,783.29,767.04,754.41,753.15,764.47,-49.80,-868.65,523.93,0.10,-1.87,-1.39,-210.31
23967,783.40,767.04,754.49,753.13,764.51,-43.46,-881.35,532.71,-2.05,-0.37,-0.79,-208.42
23998,783.47,767.03,754.43,753.17,764.52,-27.34,-873.05,534.67,-1.22,0.56,-0.38,-210.60
24030,783.49,767.07,754.41,753.24,764.55,-36.13,-878.91,522.95,-0.98,-0.40,-0.50,-212.59
24062,783.58,767.08,754.40,753.12,764.54,-26.86,-870.61,537.11,0.47,1.89,-0.82,-211.20
24094,783.57,767.10,754.43,753.12,764.56,-34.67,-869.14,543.46,0.12,0.05,0.68,-210.84
24125,783.69,767.03,754.45,753.17,764.59,-34.67,-869.63,517.09,-0.79,-1.18,-2.16,-210.90
24157,783.73,767.02,754.43,753.07,764.56,-40.04,-870.61,534.18,-1.00,1.70,-1.19,-209.87
24189,783.70,767.04,754.40,753.10,764.56,-30.76,-876.95,523.44,0.69,-0.02,-0.35,-211.22
24221,783.80,766.95,754.43,753.05,764.56,-45.41,-875.49,533.20,-0.15,1.34,-1.92,-209.40
24252,783.85,766.89,754.49,753.07,764.57,-41.99,-873.54,533.20,2.11,-0.04,-0.94,-207.93
24284,783.85,766.92,754.49,752.90,764.54,-25.88,-882.81,530.27,-0.05,0.55,-1.47,-205.66
24316,783.95,766.88,754.44,753.02,764.57,-31.25,-878.91,536.62,0.05,-0.22,0.41,-208.65
24347,784.06,766.79,754.46,752.97,764.57,-43.46,-873.05,534.18,0.79,-1.72,0.52,-207.18
24379,784.17,766.70,754.40,752.95,764.56,-40.53,-881.84,534.18,-1.02,-1.20,-1.10,-207.92
24411,784.29,766.56,754.33,752.81,764.50,-31.74,-867.19,540.04,-0.98,0.67,-0.08,-206.80
24443,784.47,766.44,754.36,752.71,764.50,-35.16,-881.35,539.06,-0.56,0.02,0.37,-204.42
24474,784.76,766.33,754.31,752.68,764.52,-27.34,-880.86,521.97,-0.30,0.30,-1.73,-205.13
24506,785.13,766.18,754.33,752.58,764.56,-39.55,-882.81,527.83,-0.73,0.71,-0.11,-203.19
24538,785.43,766.04,754.31,752.62,764.60,-34.67,-873.54,544.43,-1.56,-0.21,-1.95,-204.38
24570,785.63,765.93,754.28,752.51,764.59,-40.04,-878.91,530.27,-1.69,1.39,0.96,-203.15
24601,785.81,765.87,754.31,752.54,764.63,-39.06,-881.35,541.02,0.57,-0.95,-0.63,-202.92
24633,785.88,765.78,754.30,752.55,764.63,-28.32,-877.44,537.11,-1.00,1.57,0.91,-202.92
24665,786.09,765.69,754.23,752.58,764.65,-37.11,-865.23,527.83,-0.76,-0.50,-0.46,-205.16
24697,786.33,765.60,754.26,752.58,764.69,-38.09,-872.56,531.25,-0.24,-0.69,-1.18,-204.47
24730,786.49,765.44,754.26,752.64,764.71,-38.09,-881.84,528.81,-1.95,-1.58,-1.30,-204.73
24761,786.55,765.44,754.26,752.62,764.72,-24.90,-865.23,529.30,-0.19,-0.77,2.11,-204.49
24793,786.70,765.37,754.15,752.68,764.72,-38.09,-866.70,530.27,-0.98,0.64,0.89,-208.15
24824,786.76,765.36,754.24,752.67,764.76,-37.60,-867.19,530.27,1.11,0.83,0.85,-205.78
24855,786.73,765.35,754.30,752.74,764.78,-31.74,-871.58,527.34,-1.02,-2.92,-3.08,-205.20
24886,786.76,765.41,754.27,752.80,764.81,-50.29,-867.19,539.55,1.54,1.31,-0.92,-207.42
24917,786.69,765.40,754.23,752.88,764.80,-33.20,-875.49,530.27,-0.27,0.54,1.22,-209.34
24949,786.79,765.39,754.26,752.94,764.85,-34.18,-877.93,529.30,1.77,0.62,1.79,-209.84
24980,786.65,765.57,754.13,753.05,764.85,-35.64,-885.74,521.48,0.28,3.15,0.60,-215.41
25012,786.57,765.74,754.19,753.13,764.91,-31.25,-875.00,526.37,-0.43,-0.38,-1.30,-216.25
25043,786.42,765.80,754.21,753.21,764.91,-38.57,-861.33,537.60,1.54,1.49,1.39,-216.90
25074,786.23,765.80,754.25,753.20,764.87,-31.74,-870.12,536.62,-1.27,-1.08,-0.44,-215.22
25106,786.25,765.85,754.32,753.14,764.89,-31.74,-879.88,523.93,0.02,-1.79,-0.58,-213.07
25137,786.34,765.92,754.28,753.08,764.91,-33.20,-898.44,530.27,-2.67,-1.03,0.25,-213.89
25169,786.51,765.82,754.25,752.98,764.89,-40.04,-887.70,525.39,-0.68,0.36,-0.38,-212.94
25200,786.64,765.74,754.19,752.98,764.89,-37.60,-890.62,538.09,-0.65,-1.05,-1.55,-214.35
25232,786.65,765.69,754.28,753.11,764.93,-26.37,-879.39,535.16,-0.21,-0.52,-0.07,-213.60
25264,786.57,765.73,754.17,753.06,764.88,-48.83,-855.96,527.34,-2.17,1.88,0.98,-215.75
25296,786.44,765.70,754.20,753.05,764.85,-39.06,-873.54,532.23,-0.90,-0.91,1.48,-214.08
25327,786.49,765.75,754.20,753.09,764.88,-42.48,-879.88,527.83,0.40,-2.29,-2.11,-215.17
25359,786.51,765.78,754.23,753.22,764.93,-42.97,-879.88,528.81,0.52,1.12,2.70,-216.68
25391,786.44,765.87,754.23,753.20,764.94,-36.13,-877.93,531.25,-1.24,1.80,-1.19,-216.86
25422,786.29,766.00,754.28,753.38,764.99,-29.79,-863.77,522.95,-1.91,-1.05,-1.31,-218.83
25454,786.00,766.02,754.16,753.29,764.87,-44.92,-870.12,526.37,1.50,-1.79,0.64,-219.67
25486,785.74,766.05,754.19,753.31,764.82,-21.97,-874.51,527.34,0.72,1.11,-0.51,-218.58
25518,785.58,766.01,754.34,753.29,764.80,-26.86,-879.39,528.32,0.97,0.92,1.08,-213.61
25549,785.55,766.02,754.26,753.26,764.77,-49.80,-871.58,541.02,0.16,0.91,1.23,-215.34
25581,785.51,766.01,754.25,753.16,764.73,-40.53,-876.95,530.27,-1.61,1.32,-1.05,-213.63
25614,785.58,765.96,754.28,753.15,764.74,-41.50,-882.32,534.18,-1.26,-1.88,0.61,-212.80
25646,785.62,765.86,754.28,753.06,764.70,-48.83,-871.09,535.64,1.00,0.45,-1.28,-210.86
25678,785.68,765.86,754.29,753.06,764.72,-40.53,-884.77,526.86,1.51,2.02,-2.05,-210.74
25710,785.83,765.81,754.28,753.08,764.75,-40.04,-870.61,542.97,-0.57,-0.75,-2.03,-211.32
25741,785.80,765.84,754.29,753.08,764.75,-25.39,-870.61,529.79,0.53,-0.15,0.73,-211.42
25773,785.76,765.85,754.26,753.00,764.72,-37.60,-880.86,533.69,0.15,0.76,-0.64,-210.80
25805,785.59,765.94,754.27,753.08,764.72,-41.99,-872.56,536.62,0.55,-0.49,-0.30,-211.90
25837,785.43,765.96,754.32,753.13,764.71,-37.60,-870.12,530.27,-0.72,1.85,1.17,-210.93
25868,785.31,766.05,754.33,753.24,764.73,-34.18,-876.46,517.58,-0.34,-0.54,0.73,-212.47
25900,785.17,766.16,754.36,753.23,764.73,-37.11,-880.86,534.67,1.11,2.50,-3.50,-212.08
25932,785.03,766.26,754.30,753.23,764.71,-26.86,-868.16,535.64,0.79,1.04,-1.92,-213.98
25963,784.85,766.21,754.35,753.28,764.67,-37.11,-889.16,526.86,-0.35,0.93,-1.14,-212.44
25995,784.76,766.25,754.29,753.24,764.64,-33.20,-876.46,525.88,1.98,-0.24,-0.73,-213.18
26027,784.71,766.26,754.31,753.23,764.63,-38.57,-885.25,531.74,2.14,-0.26,-1.00,-212.72
26059,784.71,766.10,754.32,753.13,764.57,-31.25,-873.05,525.88,0.88,1.04,-2.04,-209.59
26090,784.77,766.10,754.26,753.14,764.57,-41.50,-884.28,537.60,-0.30,1.07,-1.47,-211.45
26122,784.97,766.08,754.30,753.04,764.60,-37.11,-876.46,534.18,0.69,-1.32,0.24,-209.44
26154,785.16,765.94,754.28,753.06,764.61,-44.92,-870.12,525.88,0.37,1.08,-1.44,-209.83
26185,785.21,766.02,754.26,753.07,764.64,-37.60,-875.00,535.64,0.89,-2.54,0.40,-211.19
26217,785.24,765.93,754.30,753.01,764.62,-34.18,-895.51,534.18,-0.06,-0.01,0.13,-208.74
26249,785.22,765.94,754.37,753.02,764.64,-27.83,-863.77,527.83,-1.15,0.51,0.43,-207.11
26280,785.30,765.94,754.28,753.08,764.65,-39.06,-880.86,534.18,1.13,0.87,-2.07,-210.61
26311,785.37,766.05,754.21,753.03,764.67,-45.41,-877.93,524.41,-1.34,-1.65,-1.16,-212.62
26342,785.50,766.02,754.23,753.06,764.70,-30.76,-875.98,528.32,0.96,4.19,0.66,-212.92
26374,785.69,766.02,754.27,753.03,764.75,-34.18,-869.14,526.86,-1.68,0.56,1.89,-211.95
26405,785.84,766.03,754.23,752.99,764.77,-41.99,-870.61,536.62,-0.77,-0.63,1.85,-212.93
26437,786.00,766.09,754.29,753.02,764.85,-51.76,-878.42,530.76,-2.54,0.88,-1.24,-213.08
26468,785.94,765.96,754.30,752.98,764.80,-40.53,-877.93,537.60,0.90,-0.55,1.15,-210.99
26501,785.97,765.92,754.27,753.00,764.79,-37.11,-883.30,525.88,0.66,0.08,-3.24,-211.95
26532,786.20,765.93,754.21,753.01,764.84,-38.57,-874.51,522.46,-2.37,-0.90,0.50,-214.27
26564,786.50,765.84,754.24,752.98,764.89,-22.95,-881.84,532.23,-2.24,-3.38,-2.13,-213.46
26595,786.60,765.68,754.21,752.89,764.85,-45.90,-882.32,517.58,-1.67,-0.54,0.75,-211.90
26627,786.64,765.64,754.18,752.80,764.82,-36.62,-870.12,521.48,-1.07,0.22,-0.44,-211.29
26658,787.16,765.49,754.16,752.84,764.91,-29.30,-880.37,527.83,-0.53,-2.15,2.11,-212.84
26690,787.39,765.28,754.10,752.67,764.86,-26.37,-884.77,532.71,0.50,0.55,0.56,-210.90
26722,787.07,765.02,754.15,752.66,764.73,-42.48,-867.68,532.71,-1.74,0.48,-0.87,-206.44
26754,786.83,764.95,754.23,752.75,764.69,-27.34,-877.93,536.62,0.05,-0.48,-1.18,-204.18
26785,787.29,764.88,754.18,752.82,764.79,-30.27,-876.95,526.86,3.26,0.73,-0.25,-207.62
26817,787.59,764.76,754.22,752.83,764.85,-33.20,-877.44,529.30,-2.39,0.53,-0.27,-206.76
26849,787.36,764.67,754.16,752.78,764.74,-39.55,-880.37,537.11,-0.06,0.97,2.53,-206.17
26880,787.45,764.60,754.12,752.81,764.75,-22.46,-874.51,531.74,0.34,0.66,0.65,-207.11
26912,787.72,764.67,754.14,752.79,764.83,-28.32,-868.16,529.79,2.14,-0.91,2.39,-207.95
26944,787.55,764.62,754.12,752.79,764.77,-36.62,-871.09,527.34,-1.51,1.29,-0.89,-207.52
26976,787.73,764.64,754.15,752.98,764.88,-35.64,-861.33,524.41,0.50,-1.74,0.72,-210.21
27007,788.35,764.73,754.14,752.99,765.05,-41.99,-875.00,526.37,0.05,0.43,-3.60,-213.33
27039,788.46,764.72,754.06,752.86,765.02,-48.83,-885.25,525.39,0.76,-0.13,1.56,-213.83
27071,787.80,764.62,754.07,752.93,764.86,-33.20,-878.42,520.02,-2.18,-0.03,0.25,-211.53
27103,787.69,764.68,754.17,753.07,764.90,-34.18,-875.98,522.46,0.20,1.45,0.01,-211.32
27134,787.64,764.79,754.12,753.15,764.92,-22.46,-883.79,527.34,0.22,0.99,-0.27,-214.53
27166,788.29,764.94,754.11,753.26,765.15,-29.30,-871.09,520.51,-0.82,-0.98,-1.59,-219.72
27198,788.11,764.86,754.15,753.14,765.07,-42.97,-879.88,537.11,0.31,-1.08,-0.44,-215.83
27229,787.47,764.77,754.16,753.08,764.87,-25.39,-868.65,524.41,-0.37,1.05,-0.92,-211.51
27261,787.24,764.78,754.22,753.11,764.84,-52.25,-879.88,531.25,-0.20,-1.54,-0.47,-209.85
27293,787.47,764.88,754.15,753.31,764.95,-44.43,-883.30,532.71,1.46,0.18,0.92,-216.08
27325,787.98,764.96,754.21,753.28,765.11,-36.13,-870.61,541.02,-0.50,1.92,-0.76,-216.53
27358,787.71,764.87,754.10,753.19,764.97,-29.79,-859.86,535.64,0.19,-1.76,-1.97,-216.34
27390,787.25,765.00,754.21,753.17,764.90,-34.67,-865.23,522.95,-1.14,-0.76,-0.45,-212.69
27421,786.60,765.06,754.28,753.33,764.82,-37.11,-880.86,529.30,-0.05,0.80,1.08,-211.66
27453,786.19,765.31,754.24,753.61,764.84,-41.50,-873.54,513.18,-0.40,-0.24,-2.48,-217.28
27485,786.97,765.63,754.29,753.73,765.16,-38.57,-873.54,538.57,3.28,0.63,-0.71,-223.21
27517,787.03,765.90,754.28,753.66,765.22,-33.20,-875.98,540.53,-2.22,0.56,-4.31,-224.76
27548,786.44,765.95,754.21,753.56,765.04,-23.93,-865.72,525.88,0.31,1.06,1.23,-223.50
27580,785.23,766.09,754.32,753.54,764.79,-50.78,-861.82,530.27,-2.95,1.49,-2.31,-217.40
27612,784.10,766.22,754.38,753.62,764.58,-37.60,-869.14,532.71,0.33,-2.44,0.31,-214.18
27643,783.98,766.52,754.41,753.90,764.70,-34.67,-880.86,519.53,2.69,-2.58,-2.47,-219.64
27675,784.86,766.86,754.45,753.92,765.03,-40.04,-866.21,515.62,3.30,0.86,-1.53,-224.65
27707,784.48,766.82,754.50,753.69,764.87,-42.97,-888.18,520.02,-1.25,1.69,-0.26,-218.34
27738,783.60,766.84,754.43,753.49,764.59,-32.71,-877.93,520.02,-1.84,-0.95,0.32,-214.25
27769,783.68,767.07,754.47,753.67,764.72,-43.95,-864.26,520.02,0.64,-2.49,-2.79,-218.01
27800,784.08,767.05,754.47,753.43,764.76,-45.90,-875.49,533.20,-1.01,-0.35,-2.06,-215.57
27832,783.67,767.03,754.45,753.34,764.62,-28.32,-873.54,545.41,-0.94,0.87,2.69,-213.33
27863,783.32,766.96,754.36,753.27,764.48,-39.55,-873.54,529.30,-0.03,1.08,0.19,-212.77
27894,783.10,767.03,754.34,753.37,764.46,-36.62,-875.49,530.27,0.33,-2.09,-0.73,-214.48
27926,784.12,767.18,754.44,753.46,764.80,-40.04,-877.44,533.69,3.25,-2.13,-0.35,-218.09
27957,784.70,767.11,754.38,753.24,764.86,-39.55,-873.05,541.02,-1.11,-0.63,0.50,-217.71
27989,783.83,766.92,754.40,753.10,764.56,-42.97,-866.70,533.20,-3.53,1.81,2.50,-210.60
28020,783.30,766.91,754.45,753.11,764.44,-36.62,-869.63,530.76,-1.41,1.82,-1.41,-207.57
28051,783.17,767.02,754.36,753.07,764.41,-26.86,-883.30,535.16,0.28,0.48,-1.01,-209.69
28083,783.47,766.95,754.45,753.11,764.50,-35.16,-870.12,543.46,-0.54,0.02,0.71,-208.57
28114,784.13,766.81,754.45,753.17,764.64,-38.57,-878.91,533.20,2.44,-0.16,-0.37,-210.71
28146,785.05,766.74,754.38,752.99,764.79,-40.04,-877.93,537.60,0.01,-1.17,0.36,-212.36
28178,784.98,766.48,754.41,752.63,764.63,-30.27,-882.81,530.76,-1.85,1.19,0.27,-203.84
28210,784.42,766.29,754.40,752.68,764.45,-27.83,-885.74,530.76,-0.98,0.92,-1.53,-201.51
28243,784.38,766.19,754.42,752.69,764.42,-33.20,-877.44,528.81,-2.41,2.29,-0.02,-200.32
28275,785.15,766.23,754.34,752.81,764.63,-28.81,-878.42,524.41,1.19,-0.78,1.11,-206.92
28307,785.72,766.18,754.39,752.73,764.75,-30.27,-885.25,539.06,-0.68,-1.39,0.82,-206.03
28338,785.56,766.02,754.28,752.75,764.65,-39.06,-862.30,531.25,-0.14,-0.58,-0.82,-207.16
28370,785.20,765.88,754.32,752.73,764.53,-30.76,-878.42,528.81,-0.27,-0.45,-0.12,-203.57
28402,785.60,765.97,754.23,752.84,764.66,-33.20,-879.88,518.55,1.90,1.16,0.09,-209.67
28433,786.26,765.88,754.28,752.78,764.80,-33.69,-879.88,534.67,0.21,0.89,3.76,-208.97
28465,786.04,765.71,754.26,752.71,764.68,-38.09,-873.05,528.81,-0.20,-0.50,2.36,-206.22
28497,785.71,765.58,754.31,752.69,764.57,-31.74,-867.19,530.76,-0.50,1.71,-0.36,-202.65
28529,785.86,765.62,754.28,752.74,764.62,-40.04,-874.51,521.48,-0.26,1.34,1.44,-204.80
28560,786.72,765.67,754.30,752.83,764.88,-42.97,-869.14,532.71,-0.48,-0.90,-0.24,-208.97
28592,786.56,765.65,754.31,752.79,764.83,-35.16,-871.09,510.74,-0.96,-0.38,-1.79,-207.63
28624,786.38,765.62,754.25,752.90,764.79,-39.55,-871.58,524.90,-0.87,-0.37,-0.16,-209.81
28655,786.59,765.73,754.34,753.02,764.92,-33.20,-880.37,529.30,1.37,-1.50,-2.98,-211.00
28687,786.43,765.79,754.29,753.01,764.88,-40.53,-869.14,521.48,1.32,-1.05,-1.11,-211.86
28719,786.15,765.71,754.32,753.00,764.80,-28.81,-865.23,519.53,1.02,-0.47,-2.05,-209.49
28751,786.40,765.85,754.23,753.10,764.89,-28.32,-865.23,535.64,0.48,-0.50,-1.06,-215.23
28782,786.99,765.80,754.29,753.08,765.04,-32.23,-879.39,525.88,-1.13,-1.40,0.74,-215.05
28814,786.74,765.66,754.34,752.98,764.93,-44.92,-871.58,513.67,-0.72,1.15,-0.63,-210.20
28845,786.52,765.66,754.30,752.84,764.83,-36.62,-872.56,524.90,1.10,0.73,-1.28,-208.43
28877,786.46,765.54,754.27,752.95,764.80,-38.09,-882.81,533.20,0.03,2.59,-1.66,-209.66
28909,787.14,765.53,754.32,752.98,764.99,-34.18,-880.37,527.83,0.24,1.04,-1.36,-210.97
28941,787.72,765.58,754.35,752.91,765.14,-34.18,-873.54,525.39,-0.72,-0.47,-1.85,-211.87
28972,787.56,765.46,754.26,752.83,765.03,-30.76,-877.44,540.04,-0.37,-1.22,-1.63,-211.40
29004,787.18,765.41,754.29,752.92,764.95,-30.27,-875.49,530.76,-0.29,-2.01,-0.05,-210.34
29036,786.94,765.43,754.26,752.96,764.90,-44.92,-875.49,540.53,-0.20,-0.31,2.02,-210.94
29067,786.54,765.57,754.25,753.17,764.88,-34.18,-873.05,532.23,-0.46,-0.37,-2.09,-213.96
29101,787.24,765.96,754.28,753.44,765.23,-32.23,-876.46,524.41,2.16,-1.91,0.15,-222.63
29133,787.54,766.18,754.31,753.45,765.37,-32.71,-895.51,535.16,1.27,-0.18,-0.82,-224.75
29164,786.55,766.28,754.30,753.51,765.16,-27.83,-863.28,537.60,-1.27,0.20,-3.06,-223.46
29196,785.37,766.46,754.33,753.65,764.95,-42.48,-865.23,531.25,-1.25,1.55,1.34,-222.22
29227,784.50,766.78,754.46,753.86,764.90,-35.16,-879.39,533.20,0.50,-0.27,-1.56,-221.52
29258,784.20,767.09,754.48,754.14,764.98,-23.93,-870.61,517.09,0.02,-2.47,0.43,-226.48
29289,784.79,767.61,754.53,754.33,765.31,-41.50,-875.49,533.20,1.11,0.81,-0.51,-234.36
29320,784.31,767.86,754.54,754.27,765.25,-43.46,-875.49,534.18,-3.02,2.90,-1.68,-233.69
29351,783.02,768.14,754.62,754.28,765.02,-46.39,-870.61,535.16,-1.13,-2.05,-1.41,-229.57
29383,781.73,768.47,754.63,754.26,764.77,-39.06,-865.72,521.97,-2.14,1.65,0.03,-227.31
29415,780.94,768.55,754.63,754.26,764.60,-27.83,-858.40,523.44,0.79,-3.47,-1.99,-225.15
29446,781.52,768.78,754.66,754.28,764.81,-29.79,-880.37,523.93,3.18,-0.28,-0.92,-228.52
29477,782.28,768.87,754.71,754.02,764.97,-41.02,-873.54,542.48,1.07,-1.34,-1.72,-226.92
29509,782.01,768.61,754.68,753.72,764.76,-43.46,-876.95,531.74,-0.41,-1.71,-0.44,-220.30
29540,781.50,768.52,754.58,753.49,764.52,-23.44,-875.49,534.67,-2.36,-1.34,0.39,-216.74
29572,781.25,768.47,754.59,753.36,764.41,-28.32,-864.26,534.18,0.73,-0.60,-2.10,-213.24
29603,781.69,768.46,754.63,753.40,764.55,-33.20,-872.07,521.48,1.45,-0.40,-2.76,-214.54
29635,782.85,768.38,754.59,753.21,764.76,-27.83,-883.79,526.86,2.37,-0.79,-1.06,-215.97
29667,783.13,768.17,754.58,753.00,764.72,-39.06,-866.21,541.99,0.70,0.60,0.14,-212.34
29699,782.70,767.99,754.64,752.81,764.54,-37.60,-878.42,541.02,-2.08,0.30,0.09,-205.24
29730,782.43,767.82,754.54,752.82,764.40,-44.92,-854.98,521.97,-1.95,1.11,0.56,-205.42
29762,782.66,767.70,754.47,752.79,764.40,-28.32,-871.58,535.64,1.33,-2.54,-1.20,-206.44
29794,783.17,767.52,754.52,752.79,764.50,-41.50,-875.00,521.00,2.40,-0.64,1.67,-205.76
29825,784.44,767.55,754.46,752.75,764.80,-39.55,-889.16,524.41,2.92,1.82,1.97,-211.03
29857,784.84,767.25,754.48,752.61,764.80,-35.64,-876.95,538.09,-3.01,-0.05,0.28,-207.53
29889,784.41,767.12,754.47,752.45,764.61,-32.23,-867.19,534.18,-2.10,2.28,0.37,-202.99
29921,783.89,766.91,754.47,752.56,764.46,-32.23,-892.09,537.11,-0.21,-4.96,1.58,-201.29
29952,783.96,766.88,754.49,752.62,764.49,-45.90,-871.09,522.95,2.01,-1.50,-0.31,-201.63
29986,784.52,766.80,754.44,752.71,764.62,-40.04,-872.56,548.34,2.60,-1.48,-0.82,-205.39
30017,785.39,766.69,754.49,752.67,764.81,-27.83,-875.49,545.41,0.33,1.78,1.08,-205.50
30049,785.26,766.45,754.44,752.51,764.66,-35.16,-866.21,535.64,-0.34,0.23,-1.94,-202.26
30081,784.46,766.32,754.44,752.47,764.42,-29.79,-882.32,524.41,-1.72,0.08,-1.19,-197.75
30113,784.01,766.21,754.36,752.54,764.28,-36.62,-872.56,524.90,0.47,0.88,-0.24,-198.46
30144,784.32,766.20,754.35,752.71,764.40,-26.37,-869.14,527.34,3.01,0.15,0.98,-202.05
30176,784.16,766.10,754.35,752.66,764.32,-25.39,-876.95,537.60,-0.41,0.18,0.69,-200.11
30208,784.83,766.18,754.42,752.88,764.58,-33.20,-868.65,519.53,0.82,-0.90,-1.85,-204.35
30240,787.05,766.38,754.40,753.07,765.22,-29.79,-878.91,521.48,3.58,-0.95,0.42,-216.89
30271,787.97,766.22,754.32,752.59,765.27,-39.55,-871.58,539.06,-2.42,1.55,-2.10,-213.87
30303,785.80,765.88,754.37,752.27,764.58,-40.53,-852.54,542.48,-6.41,3.27,-1.38,-197.60
30335,784.63,765.97,754.33,752.53,764.36,-44.43,-887.70,514.16,-2.05,-2.44,0.79,-199.22
30366,784.75,766.25,754.38,752.93,764.58,-30.76,-877.93,518.55,-1.63,-0.27,-1.96,-206.42
30398,784.71,766.36,754.34,753.19,764.65,-50.29,-872.56,525.88,-0.47,-1.08,-0.75,-212.07
30430,785.23,766.57,754.35,753.47,764.90,-34.18,-879.39,525.39,2.75,0.95,-2.42,-219.30
30462,785.85,766.65,754.41,753.28,765.05,-32.71,-870.12,538.57,0.31,0.83,-0.89,-217.98
30493,785.35,766.56,754.37,753.07,764.84,-33.69,-877.44,531.25,-1.70,1.45,2.45,-213.38
30525,784.61,766.48,754.36,753.00,764.61,-24.41,-880.86,534.18,-3.58,-2.05,-0.78,-209.26
30557,784.30,766.41,754.44,753.01,764.54,-37.11,-878.91,525.39,-0.73,-1.61,0.95,-205.86
30588,784.30,766.27,754.43,753.08,764.52,-30.76,-887.21,529.79,0.06,0.63,0.32,-206.05
30620,785.22,766.36,754.38,753.14,764.78,-30.76,-858.89,528.32,0.37,1.47,-2.11,-211.94
30651,786.73,766.43,754.31,752.92,765.10,-32.23,-874.02,538.09,0.22,1.03,-0.79,-216.27
30682,786.62,766.19,754.35,752.71,764.97,-31.25,-872.56,528.32,-2.62,-0.02,-0.31,-209.89
30714,785.49,766.07,754.31,752.65,764.63,-41.50,-877.44,519.53,-3.70,3.00,-1.13,-205.11
30745,784.82,766.05,754.41,752.77,764.51,-31.25,-887.21,526.37,-0.66,1.16,0.92,-201.92
30776,784.79,766.02,754.39,752.89,764.52,-54.69,-871.09,541.99,-0.54,-1.34,-0.20,-203.98
30807,785.21,766.08,754.34,752.98,764.65,-43.95,-873.54,528.32,-0.14,-0.95,-1.09,-208.28
30841,785.78,766.20,754.27,753.22,764.87,-30.76,-864.26,536.13,-1.02,0.04,0.74,-216.63
30872,786.75,766.28,754.32,753.12,765.12,-41.02,-882.32,531.74,-1.15,1.39,-2.29,-217.84
30903,785.96,766.17,754.33,752.96,764.86,-43.95,-864.75,517.58,-4.33,3.53,-0.97,-211.76
30935,784.94,766.16,754.41,753.06,764.64,-31.25,-877.93,522.95,-1.97,0.86,-1.94,-207.53
30966,784.53,766.23,754.36,753.19,764.58,-57.13,-880.86,532.71,-0.70,-0.37,-0.98,-209.97
30998,784.67,766.41,754.42,753.38,764.72,-37.11,-873.54,534.18,1.81,-1.33,0.27,-212.98
31029,785.12,766.60,754.35,753.47,764.88,-24.41,-868.65,532.23,-0.92,-0.54,-0.58,-219.20
31061,785.16,766.72,754.34,753.50,764.93,-37.60,-867.19,527.34,-1.34,1.92,0.82,-220.93
31092,785.12,766.84,754.47,753.52,764.99,-41.02,-867.19,526.37,0.55,1.20,-1.34,-218.88
31124,784.73,766.94,754.46,753.57,764.92,-46.88,-888.18,533.20,0.98,-0.77,-4.89,-219.22
31156,783.89,767.12,754.51,753.66,764.80,-39.06,-875.00,527.83,0.76,2.08,-0.26,-217.91
31188,783.25,767.31,754.49,753.76,764.70,-42.48,-870.61,533.69,-0.23,2.57,-1.12,-219.22
31219,783.05,767.55,754.52,753.85,764.74,-41.99,-870.61,540.04,-0.06,2.37,-0.73,-221.19
31251,783.30,767.72,754.60,753.87,764.87,-29.79,-867.68,521.00,1.74,-1.49,-0.44,-221.50
31283,783.60,767.81,754.58,753.87,764.96,-30.76,-872.07,529.79,1.80,-1.73,0.43,-223.84
31315,783.35,767.80,754.60,753.64,764.85,-38.09,-875.98,525.88,-2.24,1.47,0.15,-218.91
31346,782.86,767.73,754.61,753.50,764.67,-37.11,-854.98,541.02,-0.73,0.99,-2.10,-214.40
31378,782.48,767.73,754.57,753.53,764.58,-42.97,-871.58,540.04,-1.53,-1.56,-1.04,-214.75
31410,782.53,767.83,754.59,753.47,764.61,-29.30,-859.86,527.83,0.60,1.60,-1.06,-214.17
31442,783.14,767.94,754.60,753.42,764.77,-33.20,-885.25,537.11,1.06,-0.21,1.77,-216.28
31473,783.26,767.94,754.62,753.33,764.79,-23.93,-871.58,535.16,-0.12,2.33,0.08,-214.84
31505,782.69,767.82,754.53,753.24,764.57,-21.97,-862.30,523.44,-2.83,1.75,-0.73,-212.85
31537,782.12,767.89,754.62,753.28,764.48,-37.60,-871.09,522.95,-1.75,-1.76,-1.07,-209.95
31568,781.92,767.98,754.60,753.32,764.46,-34.18,-876.95,527.83,-0.35,-1.30,-0.20,-210.85
31600,782.20,767.93,754.62,753.30,764.51,-42.97,-880.37,524.90,1.16,-1.50,-1.01,-210.71
31632,782.65,767.93,754.55,753.29,764.61,-22.95,-875.00,533.20,0.18,0.64,1.68,-213.74
31664,782.79,767.86,754.69,753.19,764.64,-38.57,-884.28,535.16,0.23,0.39,-3.19,-208.72
31695,782.76,767.84,754.60,753.06,764.56,-41.99,-869.63,526.86,-0.43,0.55,0.66,-208.77
31729,782.60,767.81,754.61,753.07,764.52,-36.62,-879.39,526.37,0.04,-1.41,0.45,-207.97
31760,782.61,767.82,754.53,753.05,764.50,-34.18,-869.14,517.09,1.32,-2.70,-1.78,-209.91
31792,782.73,767.86,754.62,753.10,764.58,-35.16,-873.54,528.32,0.21,-2.76,-0.14,-209.07
31824,782.78,767.91,754.54,753.10,764.58,-36.13,-875.98,536.62,-0.63,1.17,-1.11,-211.62
31856,782.76,767.88,754.54,753.06,764.56,-27.34,-877.44,536.62,1.38,-2.53,1.92,-210.67
31887,782.63,767.83,754.59,753.04,764.52,-50.78,-895.02,538.57,-0.05,0.77,0.82,-208.14
31919,782.68,767.75,754.59,753.08,764.53,-37.11,-871.58,521.48,-0.08,0.90,2.54,-208.48
31951,782.78,767.83,754.56,753.05,764.55,-30.76,-870.12,536.62,-1.60,-1.95,-1.29,-209.66
31983,782.98,767.78,754.56,753.05,764.59,-41.02,-886.23,524.90,-0.12,0.01,-0.53,-210.02
32014,782.86,767.77,754.56,753.00,764.55,-30.76,-872.07,532.23,-0.01,0.36,-1.29,-208.78
32046,782.92,767.66,754.50,752.93,764.50,-47.85,-875.00,532.71,-0.28,-0.88,-2.63,-208.39
32078,782.86,767.53,754.55,752.91,764.46,-34.67,-868.65,533.20,0.69,-2.50,3.72,-205.73
32109,783.01,767.56,754.60,752.99,764.54,-38.09,-868.65,521.48,-1.21,0.48,-0.77,-206.35
32140,783.19,767.51,754.56,752.84,764.53,-30.76,-883.79,539.55,1.11,1.11,-2.05,-205.48
32171,783.26,767.40,754.54,752.92,764.53,-29.30,-886.72,541.50,0.05,-0.82,-1.17,-206.44
32202,783.46,767.33,754.53,752.85,764.54,-38.09,-878.42,538.57,-0.71,1.55,-0.62,-205.92
32234,783.56,767.25,754.52,752.76,764.52,-35.16,-876.95,536.13,0.46,0.48,1.06,-204.44
32265,783.75,767.21,754.55,752.78,764.57,-40.04,-882.32,530.76,-0.76,-0.45,-0.77,-204.13
32297,783.94,767.12,754.53,752.79,764.59,-37.60,-864.26,526.86,1.61,0.44,-0.04,-204.88
32328,783.95,767.04,754.53,752.84,764.59,-41.02,-873.54,533.69,0.05,0.87,-2.88,-205.07
32359,784.01,767.00,754.44,752.87,764.58,-40.53,-876.95,541.50,-1.98,-0.10,1.58,-207.57
32391,783.99,767.12,754.43,752.94,764.62,-36.62,-876.95,541.99,-0.08,1.70,-2.14,-209.58
32422,783.95,767.17,754.53,752.95,764.65,-36.62,-875.00,531.25,-3.31,-0.52,2.81,-207.79
32454,783.80,767.17,754.51,752.94,764.60,-37.11,-871.09,529.79,-1.43,0.50,1.06,-207.47
32485,783.60,767.16,754.52,753.09,764.59,-26.86,-873.54,522.95,1.09,1.53,0.28,-208.51
32517,783.52,767.33,754.51,753.11,764.62,-34.18,-885.25,526.37,0.18,1.24,-0.67,-210.36
32548,783.45,767.38,754.60,753.15,764.64,-26.37,-875.49,529.79,-0.15,-2.16,-1.60,-208.92
32582,783.33,767.39,754.47,753.16,764.59,-31.74,-880.86,523.93,1.05,-1.31,2.25,-211.68
32614,783.18,767.42,754.54,753.26,764.60,-39.55,-871.09,533.69,-0.11,1.70,1.63,-211.35
32645,783.13,767.44,754.52,753.24,764.58,-32.23,-873.54,525.88,0.60,-1.18,-1.69,-211.49
32677,783.05,767.59,754.57,753.20,764.60,-45.90,-879.39,536.62,0.03,0.02,-1.28,-210.77
32709,782.92,767.62,754.57,753.23,764.59,-22.46,-884.28,526.86,0.11,-0.53,-0.94,-210.86
32740,782.85,767.63,754.56,753.29,764.58,-41.99,-875.49,537.11,-1.00,0.85,0.48,-211.90
32772,782.70,767.65,754.56,753.27,764.54,-27.83,-865.72,536.13,0.08,0.29,0.85,-211.25
32804,782.69,767.66,754.54,753.16,764.51,-21.97,-870.61,528.81,1.18,1.05,-0.37,-210.13
32836,782.62,767.71,754.58,753.21,764.53,-24.41,-877.93,524.90,-1.61,-1.96,1.20,-210.04
32867,782.59,767.57,754.55,753.12,764.46,-36.13,-870.12,538.09,-0.02,2.08,-0.21,-208.23
32899,782.58,767.49,754.55,753.17,764.45,-35.16,-874.02,527.34,1.88,1.26,0.55,-208.16
32931,782.52,767.45,754.56,753.15,764.42,-26.37,-870.61,525.39,-0.26,0.00,-2.03,-207.19
32963,782.40,767.47,754.60,753.10,764.39,-35.64,-875.00,534.67,0.58,0.52,2.96,-205.29
32994,782.40,767.41,754.56,753.21,764.40,-40.53,-879.88,539.55,-1.34,-0.05,0.17,-207.48
33026,782.38,767.50,754.53,753.18,764.39,-31.25,-870.61,538.09,-0.28,0.27,2.31,-208.35
33058,782.56,767.42,754.58,753.23,764.45,-31.25,-866.21,525.88,0.98,-0.54,-1.89,-207.76
33090,782.69,767.42,754.56,753.18,764.47,-33.69,-870.12,530.76,0.53,-0.64,-3.31,-208.00
33121,782.81,767.32,754.56,753.05,764.44,-31.74,-888.18,527.34,-2.18,-0.24,-1.83,-205.54
33153,783.03,767.29,754.55,752.92,764.45,-38.09,-869.63,527.83,-0.68,-0.42,0.40,-204.44
33185,783.09,767.24,754.62,752.87,764.46,-33.69,-866.70,540.53,-0.11,-0.81,-1.13,-201.83
33217,783.35,767.29,754.50,752.87,764.50,-45.41,-875.49,536.13,-0.98,-0.61,-1.76,-206.14
33248,783.68,767.27,754.53,752.87,764.59,-37.11,-886.23,525.88,0.82,0.69,0.12,-206.29
33280,783.91,767.33,754.49,752.81,764.63,-36.62,-870.61,526.37,-0.53,-0.89,0.93,-207.72
33312,784.21,767.36,754.53,752.82,764.73,-30.27,-879.88,531.74,-0.23,0.04,-0.47,-208.28
33344,784.39,767.40,754.51,752.86,764.79,-21.48,-872.07,520.02,-1.03,0.72,-0.04,-210.16
33375,784.47,767.37,754.52,752.85,764.80,-24.41,-873.54,539.06,0.42,0.61,1.17,-209.80
33407,784.48,767.43,754.47,752.91,764.82,-27.83,-870.12,521.00,-1.15,1.30,0.76,-212.54
33439,784.41,767.44,754.56,752.94,764.84,-46.88,-883.30,534.18,-0.70,0.79,-2.65,-210.43
33472,784.16,767.51,754.56,752.93,764.79,-36.13,-875.00,545.90,-1.66,-0.53,0.92,-209.99
33504,784.03,767.59,754.55,753.03,764.80,-30.27,-872.07,527.83,1.73,-1.90,0.13,-212.04
33536,783.97,767.70,754.54,753.05,764.82,-28.81,-875.98,537.11,-0.76,0.82,0.31,-213.29
33568,783.85,767.71,754.67,753.11,764.83,-38.09,-875.00,519.04,-1.54,1.69,-0.83,-210.49
33599,783.67,767.86,754.53,753.27,764.83,-19.53,-863.28,532.71,-2.71,-0.24,0.94,-216.89
33630,783.54,767.92,754.59,753.25,764.82,-34.18,-879.88,524.41,-0.50,1.28,-1.74,-215.29
33661,783.49,767.91,754.57,753.32,764.83,-30.27,-883.79,526.37,2.68,0.15,0.06,-216.44
33692,783.42,767.83,754.61,753.27,764.78,-32.71,-870.61,538.57,-2.01,-1.75,-0.95,-213.93
33724,783.32,767.89,754.63,753.23,764.77,-27.83,-879.39,525.39,1.54,-0.06,-0.12,-212.74
33756,783.42,767.95,754.59,753.17,764.78,-32.23,-874.51,538.09,-0.72,-0.18,0.83,-213.86
33787,783.36,767.84,754.57,753.15,764.73,-35.64,-869.14,542.48,0.69,-2.37,1.28,-212.97
33818,783.41,767.81,754.59,753.07,764.72,-45.41,-880.86,526.37,-1.97,-1.06,-2.18,-211.29
33850,783.63,767.61,754.66,753.04,764.73,-29.30,-863.77,528.81,0.42,-0.15,-0.42,-208.21
33881,783.82,767.65,754.51,752.82,764.70,-38.09,-874.51,540.53,-1.02,-0.02,-3.04,-209.54
33913,784.14,767.42,754.55,752.90,764.75,-31.74,-871.09,526.37,1.18,0.94,-0.41,-208.92
33944,784.41,767.30,754.54,752.76,764.75,-39.06,-882.32,532.71,-1.21,-0.97,1.32,-207.19
33976,784.61,767.24,754.51,752.83,764.80,-40.04,-872.07,533.69,-0.63,-1.35,0.67,-209.20
34008,784.81,767.21,754.56,752.85,764.86,-38.09,-885.25,524.90,-0.92,-1.45,3.15,-208.65
34039,784.89,767.09,754.51,752.92,764.85,-33.20,-875.98,531.74,0.18,0.50,-0.89,-210.27
34071,784.96,767.07,754.48,752.88,764.85,-20.51,-879.88,529.79,-0.17,0.21,-0.73,-210.60
34103,785.05,766.95,754.48,752.84,764.83,-33.20,-877.93,533.69,-0.05,0.89,-0.02,-209.25
34135,785.18,766.98,754.52,752.90,764.89,-30.27,-874.51,530.27,-0.21,0.00,0.43,-209.67
34166,785.31,767.00,754.51,752.95,764.94,-37.11,-866.21,522.95,0.00,-1.52,0.63,-211.31
34198,785.34,767.01,754.51,752.98,764.96,-23.93,-882.81,536.13,0.69,0.46,0.24,-212.03
34230,785.35,767.01,754.55,752.99,764.97,-41.02,-863.77,524.90,0.09,1.54,-1.92,-211.23
34262,785.35,767.01,754.50,753.01,764.97,-45.90,-875.00,535.64,1.69,-1.21,1.61,-212.64
34293,785.37,767.00,754.47,753.08,764.98,-37.11,-874.02,527.34,1.47,0.83,-2.56,-214.49
34327,785.37,767.04,754.44,753.11,764.99,-38.57,-865.72,528.81,-0.48,1.64,-0.71,-216.06
34359,785.47,766.89,754.53,753.03,764.98,-44.43,-870.61,531.74,-0.01,0.61,0.02,-211.75
34390,785.59,766.82,754.41,752.99,764.95,-19.53,-882.81,531.74,0.35,2.76,-0.83,-213.94
34422,785.73,766.72,754.45,752.98,764.97,-39.06,-867.19,529.79,-0.87,-0.34,-1.47,-212.68
34454,785.83,766.63,754.41,752.92,764.95,-41.99,-868.65,530.27,-0.65,-2.59,-0.93,-212.36
34486,786.07,766.67,754.52,753.01,765.07,-46.88,-875.49,536.62,1.10,-1.11,0.15,-211.92
34517,786.22,766.55,754.46,752.88,765.03,-21.48,-880.37,529.30,-1.68,-1.97,0.27,-211.06
34549,786.21,766.47,754.41,752.84,764.98,-41.50,-874.51,540.04,-1.48,-0.40,-1.41,-211.32
34581,786.18,766.37,754.43,752.82,764.95,-34.67,-870.12,535.16,0.98,0.83,-1.24,-209.45
34613,786.13,766.31,754.40,752.85,764.93,-40.04,-870.61,521.00,-0.20,-0.54,0.76,-210.02
34644,786.08,766.39,754.35,752.94,764.94,-35.64,-866.21,525.39,-1.45,-0.25,-1.24,-212.97
34676,785.95,766.51,754.41,752.99,764.97,-27.83,-875.00,543.46,-1.44,1.36,-1.25,-212.70
34708,785.85,766.54,754.48,753.14,765.00,-47.85,-875.98,529.30,1.80,1.44,-1.37,-213.24
34740,785.87,766.59,754.55,753.20,765.05,-30.76,-877.93,541.02,0.26,-0.07,-2.37,-212.74
34771,785.81,766.75,754.52,753.22,765.08,-36.13,-879.88,535.16,-0.06,-0.47,1.83,-214.89
34803,785.56,766.65,754.43,753.09,764.93,-25.39,-869.14,528.81,1.12,-0.24,-0.21,-213.71
34835,785.45,766.69,754.56,753.08,764.94,-32.71,-891.11,529.79,-0.12,-0.64,0.31,-210.24
34867,785.52,766.71,754.53,753.15,764.98,-33.69,-862.30,525.88,1.39,0.11,-0.66,-212.27
34898,785.72,766.76,754.51,753.16,765.04,-40.53,-867.68,539.06,-0.92,-2.53,-0.92,-214.05
34930,785.42,766.71,754.47,753.19,764.95,-25.39,-882.32,533.69,0.38,0.56,-1.76,-214.19
34962,785.26,766.89,754.47,753.30,764.98,-26.37,-872.56,527.34,-0.54,-1.53,-2.40,-216.54
34994,785.26,766.98,754.44,753.42,765.03,-31.25,-865.72,548.34,0.19,-0.87,-2.84,-219.80
35025,785.02,767.04,754.45,753.34,764.96,-35.16,-876.95,532.71,-2.08,-0.99,1.90,-218.08
35056,784.94,767.14,754.55,753.44,765.02,-41.02,-878.91,536.62,1.78,3.26,-2.38,-217.63
35088,784.90,767.15,754.47,753.40,764.98,-35.16,-875.98,529.79,-0.88,0.18,-3.42,-218.90
35119,784.50,767.21,754.49,753.47,764.91,-29.30,-858.89,524.41,0.48,-1.10,-1.12,-218.49
35150,784.52,767.35,754.51,753.54,764.98,-38.09,-877.93,528.81,0.16,0.82,0.95,-220.38
35181,784.57,767.38,754.53,753.36,764.96,-31.74,-865.23,537.60,-0.54,-0.50,-1.66,-217.62
35214,784.29,767.25,754.50,753.34,764.85,-40.04,-865.23,551.76,-2.62,-1.14,-0.51,-215.96
35246,783.97,767.24,754.60,753.34,764.79,-32.71,-873.54,533.20,-2.73,-1.81,0.31,-212.20
35278,784.47,767.33,754.54,753.37,764.93,-39.55,-872.56,542.97,-1.41,-0.02,0.93,-216.74
35309,784.42,767.32,754.46,753.27,764.87,-41.50,-867.19,536.13,-2.28,1.66,-0.73,-216.85
35340,784.15,767.37,754.61,753.29,764.86,-29.79,-871.58,530.27,-0.41,-1.13,-0.48,-213.14
35372,784.22,767.43,754.59,753.37,764.90,-40.53,-867.68,543.95,0.09,1.62,0.33,-215.46
35403,784.68,767.48,754.55,753.31,765.00,-41.50,-877.44,539.06,0.34,0.83,-1.51,-217.36
35435,784.29,767.49,754.63,753.27,764.92,-26.37,-871.58,547.36,-0.39,2.07,-0.65,-213.53
35467,783.93,767.45,754.56,753.31,764.81,-31.25,-883.30,533.20,-1.37,-0.19,-0.17,-214.43
35498,783.93,767.64,754.61,753.39,764.90,-44.43,-875.98,526.37,2.05,-1.25,-1.59,-215.97
35530,784.63,767.76,754.52,753.37,765.07,-27.34,-870.12,532.23,1.98,-1.06,-0.02,-221.05
35562,784.72,767.74,754.57,753.23,765.07,-41.50,-878.42,535.16,-0.83,-0.62,-0.27,-218.07
35594,784.45,767.73,754.58,753.26,765.00,-31.25,-870.61,530.76,-1.08,2.14,2.85,-217.16
35625,784.59,767.60,754.59,753.16,764.99,-48.34,-888.67,526.37,-0.24,0.74,0.83,-214.85
35657,784.79,767.53,754.50,753.16,764.99,-35.16,-886.23,525.88,0.89,2.41,-0.37,-217.29
35689,785.22,767.56,754.58,753.13,765.12,-35.16,-876.46,537.11,0.73,2.60,0.73,-216.52
35721,785.37,767.58,754.57,753.14,765.17,-29.30,-872.56,540.04,-0.35,-0.50,-0.50,-217.71
35752,784.96,767.48,754.57,753.10,765.03,-36.62,-872.07,534.67,-1.27,-2.03,-3.74,-214.75
35784,784.66,767.51,754.52,753.13,764.96,-36.13,-877.93,527.83,0.76,-0.08,-0.23,-215.70
35816,784.48,767.55,754.59,753.19,764.95,-27.34,-888.18,532.23,-0.08,0.32,2.02,-214.62
35848,784.45,767.57,754.54,753.28,764.96,-47.85,-872.56,536.13,0.66,-0.10,-2.14,-217.17
35879,784.73,767.74,754.56,753.34,765.09,-37.60,-869.14,536.13,-0.41,1.71,0.30,-219.84
35911,784.78,767.79,754.65,753.33,765.14,-36.62,-876.95,530.27,0.09,1.11,0.54,-218.13
35943,784.19,767.75,754.64,753.29,764.97,-30.27,-885.25,526.37,-0.53,-2.20,-0.31,-215.45
35975,783.83,767.77,754.63,753.27,764.87,-32.71,-875.49,525.88,-0.66,1.56,-0.66,-214.37
36006,783.78,767.77,754.62,753.24,764.85,-25.39,-873.05,534.18,1.92,-1.55,1.40,-213.93
36038,783.80,767.73,754.61,753.16,764.83,-31.74,-865.72,548.34,-0.43,-1.72,0.85,-212.79
36072,784.28,767.66,754.62,753.14,764.93,-39.55,-872.56,526.37,2.82,-2.41,-0.50,-213.11
36103,784.56,767.67,754.64,753.15,765.01,-31.74,-862.30,531.74,-0.34,0.84,1.60,-213.92
36135,784.41,767.56,754.65,753.01,764.91,-29.79,-883.30,528.81,-1.44,1.57,-2.03,-210.31
36167,783.97,767.61,754.67,753.10,764.84,-35.16,-875.49,522.95,-1.24,-0.24,-2.92,-210.06
36199,784.05,767.48,754.59,753.06,764.79,-31.74,-864.75,533.69,0.08,-0.66,-1.44,-210.62
36230,784.34,767.53,754.55,752.97,764.85,-29.79,-870.61,537.60,-0.07,1.76,1.58,-211.50
36262,785.07,767.46,754.59,752.89,765.00,-34.67,-870.12,528.81,-0.21,1.99,0.93,-211.39
36294,785.14,767.32,754.56,752.78,764.95,-34.67,-883.30,532.23,0.41,-0.18,-3.26,-209.73
36326,784.97,767.09,754.48,752.59,764.78,-51.27,-869.14,533.69,-3.10,-0.23,-0.17,-206.52
36357,784.99,766.98,754.58,752.62,764.79,-26.37,-871.58,540.04,-0.15,-1.73,2.47,-203.53
36389,785.31,766.91,754.47,752.60,764.82,-29.79,-876.46,530.76,-0.46,-0.60,-1.76,-206.62
36421,785.95,766.84,754.58,752.54,764.98,-49.80,-881.35,532.71,-0.33,-1.02,1.18,-204.63
36453,786.19,766.64,754.46,752.41,764.93,-32.71,-861.82,540.04,-3.05,-1.89,0.98,-204.93
36484,786.07,766.33,754.41,752.36,764.79,-40.53,-869.63,535.16,1.08,-1.77,3.22,-202.37
36516,785.98,766.20,754.42,752.39,764.75,-22.95,-870.61,534.67,-0.58,2.11,-2.34,-201.33
36547,786.39,766.06,754.37,752.46,764.82,-35.16,-865.23,534.67,-0.56,-0.04,-1.16,-203.85
36578,786.51,765.97,754.37,752.42,764.82,-36.13,-878.42,521.00,1.05,1.33,-0.61,-202.87
36609,786.71,765.72,754.41,752.42,764.82,-35.64,-881.35,534.67,-0.40,0.86,-1.15,-200.71
36640,787.54,765.62,754.32,752.44,764.98,-36.13,-877.44,526.37,2.36,-0.60,-1.79,-205.29
36672,788.80,765.56,754.31,752.45,765.28,-39.06,-878.42,526.37,1.75,-0.11,0.05,-209.64
36703,788.81,765.30,754.26,752.17,765.14,-49.80,-853.03,553.71,-4.76,-1.74,-0.87,-204.71
36735,787.80,765.07,754.35,752.17,764.85,-40.04,-872.56,530.27,-3.51,1.97,-0.60,-197.13
36766,787.57,765.12,754.29,752.44,764.85,-52.25,-879.88,532.71,0.46,1.47,-2.48,-202.10
36798,787.86,765.19,754.29,752.63,764.99,-37.60,-871.09,531.25,0.85,0.42,0.10,-206.50
36829,788.16,765.22,754.28,752.73,765.10,-31.74,-883.79,530.76,-0.39,-0.79,1.53,-209.54
36861,788.06,765.12,754.27,752.68,765.03,-38.09,-876.46,532.23,0.08,0.44,1.24,-207.98
36892,787.76,765.02,754.22,752.74,764.93,-33.20,-885.74,527.34,-1.17,-1.83,0.61,-207.94
36924,787.94,765.02,754.25,752.76,764.99,-41.02,-865.23,528.81,0.92,0.57,0.41,-208.25
36957,788.05,764.96,754.30,752.76,765.02,-45.90,-877.44,528.81,-0.50,-0.94,-1.86,-207.00
36989,787.91,764.88,754.26,752.86,764.98,-33.69,-873.05,523.93,1.32,2.17,-1.77,-208.14
37021,787.73,764.89,754.15,752.79,764.89,-43.95,-865.23,533.69,-2.90,-0.53,0.08,-209.46
37053,787.87,764.99,754.25,752.90,765.00,-45.41,-869.63,527.34,0.40,-0.56,-2.53,-209.97
37084,788.17,764.97,754.28,752.89,765.08,-46.88,-876.95,536.13,-0.16,1.04,0.63,-209.67
37116,787.71,764.96,754.29,752.95,764.98,-40.53,-865.72,528.32,0.84,3.14,-0.85,-208.88
37148,787.38,764.92,754.25,753.04,764.90,-40.53,-876.46,531.25,-1.27,-2.72,-0.09,-209.56
37180,787.23,765.03,754.25,753.09,764.90,-43.46,-868.16,536.62,0.74,0.54,-0.42,-210.78
37211,787.49,765.26,754.29,753.39,765.11,-47.85,-866.70,527.34,1.32,-0.77,-0.04,-216.80
37243,787.56,765.50,754.38,753.39,765.21,-37.11,-878.42,538.57,-2.05,-1.98,-0.83,-216.98
37275,786.84,765.66,754.39,753.55,765.11,-46.88,-875.98,519.04,-0.33,0.14,1.39,-217.80
37307,786.03,765.91,754.45,753.74,765.03,-38.09,-871.58,552.73,0.23,0.18,-1.89,-218.26
37338,785.54,766.19,754.46,753.84,765.01,-44.92,-876.95,531.25,-1.90,0.85,-3.76,-220.11
37370,785.23,766.45,754.42,753.82,764.98,-33.20,-886.23,528.81,-0.62,-0.28,-0.74,-221.71
37402,785.49,766.65,754.44,753.90,765.12,-41.02,-876.46,527.83,0.62,-0.48,-0.10,-225.05
37434,785.94,766.66,754.42,753.66,765.17,-36.13,-877.44,539.06,-1.53,-3.44,-3.14,-223.60
37465,785.38,766.66,754.47,753.51,765.01,-40.53,-876.95,535.16,2.01,0.86,-0.55,-218.06
37497,784.81,766.73,754.44,753.63,764.91,-37.60,-875.00,539.06,-2.37,-0.10,-1.70,-219.29
37529,784.35,766.90,754.57,753.64,764.86,-41.99,-865.23,522.46,-2.35,1.24,-0.93,-215.95
37561,784.10,767.20,754.57,753.69,764.89,-34.67,-864.26,519.53,-0.81,-0.63,-1.36,-218.19
37592,783.60,767.43,754.57,753.81,764.85,-37.11,-875.49,531.74,-0.13,-1.01,-4.14,-220.25
37624,783.97,767.94,754.57,754.02,765.13,-27.83,-872.56,529.30,3.15,-1.37,-2.22,-228.67
37656,783.50,768.22,754.64,754.07,765.11,-42.48,-868.65,532.71,-0.77,1.13,-2.62,-228.26
37688,782.35,768.58,754.72,754.18,764.96,-44.92,-879.39,547.36,-3.03,1.19,0.46,-226.81
37719,781.11,769.18,754.71,754.50,764.87,-32.23,-872.56,530.27,-1.47,3.09,-0.09,-232.24
37751,780.32,769.78,754.80,754.76,764.91,-29.79,-886.72,529.30,0.95,-2.89,0.34,-235.89
37783,779.73,770.25,754.90,754.93,764.95,-32.71,-873.54,537.60,0.42,1.10,-2.02,-237.77
37816,779.83,770.57,754.93,754.77,765.03,-33.69,-868.65,539.55,3.20,-3.47,-4.11,-237.54
37848,779.48,770.73,755.06,754.53,764.95,-26.86,-875.98,541.50,-0.86,1.01,-1.54,-230.98
37880,778.70,770.86,755.07,754.37,764.75,-44.92,-868.16,539.06,-0.80,1.30,0.34,-226.76
37912,778.30,771.01,755.03,754.25,764.65,-35.64,-881.35,522.46,-1.49,1.56,3.41,-225.77
37943,778.18,771.11,755.05,754.13,764.62,-34.67,-877.44,533.20,-1.38,0.84,-1.60,-224.06
37975,778.42,771.34,755.08,754.09,764.73,-36.62,-878.42,529.79,0.15,-0.91,-0.82,-225.21
38006,778.42,771.54,755.14,754.09,764.79,-29.30,-879.39,514.65,0.46,1.27,-1.32,-225.25
38037,778.08,771.58,755.13,753.92,764.68,-32.23,-877.93,538.09,-1.53,1.68,-1.35,-222.34
38068,777.78,771.62,755.12,753.72,764.56,-30.27,-867.68,522.95,-1.23,0.31,-1.05,-218.77
38099,777.75,771.59,755.16,753.64,764.53,-22.95,-875.98,542.48,-0.99,-0.70,-0.25,-216.31
38131,777.82,771.56,755.12,753.48,764.49,-30.27,-874.51,525.88,0.49,0.42,-0.51,-215.03
38162,777.92,771.44,755.08,753.36,764.45,-36.13,-871.09,530.27,-1.35,-0.69,0.72,-213.60
38194,778.07,771.34,755.07,753.14,764.40,-32.23,-879.88,532.71,0.56,0.21,-2.27,-210.10
38225,778.00,771.06,755.09,753.00,764.28,-41.02,-877.93,539.55,0.77,-0.34,1.38,-205.26
38257,778.08,770.91,755.00,752.87,764.21,-40.04,-885.74,521.97,-1.10,-0.85,1.44,-204.55
38288,778.34,770.79,755.03,752.89,764.26,-30.27,-876.46,533.20,-0.06,-1.37,0.24,-204.14
38320,778.68,770.76,755.00,752.86,764.32,-37.60,-883.30,513.67,-0.43,-0.06,-0.28,-205.42
38351,778.61,770.64,755.00,752.82,764.27,-29.30,-859.86,518.55,-2.59,2.79,-0.54,-203.53
38383,778.23,770.66,755.00,752.96,764.21,-33.20,-881.84,541.02,1.66,-0.59,-0.08,-204.34
38414,777.92,770.67,755.08,753.06,764.18,-36.13,-875.98,527.83,0.72,-0.41,-1.55,-202.99
38446,777.90,770.76,755.00,753.03,764.18,-8.79,-871.09,528.32,-1.03,1.18,0.02,-205.08
38478,777.73,770.72,755.07,753.07,764.15,-17.58,-879.88,529.30,3.29,0.03,0.01,-203.18
38510,777.70,770.72,755.05,753.12,764.14,-43.95,-875.00,528.81,0.28,0.47,1.95,-204.29
38541,777.67,770.58,754.93,753.08,764.07,-45.41,-879.39,537.11,1.69,0.91,0.09,-205.42
38573,777.76,770.47,754.96,752.95,764.03,-31.25,-879.39,538.09,0.23,-1.06,-0.69,-202.28
38605,778.10,770.27,754.90,752.78,764.01,-35.16,-879.88,523.44,0.73,1.37,-0.09,-200.56
38637,778.38,770.04,754.91,752.61,763.98,-31.74,-877.44,531.25,-0.57,0.53,0.42,-197.19
38668,778.83,769.72,754.82,752.51,763.97,-41.02,-877.93,526.37,-1.51,0.56,1.00,-196.79
38702,779.07,769.29,754.78,752.43,763.89,-28.81,-874.51,528.81,-1.33,-0.83,-1.07,-193.91
38734,779.48,768.98,754.77,752.33,763.89,-38.09,-876.95,525.39,-0.39,-1.28,-0.71,-191.79
38765,779.94,768.73,754.76,752.40,763.96,-33.20,-874.51,541.50,0.82,0.91,0.50,-192.76
38797,780.11,768.53,754.69,752.50,763.96,-35.16,-864.26,541.02,-0.82,-0.49,-0.44,-194.72
38829,780.23,768.52,754.76,752.51,764.01,-37.11,-876.46,533.69,0.53,0.42,1.66,-193.43
38861,780.35,768.44,754.80,752.54,764.03,-44.43,-874.02,551.76,0.18,0.01,1.04,-192.69
38892,780.49,768.38,754.74,752.54,764.04,-23.44,-883.79,533.69,1.38,-0.80,-0.08,-194.23
38924,780.66,768.21,754.79,752.48,764.04,-41.99,-873.05,536.13,1.80,2.56,-0.37,-191.33
38956,780.72,768.14,754.82,752.47,764.04,-37.11,-864.75,537.60,0.79,-0.32,-0.53,-190.18
38988,781.02,768.07,754.70,752.53,764.08,-44.92,-870.12,539.06,2.38,-0.59,0.81,-194.44
39019,781.16,767.97,754.69,752.55,764.09,-34.67,-885.74,536.13,0.58,1.37,-2.15,-194.73
39051,781.20,767.85,754.75,752.60,764.10,-37.60,-872.07,537.11,-0.38,-3.86,-0.29,-192.95
39083,781.42,767.80,754.74,752.72,764.17,-27.83,-866.21,534.18,-0.81,1.65,-2.95,-195.51
39115,781.45,767.90,754.71,752.75,764.20,-47.36,-888.18,536.13,0.31,1.38,-3.66,-197.44
39146,781.63,767.83,754.64,752.72,764.20,-35.16,-865.72,541.02,0.19,-0.76,0.72,-198.90
39178,781.96,767.80,754.63,752.75,764.28,-34.67,-873.05,541.02,0.11,2.67,-0.02,-200.59
39210,782.27,767.67,754.68,752.69,764.33,-44.43,-881.35,528.81,1.58,0.26,-0.61,-198.27
39242,782.49,767.68,754.66,752.67,764.38,-35.64,-871.58,534.67,-0.50,-0.69,0.89,-199.33
39273,782.60,767.66,754.62,752.67,764.38,-37.11,-885.25,539.06,1.16,0.47,0.96,-200.58
39305,782.74,767.65,754.63,752.74,764.44,-25.39,-878.91,535.16,0.20,-1.47,1.92,-201.73
39337,782.89,767.63,754.64,752.84,764.50,-31.74,-870.12,520.51,0.28,0.89,0.79,-203.40
39369,782.96,767.68,754.63,752.87,764.54,-17.09,-889.65,524.90,0.66,0.28,-0.95,-204.62
39400,782.93,767.70,754.64,752.81,764.52,-37.11,-879.39,524.41,0.13,2.73,-0.18,-203.55
39432,782.92,767.75,754.64,752.86,764.54,-36.62,-871.58,537.11,-2.50,0.51,-0.74,-204.66
39463,783.00,767.75,754.68,752.87,764.58,-27.83,-860.35,545.90,1.76,2.38,-1.11,-204.26
39494,782.98,767.73,754.58,752.88,764.55,-39.06,-872.07,540.04,0.15,2.41,1.06,-206.47
39525,782.93,767.79,754.70,753.00,764.61,-23.93,-872.56,525.39,0.92,-1.34,-3.75,-205.54
39558,782.83,767.82,754.58,753.00,764.56,-42.97,-875.98,537.11,0.81,1.83,0.29,-208.58
39589,782.84,767.85,754.66,753.01,764.59,-40.53,-868.65,539.06,-1.12,0.02,-0.98,-207.03
39621,782.68,767.80,754.68,752.92,764.52,-22.46,-864.75,535.64,-1.70,0.37,-0.06,-204.07
39652,782.70,767.84,754.68,752.98,764.55,-40.04,-892.09,529.30,0.24,-2.02,-0.09,-205.49
39684,782.60,767.72,754.71,752.96,764.50,-27.34,-866.70,543.46,1.42,1.21,-0.85,-203.25
39715,782.36,767.71,754.74,753.05,764.46,-47.85,-859.86,547.85,-0.59,1.07,0.41,-202.73
39747,782.36,767.61,754.75,753.00,764.43,-32.71,-872.07,530.27,-0.08,-0.02,1.23,-201.07
39778,782.28,767.62,754.71,752.99,764.40,-36.13,-874.02,546.87,1.50,0.74,-0.21,-201.49
39810,782.29,767.53,754.64,752.99,764.36,-33.69,-874.51,537.60,-0.85,-0.16,-1.47,-202.65
39841,782.42,767.62,754.67,752.87,764.40,-29.30,-864.75,536.62,-1.20,0.34,-1.84,-201.26
39873,782.65,767.54,754.63,752.93,764.44,-28.32,-866.70,532.71,-1.35,1.66,-1.20,-203.45
39905,782.81,767.59,754.60,752.88,764.47,-50.29,-861.33,536.13,0.61,0.62,-0.44,-204.44
39937,782.94,767.47,754.59,752.89,764.47,-42.48,-873.05,536.62,-0.95,1.00,-0.63,-204.15
39968,783.05,767.41,754.53,752.76,764.44,-41.02,-864.26,531.25,-1.00,-0.25,-0.91,-203.69
40000,783.20,767.20,754.59,752.77,764.44,-27.83,-864.26,536.62,0.27,-1.00,1.19,-201.12
40032,783.49,767.21,754.50,752.76,764.49,-37.11,-858.89,524.41,-0.71,-0.11,-1.35,-204.26
40064,783.79,767.07,754.57,752.74,764.54,-23.44,-875.00,532.71,-2.23,2.56,-0.63,-202.21
40095,783.98,766.99,754.60,752.64,764.55,-32.71,-876.95,531.74,1.74,-0.25,-1.24,-200.16
40127,784.21,766.78,754.48,752.58,764.51,-32.71,-880.86,530.27,-2.08,-1.18,0.51,-201.22
40159,784.37,766.55,754.53,752.53,764.49,-31.74,-880.37,530.76,-0.91,1.11,-0.95,-197.91
40191,784.62,766.44,754.48,752.57,764.53,-34.18,-869.63,540.53,-1.15,-0.45,-0.69,-199.86
40222,784.75,766.35,754.50,752.64,764.56,-21.48,-875.49,529.30,1.00,0.52,-0.24,-200.02
40254,784.73,766.31,754.48,752.80,764.58,-49.80,-873.54,544.43,1.34,1.05,0.02,-202.39
40286,784.59,766.31,754.50,752.80,764.55,-36.13,-866.70,525.88,0.54,-0.77,-0.05,-201.62
40318,784.43,766.42,754.56,752.90,764.58,-40.04,-871.09,534.67,0.57,-1.31,1.40,-201.75
40349,784.50,766.48,754.54,752.96,764.62,-37.60,-879.88,535.16,-0.69,-0.15,0.24,-203.86
40381,784.50,766.37,754.47,752.94,764.57,-20.02,-868.65,518.55,-0.86,0.26,-0.44,-204.49
40413,784.50,766.42,754.52,752.91,764.59,-38.09,-868.65,527.34,-1.15,-1.60,-1.24,-203.11
40446,784.65,766.32,754.45,752.94,764.59,-36.13,-872.07,539.55,0.85,-0.98,-1.29,-204.95
40478,784.66,766.19,754.51,752.87,764.56,-22.46,-871.58,545.41,-0.61,-0.31,0.88,-201.51
40510,784.87,766.15,754.46,752.86,764.59,-41.99,-875.00,543.95,-0.24,3.55,-1.92,-203.17
40542,784.98,766.06,754.44,752.83,764.58,-35.16,-876.46,544.43,0.50,0.93,0.87,-202.67
40573,785.03,765.98,754.47,752.89,764.59,-27.34,-875.98,533.69,0.13,0.10,-0.82,-202.24
40605,785.14,766.00,754.43,752.83,764.60,-40.53,-875.00,525.88,-0.75,-0.85,-0.15,-203.26
40637,785.14,765.93,754.42,752.89,764.60,-43.95,-872.07,540.04,-0.44,-1.40,-0.63,-203.52
40669,785.23,765.83,754.45,752.81,764.58,-29.30,-877.93,538.57,0.08,0.11,-0.80,-201.34
40700,785.40,765.77,754.42,752.79,764.60,-23.44,-857.91,538.09,-1.13,-2.01,0.58,-201.70
40732,785.54,765.82,754.46,752.88,764.67,-41.50,-863.77,529.30,-0.99,-0.11,0.85,-202.82
40764,785.58,765.86,754.37,752.93,764.68,-34.18,-877.93,544.92,0.26,0.92,0.40,-206.26
40796,785.34,765.94,754.43,753.06,764.69,-29.30,-858.40,533.20,-2.22,1.24,-1.99,-206.59
40827,785.29,765.99,754.46,753.05,764.70,-36.62,-865.23,530.27,1.02,1.55,-0.47,-206.14
40859,785.16,766.09,754.49,753.23,764.74,-27.34,-878.91,536.62,-0.35,-0.27,0.78,-208.36
40891,785.10,766.25,754.51,753.24,764.78,-32.23,-858.89,533.20,-1.15,2.32,1.89,-209.10
40922,784.91,766.35,754.58,753.33,764.79,-35.16,-865.23,536.13,-0.21,1.28,-2.33,-208.69
40953,784.77,766.51,754.53,753.26,764.77,-26.86,-870.12,529.30,0.12,-0.27,-0.84,-209.78
40984,784.71,766.50,754.55,753.31,764.77,-25.88,-860.84,523.44,0.05,0.99,-0.79,-209.61
41016,784.74,766.58,754.54,753.26,764.78,-47.85,-876.46,535.16,-1.50,0.79,-0.16,-209.85
41047,784.75,766.49,754.56,753.15,764.74,-41.50,-872.56,531.25,-0.24,0.60,1.00,-207.22
41079,784.85,766.52,754.46,753.09,764.73,-34.67,-872.56,533.20,-0.40,0.77,-1.95,-209.19
41110,785.06,766.40,754.48,752.95,764.72,-38.57,-872.07,530.27,1.14,2.58,-0.92,-206.38
41141,785.23,766.20,754.45,752.84,764.68,-36.62,-880.37,535.16,-1.39,0.50,1.15,-204.60
41173,785.36,766.00,754.47,752.91,764.69,-30.76,-871.58,530.76,-2.07,0.19,-0.02,-204.11
41204,785.30,766.05,754.47,753.08,764.72,-37.60,-864.75,532.71,-2.64,-2.05,-0.37,-206.65
41236,785.16,766.11,754.49,753.12,764.72,-33.20,-892.58,525.88,-0.23,0.99,-0.24,-206.83
41267,785.04,766.20,754.49,753.17,764.72,-42.48,-873.54,537.11,-0.52,0.98,0.15,-207.70
41301,784.90,766.29,754.50,753.27,764.74,-35.64,-871.58,532.71,0.34,-1.19,-1.34,-209.13
41332,784.63,766.49,754.53,753.34,764.75,-44.92,-879.39,534.18,-0.56,0.09,-1.56,-210.28
41364,784.37,766.51,754.52,753.40,764.70,-35.64,-868.65,530.27,-0.40,0.62,-1.75,-210.67
41396,784.03,766.61,754.53,753.34,764.63,-30.76,-864.26,534.67,-2.17,0.95,-0.47,-209.13
41428,783.94,766.63,754.58,753.30,764.61,-30.76,-880.86,538.57,-0.38,2.63,0.18,-207.31
41459,783.61,766.77,754.58,753.32,764.57,-49.32,-865.72,533.20,1.71,-0.03,-3.28,-207.32
41491,783.55,766.92,754.57,753.45,764.62,-29.30,-882.32,538.57,0.39,3.75,1.49,-210.83
41523,783.35,767.09,754.60,753.60,764.66,-29.79,-881.35,524.90,0.04,-1.00,-2.66,-212.84
41555,783.33,767.25,754.65,753.48,764.68,-30.27,-866.70,530.27,-0.05,1.07,-2.47,-210.88
41586,783.23,767.27,754.63,753.56,764.67,-29.30,-877.93,544.92,1.41,0.68,-0.14,-212.52
41618,783.20,767.45,754.67,753.57,764.72,-43.46,-872.56,522.46,-0.34,-0.73,-1.08,-213.09
41650,783.06,767.72,754.69,753.64,764.78,-39.06,-868.16,519.53,-0.98,-0.34,0.92,-215.33
41682,782.76,767.91,754.71,753.75,764.78,-35.16,-870.61,537.60,0.72,-1.58,0.12,-216.77
41713,782.48,768.12,754.76,753.74,764.77,-29.30,-875.00,532.23,-1.91,0.38,0.50,-216.18
41745,782.23,768.12,754.76,753.62,764.68,-35.64,-871.09,531.74,0.63,0.88,-1.01,-213.47
41777,782.16,768.16,754.78,753.51,764.65,-39.06,-881.35,532.71,1.70,0.44,-0.42,-211.42
41809,782.39,768.24,754.74,753.52,764.72,-34.18,-885.25,537.11,0.76,1.49,1.19,-213.99
41840,782.44,768.23,754.70,753.41,764.70,-21.97,-860.84,521.00,0.16,-0.85,-0.22,-213.41
41872,782.25,768.21,754.69,753.31,764.61,-27.83,-887.21,522.95,-3.27,1.66,-1.27,-211.58
41904,782.14,768.22,754.74,753.25,764.59,-39.55,-870.61,522.95,1.16,2.14,1.67,-209.06
41936,782.00,768.28,754.70,753.23,764.55,-39.55,-873.05,540.04,-0.10,0.74,-0.70,-209.77
41967,782.15,768.31,754.73,753.20,764.60,-23.44,-871.09,536.13,1.07,-0.60,-0.52,-209.29
41999,782.21,768.45,754.71,753.26,764.66,-41.99,-866.70,534.18,-0.37,0.69,-1.55,-211.96
42031,782.18,768.50,754.78,753.26,764.68,-46.39,-884.28,531.25,-2.08,-0.05,-1.86,-210.64
42063,781.98,768.54,754.75,753.21,764.62,-20.51,-881.84,526.37,-0.07,1.40,0.74,-210.16
42094,781.73,768.59,754.85,753.34,764.63,-27.34,-862.30,527.34,0.02,2.30,2.45,-209.35
42126,781.59,768.66,754.83,753.30,764.60,-38.09,-883.30,534.18,1.03,0.08,-1.49,-209.17
42158,781.53,768.67,754.73,753.30,764.56,-24.90,-870.61,530.27,-0.08,0.28,-0.91,-211.62
42191,781.54,768.60,754.75,753.20,764.52,-35.16,-874.02,536.13,-0.12,0.91,-1.27,-209.12
42223,781.55,768.56,754.79,753.15,764.51,-43.95,-870.12,540.04,0.14,-0.03,-0.49,-207.06
42255,781.55,768.64,754.77,753.15,764.53,-40.53,-863.77,540.53,1.14,-0.63,2.26,-208.34
42286,781.51,768.61,754.78,753.16,764.52,-29.79,-871.09,535.16,0.62,-0.38,-0.12,-207.64
42318,781.42,768.73,754.83,753.16,764.54,-37.60,-873.05,535.16,0.40,-2.08,-2.16,-207.04
42350,781.40,768.78,754.79,753.21,764.54,-27.83,-873.05,527.83,-2.59,-1.22,-0.55,-209.24
42381,781.39,768.90,754.81,753.25,764.59,-35.16,-861.33,537.60,2.00,0.33,1.93,-210.15
42412,781.15,768.91,754.88,753.24,764.54,-30.76,-873.05,526.86,0.06,1.02,-0.74,-207.55
42444,780.96,768.84,754.83,753.24,764.47,-33.69,-880.37,522.95,-1.90,0.64,0.34,-207.57
42475,780.89,768.94,754.82,753.21,764.46,-26.37,-873.54,521.48,-0.16,2.35,-2.75,-208.03
42506,780.93,768.91,754.76,753.11,764.43,-28.81,-869.14,541.50,-1.41,1.02,-0.92,-207.87
42537,781.05,768.82,754.76,753.04,764.42,-30.76,-870.12,533.69,-1.40,0.53,-0.81,-206.39
42569,781.29,768.68,754.81,752.97,764.44,-46.88,-874.02,528.32,1.32,-0.10,-1.25,-203.95
42600,781.56,768.60,754.77,752.76,764.42,-29.30,-877.44,526.37,-0.36,-1.09,-2.22,-202.22
42632,782.02,768.46,754.84,752.64,764.49,-34.67,-872.56,531.25,-0.49,-0.53,-2.10,-199.19
42663,782.26,768.33,754.72,752.61,764.48,-39.06,-878.42,537.60,1.03,-0.21,-1.37,-201.49
42695,782.52,768.16,754.75,752.62,764.51,-31.25,-871.09,543.46,-1.44,-1.18,-0.52,-200.38
42726,782.75,767.97,754.69,752.59,764.50,-33.20,-864.26,540.04,1.46,0.40,-1.18,-200.64
42758,782.93,767.75,754.69,752.60,764.49,-40.53,-863.77,540.53,0.33,0.10,0.05,-199.64
42790,783.12,767.69,754.64,752.58,764.51,-25.39,-877.93,530.27,0.32,0.40,-0.60,-200.81
42821,783.24,767.74,754.68,752.68,764.59,-34.67,-873.05,526.37,-0.99,0.53,0.76,-202.12
42853,783.36,767.64,754.59,752.67,764.57,-33.69,-873.54,528.32,0.68,2.25,-0.42,-203.65
42885,783.46,767.61,754.62,752.68,764.59,-43.95,-866.21,528.81,-0.67,-0.46,0.78,-203.33
42917,783.48,767.64,754.71,752.74,764.64,-45.41,-869.14,534.67,-0.89,1.45,-2.04,-202.37
42948,783.49,767.61,754.67,752.74,764.63,-20.02,-871.09,537.11,0.56,1.17,1.33,-203.10
42980,783.46,767.59,754.69,752.70,764.61,-34.67,-877.44,531.25,-0.58,1.66,0.30,-201.57
43012,783.49,767.55,754.66,752.68,764.59,-41.99,-872.07,535.16,-0.41,-0.40,-2.59,-201.87
43045,783.68,767.48,754.61,752.73,764.62,-32.23,-874.51,526.86,0.61,1.20,-1.21,-203.98
43077,783.83,767.38,754.69,752.77,764.67,-31.74,-872.07,548.83,2.57,-2.18,-2.03,-202.29
43109,783.90,767.17,754.65,752.66,764.60,-37.11,-882.32,534.18,0.05,0.59,-0.33,-200.19
43141,783.99,767.06,754.59,752.67,764.58,-35.64,-883.30,527.83,-1.57,-2.24,0.39,-201.22
43172,784.06,767.05,754.65,752.65,764.60,-31.74,-875.49,539.55,0.11,0.04,-3.39,-199.80
43204,784.10,766.99,754.56,752.80,764.61,-44.43,-866.21,529.79,1.73,1.15,-0.24,-203.84
43236,784.09,767.03,754.66,752.86,764.66,-37.60,-868.16,537.60,-0.34,0.16,-1.63,-202.49
43268,784.03,767.14,754.64,752.85,764.67,-38.09,-872.07,527.34,-0.22,-0.30,1.73,-203.63
43299,783.86,767.19,754.67,753.00,764.68,-36.13,-882.32,535.64,-0.14,1.19,0.40,-204.81
43331,783.67,767.39,754.68,753.13,764.72,-45.90,-878.42,531.74,1.22,1.98,-0.02,-207.37
43363,783.23,767.67,754.70,753.27,764.72,-29.30,-871.58,532.23,-0.31,-0.89,-0.95,-209.84
43395,782.87,767.73,754.75,753.42,764.69,-32.23,-880.37,526.37,-0.81,-2.87,-2.39,-210.06
43426,782.70,767.99,754.75,753.37,764.70,-30.27,-871.09,540.53,-0.55,-2.45,-2.24,-210.79
