currTime,s1,s2,s3,s4,s,AccX,AccY,AccZ,GyroX,GyroY,GyroZ,GRF
26,774.16,765.12,754.61,762.56,764.11,132.32,-920.90,405.76,-0.85,0.20,1.46,-253.43
64,773.30,765.09,754.66,762.53,763.89,114.75,-924.80,399.41,0.66,-0.29,-0.12,-251.42
102,772.56,765.17,754.57,762.55,763.71,130.86,-920.41,398.44,-2.13,1.08,1.40,-249.27
140,772.16,765.28,754.64,762.54,763.65,136.72,-930.66,400.88,-1.68,2.23,-1.04,-250.26
178,771.75,765.26,754.51,762.44,763.49,131.35,-933.59,402.83,-1.19,0.35,0.39,-247.38
216,771.39,765.35,754.56,762.34,763.41,122.56,-924.80,393.07,0.14,0.50,1.18,-247.48
256,770.80,765.36,754.46,762.40,763.26,131.84,-918.95,390.62,-2.15,-0.44,-1.38,-245.36
294,770.13,765.42,754.51,762.30,763.09,138.67,-930.66,374.02,-0.54,1.66,-0.04,-244.82
332,769.66,765.43,754.57,762.40,763.02,127.44,-914.06,396.97,-1.66,3.08,0.74,-244.58
370,769.15,765.40,754.58,762.50,762.91,129.88,-936.52,385.74,0.71,1.56,0.01,-241.17
408,768.53,765.39,754.58,762.54,762.76,132.81,-924.32,391.60,-0.37,-0.81,0.62,-237.15
445,768.08,765.37,754.57,762.53,762.63,135.25,-940.43,393.07,0.65,-0.53,2.11,-233.58
487,767.69,765.21,754.60,762.56,762.51,109.86,-919.43,400.39,0.78,3.20,-0.15,-228.42
525,767.26,765.15,754.65,762.57,762.41,135.25,-922.36,391.11,1.70,-0.24,-0.34,-224.08
563,767.01,765.11,754.59,762.51,762.31,131.84,-927.25,381.84,-1.69,2.15,0.85,-221.50
601,766.96,765.03,754.48,762.33,762.20,146.00,-926.76,383.79,-1.14,1.65,-2.28,-218.90
640,767.05,764.99,754.45,762.19,762.17,130.37,-938.96,399.90,0.10,2.63,0.50,-218.11
678,767.30,764.88,754.33,762.14,762.16,129.88,-942.38,377.44,-0.38,2.44,-2.34,-217.95
718,767.57,764.74,754.31,762.04,762.16,128.91,-925.78,406.74,0.93,0.22,-1.44,-217.08
756,767.95,764.61,754.30,761.97,762.21,128.91,-934.08,375.49,2.79,2.74,-1.02,-217.42
794,768.23,764.60,754.20,761.92,762.24,116.21,-915.53,394.04,2.37,2.87,0.87,-218.32
832,768.59,764.53,754.23,761.87,762.31,131.35,-939.94,391.11,0.03,0.30,1.15,-220.09
870,769.15,764.47,754.14,761.90,762.41,131.84,-932.62,396.48,-1.68,2.39,2.60,-221.05
914,769.77,764.51,754.15,761.76,762.55,134.77,-921.39,391.11,-0.84,-2.76,1.11,-226.78
955,770.26,764.52,754.04,761.67,762.62,137.70,-927.25,392.58,-0.50,0.25,1.69,-226.17
993,770.60,764.63,753.98,761.59,762.70,135.25,-917.97,396.00,-2.00,0.31,-2.02,-226.21
1031,771.00,764.66,753.94,761.53,762.78,133.30,-935.06,385.74,-1.73,-1.15,1.27,-226.39
1069,771.25,764.83,753.99,761.55,762.90,124.51,-922.85,393.07,1.73,1.66,1.41,-229.96
1107,771.51,764.92,753.98,761.56,762.99,133.79,-928.22,381.35,0.81,1.53,-0.99,-231.40
1147,771.35,765.11,754.05,761.65,763.04,142.09,-928.22,374.51,-2.28,0.98,1.60,-234.61
1185,771.17,765.31,754.07,761.63,763.04,127.44,-944.82,389.16,0.67,2.21,-0.90,-236.00
1223,771.26,765.39,754.03,761.70,763.09,133.30,-929.20,390.62,2.04,1.53,1.09,-236.14
1261,771.21,765.49,754.07,761.89,763.16,117.19,-933.11,392.58,2.04,-0.61,-0.33,-238.08
1299,771.18,765.56,754.09,761.97,763.20,117.68,-932.13,381.35,-1.57,0.02,-0.02,-239.25
1338,771.08,765.69,754.18,762.13,763.27,120.12,-930.66,398.93,-0.47,0.73,0.24,-242.17
1378,770.99,765.75,754.25,762.18,763.29,138.67,-927.25,396.97,-1.17,-0.44,-0.58,-244.00
1416,770.76,765.99,754.35,762.35,763.36,128.91,-924.80,384.28,0.46,0.00,1.82,-248.29
1454,770.79,766.01,754.37,762.46,763.41,121.09,-937.01,388.18,-0.92,-0.15,-0.83,-249.37
1492,770.87,765.94,754.30,762.42,763.38,124.51,-917.97,385.74,0.95,1.87,-0.70,-247.52
1530,771.29,765.74,754.33,762.50,763.47,122.56,-936.04,397.46,-0.41,-0.40,0.58,-247.70
1568,771.47,765.69,754.37,762.45,763.49,124.51,-927.25,393.07,-3.19,-0.69,-2.18,-248.02
1608,771.92,765.70,754.35,762.53,763.63,134.28,-931.64,390.14,-1.48,1.96,2.32,-249.21
1646,772.33,765.87,754.35,762.44,763.75,139.16,-930.66,391.60,-1.41,0.24,0.64,-250.65
1684,772.79,765.96,754.32,762.38,763.86,129.88,-926.76,386.23,0.56,1.20,-1.89,-251.90
1723,773.62,766.12,754.31,762.46,764.13,123.54,-927.25,381.84,2.00,2.61,-0.24,-257.49
1760,773.72,766.17,754.41,762.70,764.25,145.02,-923.83,388.18,3.64,3.36,1.18,-264.01
1798,773.55,766.28,754.46,762.82,764.28,118.16,-922.85,388.67,3.68,3.49,-1.98,-268.28
1844,773.52,766.47,754.67,763.16,764.46,119.14,-919.43,393.07,2.57,3.12,0.20,-279.72
1882,773.92,766.54,754.90,763.51,764.72,124.02,-934.08,385.74,4.32,1.88,-3.02,-290.29
1920,774.27,766.57,755.12,763.92,764.97,125.98,-928.22,385.25,2.36,2.25,-2.52,-300.34
1958,774.53,766.71,755.30,764.19,765.18,118.16,-923.83,401.37,-0.44,5.19,-0.18,-305.15
1996,774.40,766.78,755.40,764.34,765.23,127.93,-923.83,411.13,1.37,1.40,-0.29,-306.60
2034,774.10,766.95,755.42,764.30,765.19,121.58,-923.34,413.57,-4.94,-0.50,0.95,-306.66
2075,774.30,767.21,755.42,764.20,765.28,128.91,-929.69,397.46,0.18,3.40,-1.47,-306.22
2113,774.95,767.48,755.37,764.28,765.52,130.37,-928.71,383.30,-3.50,2.41,-0.31,-307.83
2151,775.51,767.55,755.39,764.28,765.68,137.70,-934.57,389.65,0.70,3.52,-0.29,-309.78
2188,774.62,767.80,755.53,764.49,765.61,129.39,-934.08,389.16,-3.82,0.68,0.56,-313.01
2226,773.53,768.13,755.68,764.64,765.50,127.44,-935.06,392.09,-3.20,2.05,2.15,-314.23
2264,772.71,768.47,755.72,764.86,765.44,129.39,-942.38,385.25,-2.27,4.61,0.96,-316.58
2306,772.38,768.64,755.85,765.02,765.47,119.14,-931.64,389.16,1.66,2.23,2.21,-319.94
2344,772.40,768.67,755.87,764.89,765.46,107.42,-928.22,412.11,1.16,1.08,1.75,-318.69
2381,772.25,768.90,755.83,764.94,765.48,125.00,-924.32,375.49,-3.15,0.75,-0.08,-321.84
2419,772.04,769.33,755.84,764.94,765.54,126.95,-924.80,386.23,-1.11,0.35,0.88,-326.61
2457,771.41,769.76,755.93,765.03,765.53,127.44,-927.73,386.23,-0.56,-0.70,0.18,-330.00
2495,770.97,770.30,756.06,765.24,765.64,133.79,-934.57,370.61,0.46,2.48,2.03,-335.07
2535,770.38,770.77,756.14,765.43,765.68,116.70,-931.15,391.60,1.29,2.72,0.84,-338.14
2573,769.54,771.19,756.25,765.62,765.65,121.09,-941.89,385.25,-0.22,2.53,3.23,-340.07
2611,768.84,771.35,756.46,765.83,765.62,116.21,-937.50,389.65,1.19,1.63,3.22,-341.29
2649,768.16,771.24,756.56,765.94,765.47,117.19,-923.83,384.28,1.73,-0.03,1.95,-340.36
2687,767.55,771.17,756.50,765.84,765.27,133.30,-937.01,397.46,3.40,-0.03,0.01,-337.26
2725,767.40,771.17,756.48,765.82,765.22,130.37,-929.20,407.71,-1.37,2.01,0.44,-336.62
2772,767.35,771.12,756.42,765.65,765.14,104.98,-921.87,401.86,0.50,1.98,0.50,-334.59
2810,767.18,771.21,756.36,765.49,765.06,129.88,-940.92,385.74,2.47,1.85,0.88,-332.86
2848,767.30,771.28,756.26,765.29,765.03,120.12,-925.29,383.30,-3.87,0.73,3.05,-331.34
2886,767.54,771.41,756.08,765.11,765.03,125.00,-928.71,385.74,-2.89,0.02,0.08,-330.90
2924,768.00,771.54,755.97,764.89,765.10,125.49,-933.11,390.14,-1.10,-0.37,2.32,-330.64
2964,768.07,771.63,755.86,764.74,765.08,123.05,-927.25,389.16,-2.89,0.42,3.35,-329.85
3005,768.07,771.81,755.80,764.53,765.05,126.95,-925.78,403.32,-1.63,-1.19,-2.25,-328.57
3043,767.99,772.10,755.72,764.49,765.07,134.77,-929.69,377.93,-1.31,1.03,0.82,-329.96
3081,767.89,772.48,755.73,764.53,765.16,118.16,-931.64,381.84,-1.98,-1.18,-0.83,-333.15
3119,767.60,773.02,755.80,764.63,765.26,120.12,-928.22,383.30,1.93,1.30,1.23,-335.07
3157,767.19,773.39,755.85,764.70,765.28,125.00,-933.11,393.07,-0.55,0.65,0.34,-336.71
3197,766.81,773.85,755.94,764.75,765.34,117.68,-935.06,388.18,1.11,0.31,-0.04,-340.91
3235,766.63,774.22,755.92,764.84,765.40,118.65,-930.66,383.30,-0.79,-0.61,1.56,-344.30
3274,766.45,774.43,755.96,764.81,765.41,122.56,-926.76,390.62,0.42,0.15,0.61,-345.74
3311,766.34,774.51,755.87,764.76,765.37,125.98,-937.01,367.68,-1.40,1.51,1.71,-346.43
3349,766.51,774.40,755.80,764.61,765.33,106.45,-929.20,373.05,-0.72,0.81,-0.76,-344.74
3387,766.69,774.19,755.71,764.38,765.24,119.14,-941.41,386.72,-2.21,1.34,1.70,-341.94
3428,767.06,773.88,755.56,764.17,765.17,135.25,-952.15,378.42,-0.30,1.79,0.82,-338.54
3466,767.46,773.61,755.37,764.04,765.12,109.37,-933.59,375.00,0.45,3.23,-0.43,-335.87
3504,767.78,773.23,755.30,763.90,765.05,118.65,-929.69,390.14,0.59,1.05,-0.82,-333.49
3542,768.29,772.87,755.21,763.63,765.00,111.82,-931.64,381.84,1.14,1.87,-1.60,-330.93
3580,768.75,772.52,755.04,763.42,764.93,129.88,-926.76,389.65,-1.44,1.92,0.42,-331.96
3618,769.14,772.11,754.81,763.05,764.78,127.93,-940.92,380.37,0.89,2.70,-0.06,-329.47
3665,769.41,771.59,754.68,762.87,764.64,119.63,-939.45,373.54,0.58,3.24,-0.30,-320.96
3704,769.59,771.37,754.64,762.81,764.60,125.49,-930.18,386.23,-0.73,3.60,-0.05,-317.70
3742,769.67,771.24,754.68,762.83,764.61,120.61,-946.78,372.07,-0.39,0.39,0.15,-316.90
3780,769.95,771.06,754.66,762.92,764.65,125.49,-942.38,390.14,3.27,3.08,3.66,-316.28
3818,770.18,770.98,754.64,762.91,764.68,120.12,-937.01,386.72,-2.44,1.45,-0.24,-315.61
3856,770.46,770.87,754.61,762.96,764.73,134.77,-931.64,388.18,3.11,2.16,-2.79,-315.30
3896,770.80,770.70,754.67,762.97,764.79,117.68,-923.34,383.79,1.70,1.26,-1.75,-314.68
3934,771.11,770.37,754.62,763.01,764.78,124.02,-933.11,401.37,3.47,1.43,2.01,-311.51
3972,771.30,770.27,754.75,763.07,764.85,114.26,-923.83,375.49,2.11,0.01,0.23,-313.35
4010,771.24,770.33,754.79,763.22,764.89,129.88,-947.75,396.97,0.05,0.34,1.05,-314.70
4048,771.32,770.36,754.82,763.25,764.94,139.16,-912.60,355.96,1.77,2.30,-2.13,-314.69
4085,771.42,770.36,754.82,763.15,764.94,130.37,-948.24,391.11,0.78,4.53,0.95,-314.08
4126,771.65,770.37,754.82,763.19,765.01,120.12,-922.85,375.98,1.31,2.65,1.01,-314.01
4164,771.87,770.37,754.77,763.12,765.04,121.09,-931.15,386.72,2.39,-0.69,1.51,-313.83
4202,772.04,770.35,754.73,763.18,765.08,130.86,-927.73,390.62,3.19,2.79,-0.04,-313.99
4240,772.15,770.41,754.78,763.27,765.16,133.30,-933.59,388.18,1.18,0.83,-0.02,-314.06
4278,772.14,770.55,754.80,763.35,765.21,88.38,-902.83,357.42,0.22,-2.69,0.09,-315.06
4315,772.15,770.53,754.81,763.35,765.21,124.02,-928.71,365.23,-2.26,-0.10,-0.48,-314.82
4356,772.21,770.59,754.89,763.35,765.26,139.65,-915.04,396.48,1.91,2.66,-1.94,-314.42
4394,772.14,770.60,754.78,763.26,765.20,124.51,-933.11,397.95,0.95,1.12,-0.66,-315.41
4432,771.91,770.67,754.80,763.31,765.17,116.70,-918.95,384.28,0.68,6.02,1.61,-316.21
4470,771.81,770.72,754.79,763.27,765.14,122.56,-912.11,390.62,2.31,3.98,0.18,-316.71
4508,771.64,770.82,754.82,763.18,765.11,133.79,-941.89,386.72,2.46,4.27,1.03,-317.24
4546,771.57,770.87,754.79,763.10,765.09,115.72,-932.13,364.75,0.86,0.07,1.21,-317.84
4593,771.55,770.87,754.70,762.95,765.02,90.82,-883.30,349.12,1.32,-1.15,0.04,-318.33
4632,771.37,770.95,754.66,762.87,764.96,191.89,-893.07,399.90,-14.57,-15.32,-0.69,-318.33
4670,771.22,771.07,754.58,762.75,764.90,147.46,-1015.62,263.18,-5.07,6.35,1.15,-317.46
4708,770.78,771.28,754.57,762.68,764.83,127.44,-948.24,377.93,-1.60,3.74,2.95,-317.96
4746,770.22,771.30,754.56,762.77,764.71,118.65,-941.41,375.00,-1.22,-0.95,1.37,-317.59
4784,769.89,771.46,754.54,762.72,764.65,115.23,-937.01,380.86,-2.82,-3.79,2.29,-317.94
4825,769.57,771.62,754.51,762.62,764.58,104.98,-929.69,373.54,0.00,2.96,1.08,-318.17
4863,769.25,771.72,754.51,762.58,764.52,117.68,-936.04,370.61,-2.49,-1.76,-2.88,-318.22
4901,769.16,771.79,754.50,762.58,764.51,115.23,-943.85,375.49,-2.37,-2.57,2.22,-318.70
4939,769.13,771.85,754.42,762.58,764.50,113.77,-938.96,374.02,-1.18,0.55,-0.25,-318.59
4977,768.83,771.96,754.39,762.57,764.44,135.74,-938.48,388.67,-0.61,-1.27,0.62,-318.55
5017,768.65,772.10,754.44,762.56,764.44,117.19,-937.99,368.16,-0.60,1.55,3.98,-320.41
5056,768.69,772.18,754.45,762.67,764.50,128.91,-940.92,371.09,0.76,0.23,-0.57,-322.33
5094,768.58,772.20,754.51,762.72,764.50,112.30,-932.62,374.51,-0.08,0.82,1.30,-323.52
5132,768.32,772.30,754.48,762.80,764.47,112.79,-937.01,377.44,-1.84,1.37,-1.08,-324.24
5170,768.17,772.37,754.60,762.95,764.52,119.14,-938.48,382.32,-1.42,1.98,2.13,-327.36
5208,768.25,772.45,754.65,762.99,764.58,132.32,-938.48,369.63,3.92,1.81,-0.92,-329.62
5248,768.40,772.48,754.67,763.20,764.69,130.37,-943.85,372.56,1.33,3.10,0.30,-331.61
5286,768.44,772.54,754.75,763.18,764.73,129.88,-938.48,378.42,2.24,2.67,-1.59,-333.00
5325,768.31,772.69,754.81,763.31,764.78,135.74,-938.96,376.95,3.95,2.50,0.23,-334.23
5363,768.25,772.83,754.90,763.47,764.86,131.35,-941.41,375.98,-0.26,1.01,1.07,-333.00
5401,767.96,772.92,754.87,763.63,764.85,129.88,-936.52,382.81,0.34,0.28,-0.24,-334.22
5439,767.78,773.09,754.97,763.72,764.89,110.35,-948.73,371.09,0.59,2.02,0.61,-334.02
5479,767.73,773.13,755.00,763.81,764.92,121.09,-937.01,381.35,1.67,2.27,-1.20,-334.38
5522,767.97,773.15,754.92,763.78,764.96,118.65,-932.13,384.77,1.72,2.66,-0.39,-334.92
5560,768.10,773.06,754.97,763.73,764.97,128.91,-933.59,368.65,0.41,-0.82,-3.75,-333.73
5598,768.15,773.16,755.00,763.82,765.03,129.88,-928.22,406.25,2.59,3.26,-0.24,-334.32
5636,768.24,773.14,754.98,763.78,765.03,129.88,-932.13,366.70,4.21,3.72,-1.34,-334.06
5674,768.17,773.26,755.06,763.86,765.09,119.14,-928.71,371.09,0.59,1.79,-0.33,-334.27
5715,767.98,773.34,755.07,763.91,765.08,140.62,-951.17,382.32,0.20,1.09,-1.77,-334.98
5753,767.89,773.46,755.05,763.98,765.10,111.33,-929.69,368.16,1.56,-0.02,0.82,-335.94
5791,767.60,773.60,755.14,764.05,765.10,114.26,-935.55,381.35,1.69,1.62,0.13,-336.49
5828,767.50,773.60,755.17,764.10,765.09,117.19,-928.22,367.68,0.44,2.70,2.81,-337.01
5866,767.42,773.61,755.20,764.19,765.11,126.46,-932.13,385.74,-1.75,1.95,1.40,-337.95
5904,767.32,773.64,755.24,764.18,765.10,123.05,-930.66,376.95,0.99,1.49,1.54,-338.08
5948,767.14,773.63,755.22,764.09,765.02,123.54,-940.43,382.81,-0.23,2.18,1.95,-336.96
5985,766.72,773.75,755.21,764.12,764.95,125.49,-936.04,385.74,0.24,-1.00,1.28,-338.14
6023,766.48,773.89,755.22,764.12,764.93,119.14,-946.78,374.51,0.40,0.73,-1.31,-339.07
6061,766.45,773.89,755.25,764.23,764.95,110.84,-950.68,364.75,2.08,-0.44,-2.74,-340.27
6098,766.44,773.99,755.31,764.37,765.03,117.19,-938.96,359.86,4.32,2.78,1.91,-341.19
6136,766.47,773.85,755.39,764.46,765.04,122.56,-922.85,375.98,2.44,-1.76,0.37,-341.16
6177,766.53,773.57,755.42,764.56,765.02,104.00,-925.78,382.32,0.31,0.92,1.37,-340.52
6214,766.58,773.33,755.43,764.54,764.97,129.88,-929.20,383.79,2.46,2.08,1.53,-339.91
6252,767.00,773.05,755.48,764.43,764.99,132.81,-930.18,369.14,0.49,2.00,-1.21,-337.41
6291,767.81,772.50,755.26,764.27,764.96,121.09,-926.27,382.32,2.37,0.46,-0.74,-334.00
6329,768.87,772.13,755.11,763.84,764.99,119.63,-937.01,384.77,0.18,2.37,-0.47,-331.40
6367,770.10,771.68,755.03,763.63,765.11,130.37,-920.41,378.42,-0.92,0.63,-2.09,-328.29
6407,771.29,771.37,754.80,763.50,765.24,130.37,-926.27,378.91,0.32,2.64,-1.06,-324.46
6451,772.04,771.34,754.81,763.60,765.45,122.07,-935.06,383.30,2.85,0.98,1.65,-325.64
6489,771.72,771.39,754.86,763.70,765.42,121.09,-941.41,381.35,-2.11,3.52,1.75,-326.93
6527,771.51,771.55,754.99,763.92,765.50,135.25,-935.06,381.84,-0.35,2.34,0.45,-330.58
6566,771.50,771.81,755.03,763.88,765.55,130.37,-924.80,372.07,-3.17,1.98,1.22,-331.94
6603,771.46,771.85,754.98,763.87,765.54,125.00,-935.06,378.91,-0.62,0.69,-0.09,-332.53
6644,771.59,771.98,754.99,763.91,765.61,116.21,-944.34,379.88,-0.60,2.51,0.51,-333.69
6682,771.76,772.03,755.01,764.07,765.72,125.98,-930.18,379.88,0.31,3.55,0.67,-335.98
6720,771.89,771.87,755.15,764.27,765.79,115.23,-942.87,387.70,2.40,-0.20,-1.08,-335.73
6758,771.76,771.68,755.42,764.64,765.88,113.77,-926.76,389.65,5.10,4.76,-1.47,-336.35
6795,771.74,771.41,755.68,765.01,765.96,125.98,-929.20,371.09,4.77,3.70,-1.35,-339.19
6833,771.76,771.27,755.91,765.32,766.06,136.23,-914.55,395.02,4.65,2.52,-0.93,-341.50
6874,771.46,771.17,756.29,765.76,766.17,122.07,-926.76,402.83,2.70,0.95,-2.10,-344.94
6912,771.34,771.17,756.47,766.08,766.27,116.70,-937.99,375.00,1.18,2.66,0.07,-347.88
6950,771.08,771.14,756.70,766.42,766.34,124.51,-937.01,396.00,0.13,2.86,-0.63,-351.46
6987,771.40,771.19,756.78,766.59,766.49,121.09,-920.90,403.32,1.33,0.28,1.43,-354.26
7025,771.73,771.33,756.69,766.70,766.62,133.79,-923.34,402.34,1.49,2.19,-1.56,-354.85
7066,771.98,771.40,756.76,766.49,766.66,127.93,-938.48,393.07,-2.04,2.69,-0.85,-353.94
7104,772.14,771.41,756.64,766.31,766.62,129.39,-925.78,380.86,-2.56,0.38,2.72,-351.91
7142,772.25,771.25,756.55,766.18,766.56,133.79,-927.25,399.90,-2.37,1.00,-2.18,-350.64
7179,772.52,771.16,756.47,766.09,766.56,133.30,-929.69,387.70,2.31,0.99,-2.81,-349.99
7218,772.76,770.80,756.52,765.95,766.51,127.44,-933.59,401.37,1.55,4.20,2.55,-349.62
7255,772.53,770.70,756.47,765.98,766.42,115.23,-931.15,397.95,0.54,1.64,-0.74,-348.61
7296,771.93,770.56,756.54,766.01,766.26,130.86,-937.99,383.79,0.46,2.02,0.93,-347.32
7334,771.54,770.50,756.52,766.01,766.14,120.61,-932.13,395.51,2.01,2.77,-2.41,-345.98
7378,771.57,770.42,756.51,766.11,766.15,122.56,-936.52,409.18,1.79,1.55,0.87,-346.60
7416,772.02,770.20,756.50,766.19,766.23,122.56,-923.34,399.41,4.24,3.91,-0.44,-347.14
7454,772.28,770.00,756.46,765.97,766.18,124.51,-916.50,396.00,0.98,-0.02,1.27,-344.53
7492,772.37,769.80,756.41,765.68,766.06,121.58,-932.62,389.16,-0.37,-1.72,0.98,-340.22
7532,773.67,769.55,756.09,765.29,766.15,116.21,-934.08,399.41,0.03,-0.44,-0.71,-337.65
7570,776.22,768.86,755.68,764.79,766.39,124.02,-942.38,397.46,0.12,1.08,-4.39,-334.76
7608,780.01,768.16,755.37,764.32,766.97,136.23,-923.34,405.76,-0.46,1.71,0.15,-335.30
7645,782.23,767.82,755.26,764.25,767.39,130.86,-921.39,393.07,-1.47,-1.49,2.00,-339.35
7683,783.19,767.76,755.17,764.09,767.55,139.16,-914.06,407.71,0.26,-1.51,0.24,-340.54
7721,783.60,767.72,755.09,763.87,767.57,117.19,-935.06,385.74,-2.08,1.22,2.07,-338.71
7763,784.20,767.68,755.04,763.81,767.68,118.65,-922.85,398.44,-2.72,0.23,0.89,-339.72
7801,784.14,768.18,755.07,763.85,767.81,138.67,-919.43,393.55,2.16,2.05,1.69,-345.43
7839,783.57,768.60,755.12,763.92,767.80,136.23,-935.06,395.02,-3.05,2.40,0.51,-347.39
7877,783.04,769.13,755.13,763.89,767.80,123.05,-919.43,391.11,-3.55,0.21,1.27,-348.81
7914,782.92,769.65,755.19,764.00,767.94,119.63,-934.57,379.39,-2.72,2.89,-1.39,-347.75
7952,783.11,769.70,755.24,764.28,768.08,129.88,-938.96,373.54,1.37,3.70,0.02,-351.18
7992,783.74,769.65,755.34,764.41,768.29,127.93,-936.52,387.70,0.66,2.92,0.78,-354.41
8030,783.40,769.67,755.43,764.52,768.25,126.46,-934.57,382.81,0.82,2.56,-0.29,-355.25
8068,782.99,769.54,755.61,764.73,768.22,129.39,-951.66,383.30,2.39,3.37,1.31,-357.91
8106,782.68,769.33,755.76,765.01,768.19,135.74,-927.73,396.00,5.73,3.47,-0.08,-359.89
8144,782.14,769.06,755.94,765.27,768.10,129.39,-930.18,381.84,6.07,1.84,-1.79,-359.91
8182,781.49,768.74,756.09,765.30,767.91,119.14,-939.45,389.16,5.36,3.37,0.71,-357.52
8223,780.81,768.25,756.19,765.35,767.65,138.18,-927.73,412.60,2.08,0.18,-1.78,-352.89
8261,780.26,767.81,756.34,765.51,767.48,137.21,-920.41,420.41,5.38,1.15,-1.06,-350.07
8305,780.10,767.34,756.39,765.45,767.32,134.77,-921.39,423.83,4.04,-1.02,1.61,-342.82
8343,780.49,767.14,756.28,765.38,767.32,122.56,-920.90,418.95,1.64,0.15,-2.21,-341.08
8381,780.80,767.17,756.22,765.15,767.34,125.98,-933.11,405.76,-0.60,0.48,0.04,-339.50
8419,780.78,767.05,756.19,765.13,767.29,131.35,-924.32,413.09,-1.44,0.83,0.53,-337.48
8460,780.81,767.00,756.05,764.89,767.19,126.46,-916.50,407.71,-0.53,-0.32,2.03,-332.95
8498,780.83,767.03,755.89,764.50,767.06,139.65,-918.95,406.74,-2.63,-1.21,0.27,-327.07
8536,780.84,767.03,755.66,763.99,766.88,130.37,-925.78,408.20,-4.93,-1.11,1.66,-319.44
8573,780.82,766.89,755.30,763.59,766.65,132.81,-932.13,390.62,-2.79,-0.21,1.32,-311.12
8611,781.33,766.63,755.12,763.24,766.58,130.37,-919.43,398.44,0.27,0.65,1.48,-303.71
8649,781.95,766.53,754.96,763.02,766.61,130.37,-916.02,392.58,0.69,1.02,-1.05,-300.11
8690,782.20,766.47,754.93,763.02,766.65,132.81,-932.13,393.07,-1.98,1.01,-1.11,-299.98
8728,782.40,766.55,754.98,763.05,766.74,136.23,-921.39,394.04,0.63,-0.82,2.98,-302.19
8765,782.58,766.43,754.92,763.08,766.75,133.79,-934.57,401.37,1.35,1.40,-0.16,-301.57
8804,782.54,766.42,755.08,763.29,766.83,125.49,-921.39,408.69,1.56,2.06,-1.02,-306.26
8841,781.91,766.47,755.15,763.34,766.72,118.65,-921.87,417.97,1.79,2.84,0.38,-305.46
8882,781.49,766.50,755.17,763.37,766.63,132.32,-918.95,394.04,0.05,0.66,-0.82,-305.10
8928,781.29,766.37,755.08,763.05,766.45,131.84,-937.50,391.60,-0.35,2.15,-1.55,-297.77
8966,780.50,766.09,754.83,762.55,765.99,129.39,-920.90,396.97,-3.37,0.66,2.76,-289.48
9004,779.27,765.40,754.38,761.70,765.19,129.39,-898.44,418.95,-4.85,-0.36,-1.04,-261.88
9042,780.09,763.79,753.41,760.29,764.40,109.37,-925.29,384.28,-9.47,0.35,-2.16,-223.81
9080,781.59,761.89,752.71,759.33,763.88,138.67,-925.78,383.30,-6.48,-0.61,-3.34,-178.43
9120,783.75,760.68,752.21,758.78,763.85,152.83,-940.43,363.77,-5.08,-0.79,-2.34,-151.66
9158,787.96,760.39,751.94,758.83,764.78,140.14,-939.94,382.32,1.62,3.23,-1.22,-172.87
9196,797.16,760.66,752.12,759.18,767.28,132.81,-906.74,394.53,4.99,4.88,-4.73,-238.61
9239,810.50,762.00,752.36,759.72,771.14,178.22,-923.34,390.62,-1.32,2.70,-0.20,-297.14
9277,824.23,763.46,752.36,760.16,775.05,124.51,-913.57,382.32,6.12,5.21,-0.57,-362.06
9315,831.81,765.38,752.30,760.46,777.49,142.09,-947.27,371.58,-3.18,0.43,1.22,-487.60
9355,831.18,767.13,752.35,760.69,777.84,137.70,-955.08,355.47,-2.09,3.08,6.01,-524.81
9393,827.00,768.46,752.32,760.86,777.16,144.53,-935.55,376.95,1.61,1.64,4.11,-513.31
9430,823.55,769.67,752.21,760.89,776.58,138.18,-938.48,379.88,-3.08,1.48,2.10,-492.11
9468,821.05,770.82,752.05,760.69,776.15,126.95,-955.57,372.07,-8.06,3.44,1.00,-482.60
9506,820.58,771.37,751.74,759.95,775.91,131.35,-934.08,377.93,-6.53,2.37,3.86,-472.14
9544,821.04,771.38,751.31,759.14,775.72,130.37,-922.85,361.82,-10.15,1.31,0.50,-453.11
9585,821.15,771.02,751.03,758.74,775.48,144.04,-957.03,363.77,-3.16,3.25,-0.47,-437.95
9640,821.08,770.10,750.98,758.82,775.24,136.72,-954.10,354.00,8.15,0.43,-0.04,-420.20
9678,821.90,769.78,751.10,759.23,775.50,133.79,-945.31,370.61,11.28,1.88,-0.12,-423.62
9716,822.37,769.53,751.33,759.92,775.79,120.12,-917.97,385.25,5.85,-0.88,-1.08,-429.47
9753,821.10,769.80,751.61,760.72,775.81,126.46,-937.50,385.74,7.58,3.08,1.17,-437.63
9791,819.01,770.47,751.97,762.13,775.89,133.30,-929.69,390.62,7.65,-0.15,-0.87,-459.18
9831,814.31,772.71,753.21,765.65,776.47,138.18,-934.08,371.09,11.53,3.85,1.51,-457.68
9869,803.82,777.13,756.21,771.74,777.23,133.30,-939.94,381.84,11.44,4.50,7.60,-587.56
9907,787.06,782.61,761.31,779.42,777.60,121.58,-917.48,421.39,8.47,3.95,8.39,-772.47
9945,767.95,786.81,767.30,785.63,776.92,168.46,-929.20,466.80,2.41,10.73,6.57,-811.79
9983,755.27,787.82,772.74,788.58,776.10,110.35,-889.65,366.21,-26.53,1.98,8.32,-776.14
10021,751.80,783.35,776.25,787.57,774.74,290.04,-1009.77,409.67,-73.15,33.78,51.47,-722.31
10062,750.62,774.96,775.93,783.62,771.28,110.84,-1056.15,320.80,-99.11,23.86,78.28,-595.16
10100,749.90,766.54,771.18,776.82,766.11,100.59,-1312.99,199.71,-108.70,18.92,132.38,-487.01
10138,749.71,760.14,762.50,765.81,759.54,-27.34,-1447.75,7.32,14.41,21.65,159.51,-124.28
10176,749.55,756.48,753.41,758.05,754.37,-216.31,-1634.28,226.07,151.24,33.69,149.24,-53.05
10214,749.56,754.18,749.03,755.28,752.01,124.51,-2000.00,167.48,250.13,52.73,31.58,-32.50
10254,749.79,753.57,748.73,755.17,751.81,-155.76,-1924.80,119.63,96.78,-5.31,-52.98,-36.45
10292,749.77,753.26,748.56,755.02,751.65,301.76,-627.44,21.00,92.70,33.05,-26.61,-37.26
10330,749.97,753.27,748.46,754.82,751.63,674.32,-692.87,-91.31,71.89,97.86,-52.95,-38.51
10368,750.06,753.19,748.40,754.77,751.61,663.09,-453.61,-169.43,-11.31,160.15,-104.77,-39.01
10406,750.08,753.04,748.38,754.71,751.55,567.87,-650.39,-119.63,-77.30,177.35,-145.33,-37.95
10444,749.98,752.94,748.38,754.54,751.46,419.92,-862.30,-25.39,-53.33,162.56,-188.92,-35.52
10485,749.93,752.93,748.36,754.48,751.43,326.66,-1062.50,-26.37,-33.74,132.23,-209.18,-35.34
10522,749.84,752.96,748.36,754.47,751.41,200.20,-1236.33,29.79,-20.45,104.05,-220.27,-35.59
10563,749.66,752.80,748.34,754.41,751.30,28.32,-1396.97,13.18,-15.62,63.85,-209.28,-34.25
10601,749.54,752.78,748.27,754.47,751.26,-54.20,-1457.52,-69.82,-20.71,52.08,-178.24,-36.37
10641,749.59,752.71,748.23,754.43,751.24,-231.45,-1375.49,-119.63,-49.83,50.56,-147.48,-36.50
10682,749.46,752.66,748.17,754.43,751.18,-167.97,-1483.89,83.01,-86.27,29.70,-146.53,-37.51
10719,749.41,752.61,748.20,754.54,751.19,-245.61,-1265.14,290.53,-98.44,3.58,-130.69,-37.45
10757,749.43,752.52,748.10,754.47,751.13,-308.11,-1246.58,364.26,-56.83,-23.48,-89.39,-38.61
10795,749.32,752.57,748.08,754.41,751.10,-441.89,-1400.39,444.34,-94.47,-71.54,-73.92,-38.96
10833,749.29,752.59,748.01,754.38,751.07,-1037.11,-897.95,504.39,-30.43,-76.15,-59.95,-41.15
10871,750.02,752.71,748.16,754.25,751.28,-60.06,-2000.00,705.57,-65.15,-88.87,38.42,-37.04
10912,766.97,752.58,747.99,753.96,755.37,450.68,-2000.00,40.53,-53.21,9.21,181.64,-69.38
10950,804.05,753.30,748.26,754.41,765.00,532.23,-1045.90,925.78,53.41,124.19,169.91,-129.78
10988,841.59,754.40,748.32,754.78,774.77,541.99,-1162.60,458.01,5.94,-41.20,185.49,-284.58
11026,851.03,756.66,748.25,755.50,777.86,-200.20,-1909.67,168.95,98.44,44.60,76.77,-323.98
11064,855.75,759.58,748.46,757.17,780.24,154.30,-1053.71,355.47,78.57,13.48,14.03,-405.47
11103,855.62,760.48,748.94,759.39,781.11,112.30,-828.61,482.91,25.41,8.82,3.87,-416.47
11141,846.71,761.15,749.38,761.15,779.60,160.16,-915.04,396.48,-0.58,1.95,0.76,-381.75
11179,837.51,762.31,750.16,763.84,778.45,153.32,-943.36,375.49,14.37,2.89,4.80,-351.12
11217,832.33,763.42,751.69,766.57,778.50,151.37,-913.09,409.18,22.73,-2.32,5.85,-421.90
11255,829.54,764.27,753.75,769.01,779.14,155.76,-911.62,438.48,17.50,-1.67,3.67,-482.43
11292,827.74,764.93,755.34,771.20,779.80,144.53,-902.34,431.64,15.22,0.96,3.39,-528.40
11333,825.66,765.66,756.50,773.64,780.36,144.04,-902.83,440.43,6.83,-0.16,1.19,-560.11
11371,822.39,766.30,757.53,776.14,780.59,157.23,-918.46,431.64,7.51,-1.23,3.02,-587.77
11409,816.99,767.33,758.66,778.98,780.49,144.53,-903.32,448.73,0.75,-0.92,4.87,-617.39
11446,809.31,768.47,760.03,782.05,779.96,162.11,-897.46,443.36,4.31,-1.59,3.46,-635.81
11487,799.65,770.60,762.06,785.81,779.53,147.46,-904.79,450.68,3.17,0.76,6.17,-666.68
11525,788.65,773.46,764.64,790.18,779.23,150.39,-911.13,449.22,7.24,3.73,7.40,-709.65
11565,774.93,776.14,768.28,795.06,778.60,141.60,-937.50,446.78,11.89,5.15,4.90,-750.73
11603,762.10,778.07,771.63,798.33,777.53,170.90,-963.38,447.75,11.40,10.54,8.34,-763.14
11641,753.63,778.04,774.22,798.52,776.10,143.55,-960.94,422.36,-8.85,1.89,28.63,-736.50
11679,751.31,774.55,775.71,795.04,774.15,262.21,-958.50,583.50,-37.80,86.89,76.20,-695.01
11717,750.45,768.98,773.73,787.50,770.16,233.40,-1113.28,438.48,-174.83,30.66,142.07,-567.29
11755,749.98,764.21,763.76,770.73,762.17,206.54,-1482.91,275.39,-89.87,45.05,248.70,-155.62
11798,749.63,757.42,753.18,759.35,754.90,-33.20,-2000.00,807.62,19.02,47.11,250.13,-22.48
11836,749.37,754.90,749.41,755.82,752.38,422.85,-1740.72,343.26,99.26,25.26,192.47,-32.36
11874,749.46,753.78,748.72,755.24,751.80,386.72,-177.73,420.90,-6.99,17.95,74.47,-37.26
11912,749.44,753.48,748.46,754.93,751.58,620.12,-714.84,102.05,56.64,-14.27,-35.42,-39.46
11949,749.43,753.13,748.34,754.87,751.44,519.04,-473.63,78.61,50.67,-40.61,-82.58,-40.66
11990,749.47,752.92,748.32,754.73,751.36,496.09,-590.33,47.85,43.56,-44.77,-133.87,-38.33
12028,749.39,752.80,748.29,754.71,751.30,458.98,-756.35,102.54,13.06,-39.60,-186.83,-38.07
12066,749.31,752.77,748.27,754.57,751.23,342.77,-959.96,222.66,-9.91,-30.08,-217.49,-37.01
12104,749.30,752.77,748.20,754.50,751.19,257.32,-1249.02,404.30,-35.44,-44.95,-226.12,-37.94
12142,749.14,752.68,748.19,754.51,751.13,157.23,-1485.84,490.72,-22.19,-49.63,-220.11,-37.73
12180,749.15,752.67,748.16,754.51,751.12,182.13,-1474.61,343.75,-15.62,-40.06,-199.89,-38.36
12220,749.08,752.62,748.14,754.51,751.09,155.76,-1645.02,220.21,-59.22,2.78,-184.56,-38.25
12258,749.02,752.60,748.14,754.42,751.05,-80.08,-1874.02,176.27,-78.17,53.43,-219.26,-37.35
12296,749.06,752.51,748.13,754.48,751.04,-857.91,-1432.62,247.07,-125.65,64.91,-212.82,-37.63
12334,748.87,752.43,748.10,754.47,750.97,-1769.04,-1436.04,174.32,-68.69,80.96,-114.90,-37.70
12372,748.90,752.47,747.95,754.42,750.94,-1758.79,-1257.81,303.71,-87.45,-47.15,23.88,-42.15
12417,765.76,752.33,748.00,754.10,755.05,1999.94,970.21,-456.54,-114.53,-84.76,136.31,-66.32
12455,801.55,752.92,748.25,754.55,764.32,-173.83,-2000.00,1133.30,109.73,130.34,183.31,-126.71
12493,837.15,753.81,748.36,754.83,773.54,294.92,-1528.81,-104.49,35.02,32.04,168.89,-279.10
12531,838.27,756.13,748.29,755.42,774.52,102.54,-1598.63,-238.77,-37.11,-33.65,95.11,-279.44
12569,840.43,761.21,748.48,756.96,776.77,326.17,-1438.48,128.42,88.57,10.70,19.76,-369.09
12607,842.06,765.31,749.31,759.10,778.95,176.76,-895.02,482.91,50.12,15.76,6.86,-415.36
12648,833.19,768.41,749.74,760.08,777.86,159.18,-913.57,416.02,-3.47,2.95,7.76,-424.22
12686,823.90,770.69,750.01,760.72,776.33,142.58,-938.96,383.30,-2.99,-0.83,6.69,-421.79
12724,814.67,773.19,750.20,761.10,774.79,134.77,-903.32,402.83,-8.71,-3.46,8.42,-421.93
12762,807.26,776.34,750.40,761.69,773.92,151.37,-928.22,372.56,-13.53,-0.92,9.31,-456.32
12800,803.59,779.27,750.78,763.11,774.19,145.51,-977.05,347.66,7.52,0.65,8.37,-486.50
12838,803.55,781.24,751.68,765.11,775.39,152.34,-954.10,369.14,22.48,-3.29,4.01,-543.64
12878,802.91,782.72,753.00,767.86,776.62,142.58,-920.90,426.27,20.95,1.29,5.10,-572.09
12916,799.66,783.97,754.76,770.76,777.29,148.44,-916.99,406.25,13.95,-2.65,5.76,-559.61
12954,794.10,785.18,756.85,773.87,777.50,133.30,-895.02,420.41,17.21,2.95,2.55,-698.34
12992,787.05,786.49,759.05,777.08,777.42,122.56,-894.04,427.25,12.40,0.73,5.89,-760.30
13030,779.87,787.82,761.41,780.13,777.31,141.11,-923.34,431.15,3.56,4.12,5.40,-801.55
13071,773.08,788.86,764.05,783.41,777.35,133.79,-922.36,422.36,9.16,4.11,2.04,-845.57
13109,766.46,789.72,766.54,786.14,777.22,102.05,-774.90,449.22,10.37,0.51,2.68,-858.24
13146,759.33,790.30,769.25,788.87,776.94,160.16,-901.86,421.39,6.19,3.73,4.53,-855.56
13184,753.47,788.71,771.85,790.49,776.13,194.82,-982.42,460.45,-7.69,-5.72,9.80,-798.41
13222,751.09,782.06,774.09,788.80,774.01,313.96,-1218.26,621.09,-57.60,34.95,33.23,-686.39
13260,750.20,771.20,773.63,782.90,769.48,220.21,-1159.67,396.00,-175.70,32.15,103.06,-536.06
13304,749.62,761.36,766.69,770.97,762.16,359.86,-1769.04,283.69,-91.50,29.53,234.15,-237.61
13342,749.41,757.04,756.29,760.54,755.82,351.07,-2000.00,254.39,102.29,77.00,250.13,-41.84
13380,749.33,755.04,750.19,756.43,752.74,-3.42,-1564.45,457.52,250.13,131.89,196.99,-26.26
13418,749.83,753.81,748.81,755.39,751.96,659.67,-147.46,-128.42,207.63,172.12,79.63,-37.76
13456,749.60,753.54,748.60,755.19,751.73,608.89,-959.47,-42.97,97.95,116.95,-99.89,-39.52
13494,749.68,753.20,748.34,755.09,751.58,381.35,-580.57,-46.39,99.88,91.96,-178.51,-44.56
13535,749.59,752.94,748.32,754.91,751.44,284.18,-752.44,-121.58,95.98,54.44,-234.91,-41.05
13573,749.56,752.82,748.22,754.78,751.35,220.70,-883.30,-206.05,80.53,55.37,-249.85,-41.13
13611,749.57,752.88,748.18,754.68,751.33,142.58,-1198.73,-213.87,41.46,62.15,-250.14,-41.61
13649,749.40,752.88,748.19,754.72,751.30,-73.73,-1382.81,-169.92,-8.89,69.27,-250.14,-41.60
13687,749.28,752.82,748.23,754.66,751.25,-197.75,-1796.39,-142.58,-20.69,98.17,-214.86,-39.21
13727,749.26,752.87,748.22,754.64,751.25,-515.62,-1761.72,-312.50,-49.72,82.32,-167.21,-39.56
13765,749.13,752.97,748.23,754.59,751.23,-629.88,-1485.35,-141.60,-103.15,21.45,-96.51,-39.31
13803,749.29,752.84,748.25,754.66,751.26,-555.18,-1519.53,284.67,-82.65,-78.98,-73.43,-38.66
13841,749.24,752.82,748.10,754.71,751.22,-547.85,-865.72,485.35,-82.65,-201.25,-45.44,-43.93
13879,749.20,752.84,748.16,754.56,751.19,-100.59,-974.61,758.30,-86.10,-250.14,5.39,-40.23
13917,749.20,752.74,748.11,754.62,751.16,13.67,-1051.27,589.84,-36.79,-234.81,-0.08,-41.48
13958,749.20,752.68,748.10,754.63,751.15,43.46,-852.05,526.86,-53.98,-191.05,-16.63,-41.45
13996,749.21,752.77,748.07,754.46,751.13,-6.84,-833.50,765.14,-54.85,-109.38,-9.21,-41.47
14034,752.99,752.81,748.13,754.22,752.04,1375.49,1999.94,-380.86,250.13,250.13,115.09,-43.36
14072,764.89,753.11,747.93,754.05,754.99,-455.57,-567.87,309.08,250.13,154.18,91.71,-75.04
14110,796.06,753.23,748.41,754.15,762.96,318.85,-1207.52,630.86,34.28,165.90,78.64,-113.37
14150,820.45,753.87,748.55,754.48,769.33,303.22,-1130.86,234.86,121.71,111.91,50.62,-186.16
14188,832.80,754.90,748.89,755.10,772.92,410.64,-1032.23,391.60,89.66,15.68,4.04,-262.36
14229,847.17,756.23,750.06,756.60,777.51,241.21,-835.94,435.06,53.04,6.50,3.50,-333.00
14268,856.88,757.15,750.68,757.44,780.54,181.15,-932.62,460.45,10.50,-4.09,2.37,-380.03
14306,858.87,757.61,750.87,757.80,781.29,168.95,-905.76,387.70,-0.11,2.28,1.63,-412.21
14345,857.91,757.69,750.86,757.89,781.09,165.04,-920.41,397.95,5.05,0.27,2.34,-405.03
14386,855.72,757.69,750.81,758.08,780.57,162.60,-921.87,404.30,0.83,1.49,-0.44,-388.03
14423,853.07,758.13,751.03,758.33,780.14,162.60,-914.06,404.30,-3.15,-1.36,0.50,-385.08
14462,851.67,758.79,751.07,758.87,780.10,160.16,-915.04,395.02,-1.31,0.24,4.33,-386.93
14500,851.17,759.22,751.16,758.87,780.11,152.83,-905.76,415.53,-2.92,-2.81,4.01,-394.17
14538,850.52,759.72,751.07,758.74,780.02,163.57,-919.43,401.86,-6.92,-3.21,2.85,-398.44
14576,849.61,760.06,750.95,758.61,779.81,167.48,-920.90,389.65,-3.27,1.40,1.60,-393.81
14616,849.90,760.19,750.71,758.22,779.76,163.09,-927.25,403.81,-1.89,-2.27,5.72,-392.47
14653,850.16,760.20,750.52,757.87,779.69,161.13,-921.87,395.02,-6.40,-2.34,2.50,-385.22
14691,850.19,760.26,750.27,757.67,779.60,169.92,-921.39,368.16,-9.79,1.85,-0.04,-377.38
14729,849.31,760.75,750.19,757.73,779.50,165.04,-940.43,365.72,-4.18,-0.12,4.08,-381.70
14769,847.23,761.49,750.05,757.86,779.16,156.25,-918.95,386.23,-3.02,-1.56,4.47,-388.34
14806,844.94,762.37,750.08,757.74,778.78,147.95,-929.20,384.28,-5.28,1.44,2.67,-392.02
14853,843.04,763.46,749.97,757.69,778.54,145.51,-922.36,364.26,-5.22,-5.08,6.40,-399.59
14891,842.37,764.47,749.92,757.59,778.59,138.18,-958.01,377.44,-5.65,-3.56,5.46,-408.83
14931,840.46,764.30,749.83,757.41,778.00,150.88,-965.33,356.45,2.34,0.86,-1.21,-400.93
14969,837.79,763.43,749.74,757.18,777.03,162.60,-934.08,358.89,4.10,2.10,-1.45,-386.67
15006,831.26,762.35,749.49,756.96,775.02,150.88,-925.29,376.46,-2.58,2.45,1.81,-351.85
15054,814.34,761.66,749.32,756.89,770.55,157.23,-969.24,337.40,-3.67,3.73,3.60,-248.59
15098,787.45,760.76,749.03,756.45,763.42,151.86,-955.08,371.09,-12.79,5.50,11.11,-140.55
15136,764.59,758.82,748.50,755.40,756.83,121.09,-1000.00,381.35,-27.63,-2.85,13.85,-96.98
15175,754.46,756.53,748.35,755.09,753.61,-108.40,-766.60,265.14,-37.32,-1.70,11.54,-64.67
15213,752.16,754.75,748.18,754.70,752.45,183.11,-1206.05,170.90,-110.40,-132.81,33.25,-55.66
15252,751.85,753.88,748.13,754.59,752.11,235.35,-1391.60,292.48,69.34,-150.69,26.34,-52.62
15293,751.44,753.59,748.00,754.70,751.93,177.25,-661.62,-39.06,51.01,-162.10,34.12,-56.28
15332,751.16,753.40,747.98,755.08,751.90,104.49,-1476.07,51.27,34.74,-82.94,78.32,-60.38
15370,751.04,753.70,748.08,754.93,751.94,70.80,-1722.66,-265.14,25.82,-108.63,-16.95,-56.52
15409,753.83,753.69,748.12,755.09,752.68,706.54,-979.98,420.90,20.56,-13.70,2.25,-61.91
15447,755.43,753.65,748.16,755.16,753.10,-172.36,-1373.54,-178.71,3.48,-17.66,-7.63,-64.47
15486,755.62,754.05,748.28,755.41,753.34,43.46,-865.72,481.45,-16.95,8.25,4.76,-66.99
15527,755.63,754.39,748.34,755.61,753.49,106.93,-921.87,319.82,14.81,13.15,7.13,-69.82
15565,756.40,754.82,748.48,755.89,753.90,142.58,-923.34,366.70,14.17,10.49,0.06,-74.02
15604,757.62,755.16,748.60,755.97,754.34,136.72,-905.27,396.48,6.56,4.31,0.18,-75.40
15642,759.73,755.68,748.72,756.22,755.09,154.79,-928.71,341.31,6.04,0.81,2.36,-83.41
15681,761.56,756.36,748.82,756.46,755.80,144.53,-947.75,366.70,10.82,-1.92,-1.42,-92.22
15719,763.39,757.13,749.03,756.77,756.58,145.02,-944.34,361.82,10.59,-0.84,3.46,-98.34
15760,765.40,758.13,749.35,757.15,757.51,135.25,-952.15,368.65,8.56,-0.54,4.15,-101.38
15799,767.02,759.07,749.53,757.52,758.29,144.53,-930.66,384.77,9.22,-1.24,2.89,-108.15
15837,767.80,760.20,749.79,757.89,758.92,134.77,-938.96,387.70,6.49,2.35,6.04,-112.71
15876,768.23,761.19,749.96,758.25,759.41,175.29,-948.24,379.88,1.53,1.73,0.58,-116.20
15914,768.70,762.14,750.22,758.63,759.92,131.35,-919.43,394.04,3.27,3.52,3.15,-116.63
15955,768.92,762.81,750.44,758.98,760.29,148.44,-926.76,387.70,6.18,2.25,2.72,-116.57
15994,769.06,763.54,750.63,759.13,760.59,122.56,-927.73,397.46,2.21,1.88,1.65,-115.44
16035,769.47,764.03,750.76,759.28,760.88,130.86,-929.69,391.11,1.06,2.01,1.72,-115.80
16074,769.76,764.45,750.91,759.47,761.15,126.95,-924.32,390.14,1.87,-0.11,2.15,-115.52
16112,769.96,764.89,751.04,759.65,761.38,131.35,-947.75,379.88,2.12,0.89,-0.70,-115.60
16151,770.00,765.10,751.05,759.81,761.49,136.72,-934.57,391.11,2.13,3.29,0.53,-116.60
16191,770.05,765.20,751.13,759.99,761.59,142.58,-930.18,396.97,1.10,1.25,-1.22,-117.78
16230,770.26,765.29,751.23,760.14,761.73,120.61,-930.18,385.25,1.47,3.08,1.18,-119.96
16269,770.46,765.27,751.24,760.11,761.77,121.58,-935.55,392.09,2.58,-0.79,1.34,-120.29
16307,770.70,765.16,751.31,760.18,761.84,130.86,-929.20,386.72,-0.75,1.45,1.56,-121.51
16346,770.92,765.17,751.27,760.19,761.89,123.54,-930.66,395.02,1.59,0.78,0.17,-122.44
16384,771.10,765.05,751.21,760.09,761.86,129.39,-922.36,396.97,1.54,1.91,-2.56,-121.92
16425,771.32,764.93,751.34,760.09,761.92,124.02,-920.90,396.00,0.23,1.90,0.28,-121.81
16463,771.36,764.93,751.36,760.27,761.98,126.46,-920.90,397.95,1.24,0.67,1.36,-123.58
16501,771.12,764.94,751.36,760.30,761.93,137.70,-929.69,394.53,-2.04,0.94,-0.31,-123.18
16539,770.96,764.92,751.37,760.34,761.89,131.35,-940.92,402.34,-0.79,1.42,2.32,-122.99
16578,770.92,764.92,751.40,760.33,761.89,125.49,-915.04,395.02,-0.77,-0.36,-0.92,-122.92
16615,771.12,764.86,751.43,760.29,761.92,143.55,-924.32,396.48,-0.07,2.34,0.41,-123.00
16658,771.08,764.91,751.44,760.46,761.97,135.74,-939.94,390.62,1.00,1.27,0.33,-124.51
16696,770.94,764.86,751.48,760.57,761.96,124.02,-935.55,405.76,2.18,1.29,-0.12,-125.18
16734,770.72,764.77,751.61,760.58,761.92,124.51,-935.55,392.09,0.90,3.63,-0.66,-124.86
16772,770.84,764.72,751.57,760.42,761.89,134.77,-928.22,402.83,0.06,2.15,-2.92,-123.56
16810,771.20,764.64,751.54,760.34,761.93,118.65,-927.25,394.04,-0.43,1.24,-1.32,-123.71
16850,771.60,764.43,751.41,760.17,761.90,136.23,-929.69,394.53,1.02,1.21,-0.39,-122.67
16891,771.94,764.23,751.41,760.02,761.90,135.25,-923.83,395.02,-1.73,3.04,0.25,-121.58
16929,772.21,764.12,751.35,760.00,761.92,124.02,-925.78,398.93,1.26,0.05,-0.60,-121.93
16971,772.48,764.07,751.37,760.01,761.98,130.37,-935.06,401.37,-1.00,0.07,0.09,-122.75
17010,772.80,763.99,751.32,759.84,761.99,131.35,-921.39,403.81,-1.04,1.69,0.08,-121.71
17048,773.24,763.93,751.32,759.81,762.07,127.93,-933.59,393.07,-0.24,2.42,-0.50,-122.48
17087,773.58,763.89,751.33,759.86,762.17,127.93,-923.34,411.62,-0.69,2.76,2.06,-123.97
17128,773.75,763.83,751.32,759.86,762.19,131.84,-941.41,388.67,1.66,0.20,0.62,-124.36
17167,773.85,763.85,751.34,759.90,762.23,125.00,-940.92,387.21,1.86,0.15,2.13,-125.03
17205,773.61,763.90,751.42,759.99,762.23,120.12,-920.41,392.09,-0.89,1.31,2.82,-125.41
17243,773.48,763.86,751.40,759.97,762.18,119.14,-920.90,395.02,0.08,2.24,0.99,-124.76
17282,773.50,763.85,751.38,759.83,762.14,134.77,-924.80,398.93,-0.97,1.72,-0.53,-123.24
17323,773.70,763.82,751.26,759.82,762.15,125.00,-926.76,404.79,-3.03,-0.82,0.19,-123.78
17362,773.72,763.82,751.27,759.75,762.14,125.49,-927.25,396.00,0.44,1.63,0.93,-123.06
17400,773.83,763.82,751.21,759.73,762.15,129.88,-932.62,380.86,-0.82,2.05,3.13,-123.27
17438,773.95,764.01,751.19,759.60,762.19,130.37,-930.18,399.41,2.02,-0.13,0.63,-122.95
17477,774.15,764.01,751.20,759.51,762.22,135.25,-938.48,392.09,-0.63,-0.55,0.25,-122.59
17516,774.49,763.88,751.14,759.53,762.26,130.86,-934.08,396.97,1.82,0.29,2.33,-123.73
17556,774.71,763.91,751.20,759.57,762.35,138.18,-945.80,401.86,-0.05,2.57,-1.37,-124.61
17595,774.99,763.86,751.21,759.63,762.42,138.67,-923.83,381.35,1.81,1.17,0.97,-125.91
17634,775.13,763.87,751.29,759.78,762.52,130.86,-927.73,392.58,2.46,2.49,0.54,-127.35
17672,775.08,763.84,751.26,759.85,762.51,142.58,-928.71,398.93,2.85,-0.27,-0.37,-127.65
17710,775.09,763.77,751.26,759.85,762.49,139.16,-927.25,387.21,-0.39,1.80,-0.67,-127.50
17751,775.28,763.81,751.35,759.92,762.59,123.54,-926.76,397.95,1.33,4.23,0.56,-129.01
17792,775.13,763.79,751.41,759.99,762.58,139.65,-932.62,393.55,1.80,2.31,-0.85,-129.78
17831,775.08,763.80,751.34,760.01,762.55,124.51,-935.55,399.90,0.87,0.44,2.83,-129.05
17869,775.03,763.81,751.38,760.04,762.56,140.62,-925.78,392.09,1.54,2.79,0.52,-129.50
17911,775.03,763.78,751.41,759.96,762.55,140.62,-930.66,402.83,0.35,-0.82,-0.06,-129.10
17950,774.95,763.83,751.32,760.00,762.52,126.95,-927.73,388.18,0.20,2.08,-0.37,-128.65
17988,774.85,763.80,751.39,760.07,762.53,139.16,-936.04,399.41,1.55,0.92,2.37,-129.19
18030,774.88,763.82,751.38,760.06,762.54,124.02,-920.90,390.14,-0.29,1.90,0.69,-129.22
18068,774.81,763.78,751.36,760.04,762.50,129.88,-930.66,385.74,-2.22,2.77,3.04,-128.57
18107,774.78,763.82,751.41,759.99,762.50,119.63,-928.71,391.11,0.36,0.31,1.40,-128.61
18145,774.65,763.81,751.36,760.03,762.46,136.23,-919.92,402.83,0.79,1.10,0.37,-128.17
18184,774.53,763.83,751.37,759.99,762.43,131.84,-942.87,411.13,1.36,0.11,-1.45,-127.55
18222,774.38,763.90,751.47,760.04,762.45,134.28,-937.99,397.95,-0.34,1.04,-1.20,-128.51
18263,774.25,763.94,751.42,759.97,762.40,140.14,-924.32,391.60,0.58,-1.30,1.49,-127.08
18302,774.07,763.96,751.45,760.04,762.38,134.28,-918.46,400.39,0.00,1.12,0.12,-127.32
18340,774.03,763.97,751.41,760.09,762.38,120.61,-937.01,400.39,2.35,0.98,-0.26,-127.50
18378,774.03,763.95,751.45,760.05,762.37,126.46,-925.29,390.62,-0.30,-0.30,-2.01,-127.32
18417,774.06,764.01,751.44,760.10,762.40,130.86,-921.87,396.48,2.55,1.15,1.09,-127.79
18458,773.98,763.98,751.42,760.05,762.36,137.21,-926.76,391.60,-1.13,2.95,-0.34,-127.05
18497,774.06,763.97,751.42,760.11,762.39,128.42,-933.59,389.65,0.30,-0.50,-1.50,-127.71
18535,774.12,764.03,751.48,759.94,762.39,119.63,-933.11,395.02,-1.76,2.68,-0.22,-127.16
18573,774.14,763.92,751.38,759.93,762.34,137.70,-925.78,397.46,0.56,0.71,-1.32,-126.28
18611,774.43,763.89,751.36,759.98,762.41,130.37,-931.15,396.48,-3.59,1.36,1.12,-127.34
18650,774.52,763.83,751.34,759.82,762.38,132.81,-925.78,398.44,-0.60,1.94,0.71,-126.10
18691,774.79,763.83,751.33,759.79,762.43,130.86,-925.29,393.07,2.28,0.06,1.70,-126.52
18729,775.00,763.77,751.29,759.75,762.45,117.68,-918.95,401.86,1.32,0.83,-0.82,-126.58
18768,775.19,763.71,751.36,759.69,762.49,128.42,-918.46,394.04,0.49,0.08,-1.80,-126.57
18806,775.27,763.69,751.23,759.70,762.47,131.84,-928.22,391.60,0.23,0.66,0.80,-126.56
18849,775.38,763.69,751.24,759.64,762.49,139.16,-936.04,396.97,-1.15,2.88,2.30,-126.29
18888,775.39,763.70,751.26,759.61,762.49,127.44,-935.06,401.37,-2.27,-0.39,-1.54,-126.20
18929,775.53,763.63,751.19,759.59,762.49,140.14,-924.32,397.46,-0.16,1.69,-2.28,-126.32
18967,775.48,763.67,751.25,759.57,762.49,123.54,-932.13,391.11,0.12,0.76,2.24,-126.02
19005,775.42,763.76,751.22,759.64,762.51,125.49,-927.25,394.04,1.47,-0.08,0.65,-126.77
19044,775.39,763.80,751.24,759.63,762.52,127.93,-941.89,404.79,0.82,2.69,3.15,-126.65
19082,775.31,763.74,751.22,759.72,762.50,142.58,-919.43,397.46,0.28,-0.18,0.68,-127.03
19121,775.28,763.72,751.22,759.71,762.48,129.88,-926.76,396.00,3.15,1.27,1.38,-126.74
19162,775.11,763.80,751.22,759.71,762.46,131.35,-924.32,392.09,0.04,1.20,-2.79,-126.61
19200,775.17,763.77,751.28,759.66,762.47,131.35,-927.25,395.02,0.41,-1.47,3.60,-126.22
19239,775.13,763.70,751.25,759.72,762.45,132.32,-924.32,394.04,-0.89,1.73,0.78,-126.37
19277,775.19,763.64,751.25,759.70,762.45,140.14,-922.36,399.41,1.27,2.55,1.54,-126.21
19316,775.14,763.73,751.25,759.76,762.47,134.28,-933.11,397.46,1.74,3.09,1.00,-126.76
19354,775.17,763.72,751.25,759.72,762.46,137.70,-930.66,386.72,0.89,2.26,-1.76,-126.50
19395,775.12,763.69,751.26,759.75,762.46,123.54,-936.04,400.88,1.04,2.78,-0.35,-126.64
19433,775.14,763.70,751.23,759.67,762.43,134.77,-937.99,394.53,-1.65,3.26,1.52,-125.92
19472,775.00,763.74,751.28,759.75,762.44,136.72,-929.20,390.62,-0.11,1.65,0.69,-126.47
19510,775.05,763.77,751.34,759.69,762.46,141.11,-923.34,386.23,-1.32,1.90,-0.82,-126.30
19548,774.90,763.74,751.26,759.63,762.38,141.60,-929.69,409.18,-1.21,0.78,-0.61,-125.15
19587,774.63,763.74,751.27,759.61,762.31,133.30,-933.59,401.37,0.50,0.80,1.08,-124.13
19628,774.55,763.79,751.31,759.70,762.34,134.28,-930.66,395.02,0.91,1.25,1.27,-124.95
19666,774.71,763.93,751.33,759.68,762.41,141.11,-939.45,390.14,1.57,3.15,-1.38,-125.58
19705,774.51,763.88,751.42,759.76,762.39,134.28,-925.29,394.53,2.79,-0.65,1.11,-125.79
19743,774.27,764.07,751.39,759.79,762.38,131.84,-914.06,394.53,-1.29,0.76,3.22,-125.72
19784,774.01,764.12,751.40,759.79,762.33,139.65,-932.13,394.04,-0.23,0.92,-2.55,-125.07
19826,774.02,764.24,751.33,759.77,762.34,133.79,-936.04,416.02,-2.34,-0.83,1.71,-125.14
19865,773.98,764.28,751.32,759.71,762.32,121.58,-923.34,395.02,-0.80,1.45,1.99,-124.40
19903,774.14,764.29,751.33,759.61,762.34,119.14,-937.50,385.25,0.22,0.69,1.57,-123.75
19941,774.26,764.28,751.37,759.59,762.37,130.37,-924.32,390.14,-0.43,1.12,-2.60,-123.97
19980,774.50,764.17,751.28,759.57,762.38,125.00,-934.57,392.58,0.20,-0.05,0.06,-124.36
20018,774.58,764.26,751.29,759.53,762.41,123.05,-926.27,388.18,1.09,1.50,1.39,-124.27
20059,774.59,764.26,751.30,759.56,762.43,130.86,-926.27,396.48,0.79,1.37,0.17,-124.64
20097,774.51,764.20,751.27,759.55,762.38,136.72,-933.11,381.84,0.41,0.66,-0.85,-124.33
20136,774.46,764.16,751.27,759.45,762.33,121.58,-917.97,403.81,-0.68,0.73,-1.48,-122.85
20174,774.23,764.07,751.22,759.34,762.21,123.54,-934.57,410.64,-0.59,0.07,2.07,-120.98
20212,774.07,764.12,751.20,759.31,762.17,143.55,-938.96,391.11,-0.98,0.78,1.05,-120.37
20250,773.80,764.06,751.18,759.21,762.06,112.79,-935.06,388.67,-0.27,1.71,-0.33,-118.38
20292,773.71,764.12,751.17,759.14,762.03,128.91,-936.52,389.65,-0.66,0.95,0.28,-117.50
20330,773.32,764.12,751.24,759.22,761.97,133.30,-940.92,385.74,-1.04,0.29,1.56,-116.93
20368,772.98,764.17,751.15,759.24,761.88,128.42,-916.99,401.86,0.08,2.40,1.90,-116.53
20407,772.76,764.24,751.21,759.22,761.86,132.32,-933.59,395.51,1.78,0.83,-0.38,-115.61
20445,772.83,764.32,751.12,759.23,761.88,137.70,-938.96,380.86,-2.70,1.75,1.46,-116.62
20483,773.12,764.52,751.11,759.06,761.95,122.56,-940.43,380.86,-3.63,1.44,-0.59,-116.03
20524,773.80,764.63,750.97,758.94,762.09,120.61,-934.08,382.81,-1.24,-0.79,-0.73,-118.80
20562,774.26,764.64,750.87,758.77,762.13,131.35,-937.01,378.42,-3.06,0.70,1.63,-119.90
20601,774.38,764.69,750.87,758.61,762.14,137.70,-942.87,376.95,-2.34,0.15,1.54,-119.89
20639,774.30,764.71,750.81,758.54,762.09,125.98,-935.55,381.35,-1.11,-0.33,-0.02,-119.90
20678,774.10,764.63,750.83,758.53,762.02,121.58,-934.57,394.53,-1.89,1.55,0.88,-118.67
20722,773.84,764.70,750.76,758.50,761.95,120.61,-930.18,396.97,-1.31,2.40,1.41,-118.73
20763,773.51,764.71,750.80,758.50,761.88,125.00,-935.06,380.86,-1.27,3.61,0.75,-117.76
20802,773.43,764.80,750.76,758.52,761.88,126.95,-932.13,375.98,0.66,-0.31,1.11,-118.34
20840,773.39,764.94,750.83,758.42,761.89,128.42,-928.22,386.72,-3.66,-0.62,1.42,-118.46
20878,773.38,765.18,750.70,758.45,761.93,124.51,-940.43,382.81,-0.13,0.69,-0.67,-120.52
20917,773.45,765.30,750.75,758.38,761.97,126.95,-946.78,375.98,-0.72,-0.12,3.35,-121.30
20958,773.16,765.50,750.65,758.35,761.91,128.91,-931.64,379.88,-0.67,-0.46,0.87,-121.48
20997,772.87,765.71,750.72,758.33,761.90,132.32,-935.55,376.46,0.05,1.56,-0.10,-121.90
21035,772.50,765.80,750.68,758.44,761.85,127.93,-944.34,363.28,0.76,-2.18,4.18,-121.74
21074,772.38,765.89,750.69,758.32,761.82,121.58,-927.73,380.37,-0.45,2.79,1.37,-122.35
21112,772.37,765.91,750.65,758.19,761.78,113.77,-944.82,380.37,-0.40,0.98,-1.18,-122.99
21151,772.45,765.78,750.64,758.20,761.77,125.49,-924.80,379.88,2.51,2.21,0.66,-121.82
21192,772.75,765.73,750.59,758.13,761.80,114.75,-936.52,378.42,1.71,0.10,-0.27,-122.40
21230,772.91,765.54,750.55,758.12,761.78,129.39,-947.75,366.21,-0.98,0.37,1.99,-121.00
21269,773.04,765.58,750.57,758.03,761.81,127.93,-940.43,369.63,-1.56,-0.37,3.08,-121.74
21307,773.25,765.46,750.53,758.04,761.82,121.58,-941.41,385.74,-1.17,3.09,1.92,-121.20
21346,773.33,765.40,750.46,758.06,761.81,121.09,-940.92,370.12,1.80,-0.34,-0.13,-121.32
21384,773.33,765.28,750.47,757.97,761.76,128.91,-941.41,384.77,0.40,2.03,0.63,-120.06
21425,773.46,765.16,750.39,758.00,761.75,131.35,-938.96,373.54,0.13,2.62,-0.85,-120.64
21464,773.69,765.05,750.43,757.98,761.78,134.28,-943.36,374.51,2.92,1.99,-1.07,-120.20
21502,773.76,764.88,750.43,757.96,761.76,136.72,-928.71,364.75,-0.30,2.24,-1.36,-119.67
21541,773.79,764.73,750.42,757.97,761.73,128.42,-937.50,378.42,1.07,2.85,-1.53,-119.39
21579,773.82,764.70,750.45,757.99,761.74,127.44,-935.06,375.49,1.23,3.21,1.90,-119.18
21618,773.71,764.57,750.46,758.11,761.71,138.18,-928.22,375.98,1.80,1.43,0.44,-118.93
21663,773.55,764.58,750.47,758.08,761.67,119.14,-933.11,378.42,-0.76,3.35,-0.05,-118.52
21702,773.51,764.50,750.46,758.18,761.66,126.46,-928.22,369.63,-0.45,1.35,-1.57,-118.73
21741,773.57,764.47,750.45,758.24,761.68,125.49,-942.38,370.61,0.84,0.61,1.38,-119.11
21780,773.47,764.35,750.53,758.14,761.62,127.93,-924.80,367.68,1.43,-3.12,0.32,-117.73
21818,773.50,764.36,750.40,758.17,761.61,132.81,-954.59,384.28,0.25,0.13,0.53,-119.24
21856,773.55,764.37,750.50,758.25,761.67,137.21,-942.87,369.63,0.12,2.24,-1.38,-118.62
21897,773.60,764.35,750.43,758.20,761.65,129.39,-936.52,370.61,0.99,-1.40,0.18,-119.11
21935,773.76,764.25,750.42,758.14,761.64,120.12,-933.11,375.49,-0.21,-0.21,0.42,-118.96
21974,773.84,764.21,750.45,758.13,761.66,129.39,-944.34,383.79,-0.36,2.31,0.70,-118.81
22012,774.09,764.11,750.52,758.19,761.73,133.79,-932.62,388.18,1.76,1.84,1.02,-118.86
22051,774.29,764.07,750.47,758.25,761.77,131.84,-929.69,382.32,1.84,2.89,1.60,-119.72
22091,774.28,764.19,750.54,758.35,761.84,140.62,-936.04,370.12,0.67,1.50,-2.08,-119.68
22129,774.23,764.26,750.49,758.43,761.85,122.07,-936.52,379.39,2.05,1.91,2.34,-120.23
22167,774.03,764.22,750.60,758.52,761.84,119.14,-927.25,382.32,3.63,0.89,0.69,-119.64
22205,773.88,764.34,750.63,758.60,761.86,140.14,-940.43,374.51,2.40,4.76,-0.69,-119.61
22244,773.66,764.38,750.67,758.74,761.86,135.74,-925.29,377.93,1.32,2.26,0.16,-119.65
22282,773.62,764.32,750.74,758.80,761.87,127.44,-934.08,398.93,2.74,3.28,-3.93,-118.75
22323,773.57,764.28,750.71,758.79,761.84,115.23,-926.27,381.84,1.55,3.41,1.20,-119.18
22361,773.43,764.15,750.79,758.95,761.83,119.14,-926.76,395.02,2.01,0.99,2.66,-118.39
22399,773.57,764.21,750.77,758.83,761.84,132.32,-917.97,386.23,-1.40,2.48,0.96,-118.33
22438,773.64,764.25,750.78,758.93,761.90,142.58,-937.50,389.65,1.89,1.11,2.47,-118.92
22477,773.72,764.17,750.83,758.98,761.92,136.23,-940.43,379.88,-1.02,3.74,0.34,-118.40
22515,773.77,764.16,750.83,758.99,761.94,124.51,-927.73,395.02,0.86,2.63,-0.81,-118.51
22560,773.70,764.27,750.88,759.05,761.97,127.44,-940.43,384.28,2.05,-1.32,-0.44,-118.22
22599,773.75,764.28,750.93,759.09,762.01,116.21,-921.87,389.65,0.25,-0.25,1.51,-118.52
22637,773.59,764.32,750.87,759.13,761.98,121.09,-942.38,379.88,-0.63,2.05,2.53,-118.89
22676,773.55,764.42,750.91,759.14,762.01,128.91,-930.18,390.62,-0.10,2.21,-0.08,-118.63
22716,773.63,764.48,750.92,759.13,762.04,130.86,-937.01,397.46,1.73,-0.05,1.92,-118.88
22755,773.67,764.45,750.86,759.16,762.04,138.18,-932.62,402.34,-1.76,3.05,1.29,-119.69
22796,773.84,764.41,750.96,759.14,762.09,130.37,-930.66,392.58,-0.92,1.25,1.29,-119.47
22834,774.15,764.36,750.90,759.09,762.12,128.91,-929.20,390.62,0.78,1.15,1.69,-119.75
22873,774.28,764.38,750.94,758.97,762.14,118.65,-926.27,383.79,-1.88,1.33,1.15,-118.91
22911,774.37,764.38,750.88,759.01,762.16,141.11,-939.45,395.51,0.69,0.42,0.41,-119.84
22949,774.58,764.29,750.88,759.06,762.20,128.42,-933.59,390.14,-0.23,0.37,0.26,-120.71
22988,774.69,764.34,750.89,758.95,762.21,135.25,-939.45,378.42,0.73,0.80,1.12,-119.98
23028,774.82,764.42,750.85,758.93,762.26,139.65,-931.15,377.93,1.46,0.09,0.38,-120.80
23066,774.75,764.40,750.84,759.00,762.25,127.44,-930.18,388.67,0.23,1.56,0.18,-121.06
23105,774.69,764.41,750.90,758.89,762.22,128.91,-933.59,390.62,-0.14,1.79,1.00,-119.80
23143,774.64,764.43,750.89,758.87,762.21,130.86,-922.36,383.79,1.93,0.99,1.59,-119.74
23182,774.58,764.44,750.83,758.90,762.19,127.44,-933.59,380.86,-0.40,1.47,-0.73,-120.32
23220,774.61,764.43,750.85,758.96,762.21,133.79,-942.38,379.39,-0.73,0.94,0.89,-120.51
23261,774.66,764.40,750.91,758.84,762.20,127.44,-939.94,386.72,-0.78,2.78,-0.26,-119.32
23300,774.58,764.43,750.87,758.87,762.19,129.39,-938.96,384.28,-0.34,0.98,0.73,-119.78
23338,774.62,764.38,750.90,758.94,762.21,127.44,-940.43,382.32,1.79,0.20,0.69,-119.82
23376,774.80,764.37,750.83,758.87,762.22,135.74,-939.45,396.00,-0.68,0.53,-0.69,-120.36
23415,774.87,764.29,750.88,758.90,762.24,122.07,-928.22,391.11,0.01,3.66,-0.23,-120.05
23456,774.85,764.32,750.83,758.88,762.22,119.63,-929.69,388.67,-0.15,3.21,2.98,-120.39
23498,774.80,764.42,750.81,758.78,762.20,128.42,-937.01,380.86,0.11,1.29,-0.05,-120.19
23537,774.69,764.44,750.88,758.85,762.21,121.58,-914.55,376.95,-1.37,-0.31,0.00,-119.85
23575,774.58,764.47,750.86,758.99,762.23,134.28,-930.66,368.65,-1.49,1.98,4.02,-120.72
23614,774.48,764.59,750.89,759.00,762.24,137.21,-946.29,388.67,-0.72,0.54,1.29,-120.87
23652,774.20,764.79,751.00,759.07,762.26,135.25,-937.99,378.42,1.96,-0.53,0.42,-121.42
23696,773.84,764.98,750.97,759.20,762.25,128.42,-926.76,378.42,0.54,1.30,0.61,-122.27
23734,773.50,765.02,751.00,759.26,762.19,125.00,-944.82,382.32,-1.45,-3.26,-1.15,-121.72
23772,773.33,765.21,751.06,759.28,762.22,128.91,-939.94,378.91,-1.09,1.51,-0.16,-122.46
23810,773.30,765.24,751.03,759.33,762.22,122.07,-926.76,388.67,1.88,2.06,-0.50,-122.71
23849,773.21,765.35,751.04,759.40,762.25,127.44,-930.18,387.21,-1.12,1.71,-0.13,-123.25
23886,773.28,765.45,751.02,759.33,762.27,118.65,-931.15,380.37,-0.96,2.94,2.79,-123.91
23928,773.36,765.49,751.07,759.30,762.31,118.65,-924.32,378.91,1.43,1.50,-0.76,-124.34
23966,773.40,765.45,750.99,759.32,762.29,125.00,-937.99,395.02,2.18,2.90,1.50,-124.26
24004,773.51,765.43,751.04,759.28,762.32,134.28,-932.13,383.79,0.05,2.96,-0.69,-124.36
24042,773.59,765.41,751.00,759.26,762.32,121.58,-928.71,381.35,0.35,0.90,-1.07,-124.42
24081,773.71,765.31,750.97,759.18,762.29,132.81,-922.85,388.18,-0.05,0.58,-0.24,-123.95
24119,773.79,765.28,750.96,759.17,762.30,125.00,-927.25,389.65,-0.43,0.65,1.73,-123.93
24160,773.91,765.18,750.98,758.96,762.26,134.28,-941.89,391.60,-0.15,1.62,2.98,-123.14
24198,774.04,765.07,750.89,758.99,762.25,123.54,-957.52,381.35,1.04,1.03,0.34,-122.84
24237,773.95,765.09,750.92,758.91,762.22,134.28,-922.36,391.11,0.27,0.18,-0.89,-122.51
24275,773.99,765.01,750.83,758.88,762.18,123.54,-927.25,382.32,0.17,4.10,0.09,-122.01
24314,773.95,764.97,750.85,758.91,762.17,125.00,-937.99,385.25,0.47,0.89,-0.56,-121.71
24352,774.05,764.86,750.83,758.83,762.14,125.98,-924.32,385.25,-0.57,1.16,-1.50,-121.12
24393,774.13,764.80,750.83,758.78,762.13,128.91,-941.89,379.88,-2.74,-0.89,-0.62,-120.82
24436,774.18,764.79,750.84,758.75,762.14,131.35,-925.78,382.32,0.08,1.61,0.55,-120.75
24475,774.39,764.76,750.80,758.58,762.13,125.00,-933.11,385.74,-1.28,0.02,-3.32,-120.67
24513,774.57,764.63,750.79,758.54,762.13,135.25,-937.99,378.42,-0.22,2.80,0.08,-120.14
24551,774.76,764.60,750.68,758.46,762.13,122.56,-930.66,374.51,-0.83,-0.07,0.48,-120.40
24592,774.98,764.43,750.69,758.33,762.11,134.77,-927.73,373.54,-2.94,1.21,2.52,-119.42
24630,775.14,764.35,750.61,758.26,762.09,129.39,-931.15,384.28,-2.11,2.53,0.32,-119.47
24668,775.24,764.16,750.64,758.24,762.07,135.25,-935.06,381.35,0.42,1.60,-1.26,-118.65
24706,775.27,764.14,750.55,758.20,762.04,129.39,-936.04,377.93,-3.20,2.05,-1.56,-119.69
24745,775.12,764.14,750.56,758.10,761.98,115.23,-931.15,387.70,-0.48,1.83,1.06,-118.83
24784,775.00,764.23,750.58,758.11,761.98,121.58,-949.22,367.68,1.56,0.01,2.23,-118.67
24824,774.76,764.35,750.59,758.29,762.00,121.58,-928.22,380.86,-0.94,0.93,0.40,-119.31
24863,774.42,764.55,750.66,758.39,762.01,135.25,-934.08,381.84,0.07,0.78,0.53,-119.11
24901,773.82,764.91,750.75,758.50,762.00,133.79,-940.92,380.86,0.49,0.93,0.98,-119.97
24940,773.14,765.20,750.82,758.61,761.94,126.95,-927.73,381.84,-0.93,1.11,3.27,-120.03
24978,772.54,765.52,750.87,758.65,761.90,127.93,-931.15,379.88,-0.36,1.87,3.04,-120.32
25016,772.01,765.67,750.86,758.91,761.86,119.14,-937.99,380.86,0.51,-0.95,0.04,-120.49
25057,771.70,766.04,750.86,758.86,761.86,127.93,-925.78,392.58,1.37,-0.64,0.44,-121.96
25096,771.36,766.24,750.97,758.92,761.87,118.16,-937.99,373.05,1.05,2.07,1.11,-122.00
25134,770.90,766.48,750.95,759.00,761.83,112.79,-931.15,379.88,-1.95,2.50,-1.91,-122.68
25173,770.46,766.80,750.95,758.97,761.80,121.09,-926.27,385.25,1.98,0.71,1.83,-124.58
25211,770.03,767.15,751.04,759.02,761.81,134.28,-938.48,374.02,-1.40,0.52,-0.56,-125.62
25250,769.73,767.34,750.97,759.03,761.77,124.51,-933.59,380.86,-0.55,1.10,1.10,-127.39
25290,769.63,767.45,750.99,758.94,761.75,132.81,-934.08,375.98,-1.26,1.79,0.63,-128.03
25329,769.74,767.51,750.95,758.93,761.78,108.40,-930.18,370.61,-0.09,0.34,0.36,-129.41
25370,769.79,767.54,750.89,758.76,761.74,115.72,-934.57,375.49,-0.73,2.63,-0.06,-130.23
25409,769.93,767.67,750.91,758.78,761.82,119.14,-934.08,375.49,-0.43,2.03,1.00,-132.07
25448,769.95,767.81,750.97,758.75,761.87,133.30,-942.38,384.28,-0.31,0.48,3.43,-133.08
25486,769.97,767.97,750.95,758.80,761.92,125.00,-939.45,367.19,0.15,-0.03,-0.15,-135.40
25527,769.85,768.17,750.95,758.77,761.93,114.26,-935.06,375.00,0.98,0.41,1.69,-137.67
25566,769.85,768.28,750.93,758.77,761.96,117.68,-925.29,373.05,-0.12,2.41,0.21,-138.79
25604,769.85,768.35,750.97,758.79,761.99,119.14,-934.08,374.51,0.05,0.33,0.38,-139.71
25642,769.93,768.47,750.96,758.80,762.04,133.79,-939.45,373.05,0.61,0.22,-1.78,-141.25
25681,770.04,768.48,750.96,758.81,762.07,117.19,-929.69,378.42,-1.56,0.50,-0.24,-141.89
25719,770.26,768.61,750.89,758.70,762.11,131.35,-937.50,360.84,-0.07,1.58,1.75,-143.72
25760,770.33,768.59,750.95,758.71,762.14,110.84,-947.27,366.21,1.02,1.08,0.66,-144.25
25798,770.27,768.64,750.93,758.75,762.15,121.58,-939.45,366.70,0.25,0.03,1.99,-144.65
25837,770.29,768.61,750.96,758.71,762.14,119.14,-945.80,365.23,1.78,3.22,-0.08,-144.60
25875,770.24,768.54,750.92,758.70,762.10,126.95,-939.94,358.89,-0.10,2.04,-1.11,-142.95
25913,770.27,768.54,750.88,758.72,762.11,125.00,-953.12,361.82,1.53,-0.19,1.34,-142.97
25954,770.16,768.48,750.91,758.69,762.06,115.72,-937.01,362.79,-0.61,1.18,0.95,-141.99
25992,770.16,768.48,750.94,758.65,762.06,107.91,-940.43,367.68,1.82,0.56,0.00,-142.17
26031,770.09,768.39,750.93,758.68,762.03,122.56,-953.61,368.65,0.50,2.80,0.73,-140.89
26069,770.07,768.51,750.89,758.68,762.04,124.51,-945.80,368.65,-0.24,1.99,0.04,-141.85
26108,770.13,768.50,750.95,758.73,762.08,123.05,-942.87,363.77,-0.78,2.79,-2.26,-142.34
26146,769.82,768.62,750.95,758.78,762.04,110.84,-943.36,382.81,1.02,1.30,-2.74,-142.65
26187,769.82,768.58,750.90,758.78,762.02,118.65,-947.75,372.07,1.95,0.75,1.10,-141.84
26226,769.62,768.62,750.94,758.81,762.00,121.58,-945.80,375.98,1.47,2.19,1.67,-141.89
26264,769.65,768.69,750.90,758.82,762.01,123.54,-941.89,367.68,-0.62,0.87,0.00,-142.71
26306,769.54,768.72,750.99,758.97,762.05,133.79,-944.82,368.16,2.71,0.79,0.98,-143.49
26345,769.42,768.74,751.01,758.89,762.01,114.26,-931.15,369.63,0.67,2.21,-0.10,-143.46
26383,769.54,768.67,750.98,758.80,762.00,119.14,-937.99,368.16,-0.60,2.27,0.09,-142.54
26424,769.62,768.71,750.97,758.82,762.03,108.40,-940.43,378.91,1.14,1.71,1.36,-143.38
26463,769.89,768.65,751.00,758.76,762.07,122.07,-936.04,370.12,1.56,-1.47,0.08,-143.91
26501,770.34,768.53,750.97,758.68,762.13,121.09,-938.48,368.16,-0.82,0.11,0.83,-143.89
26540,770.83,768.33,750.87,758.51,762.14,113.77,-945.80,372.07,-0.29,0.85,-2.04,-142.52
26578,771.60,767.99,750.88,758.54,762.25,139.16,-949.22,368.65,-1.64,0.38,-0.24,-142.05
26617,772.41,767.69,750.73,758.35,762.29,120.61,-936.04,364.26,0.19,0.79,0.14,-142.72
26665,773.12,767.34,750.66,758.29,762.35,124.51,-932.62,365.23,-0.51,3.27,-1.38,-142.05
26703,773.42,767.17,750.67,758.32,762.39,136.72,-939.94,366.70,4.22,2.93,-0.34,-141.44
26742,773.63,767.06,750.67,758.49,762.46,127.44,-937.01,360.84,2.42,4.15,-0.13,-141.07
26780,773.80,766.88,750.73,758.48,762.47,127.93,-937.99,365.72,2.56,2.15,-0.51,-138.86
26818,774.03,766.61,750.71,758.51,762.47,126.95,-946.78,377.44,0.96,2.50,-0.15,-135.57
26856,774.38,766.25,750.72,758.44,762.45,130.37,-937.50,381.84,2.06,1.86,-0.85,-131.20
26897,774.77,765.98,750.68,758.50,762.48,147.95,-943.36,380.86,1.65,1.44,-3.68,-129.24
26935,775.21,765.61,750.63,758.56,762.50,125.98,-934.57,371.58,2.57,1.50,0.05,-127.56
26974,775.56,765.52,750.69,758.70,762.62,137.21,-934.08,377.44,0.70,1.25,0.58,-128.19
27012,775.73,765.25,750.76,758.75,762.62,126.95,-934.57,380.86,1.08,2.44,-0.78,-127.07
27050,775.99,765.04,750.70,758.75,762.62,131.84,-943.85,379.39,1.63,3.21,-0.86,-126.04
27088,776.29,764.89,750.71,758.83,762.68,127.93,-926.27,377.93,2.08,1.66,-1.28,-125.79
27129,776.68,764.66,750.78,758.80,762.73,115.23,-945.31,382.81,1.98,1.82,-2.72,-125.78
27168,777.37,764.49,750.77,758.80,762.86,125.49,-929.20,384.77,1.09,2.53,-0.94,-126.40
27206,778.08,764.36,750.75,758.81,763.00,130.37,-932.13,384.28,-0.36,1.79,-0.02,-127.41
27248,778.77,764.10,750.75,758.79,763.10,123.54,-934.08,382.81,2.24,1.46,0.95,-128.59
27287,779.29,764.12,750.76,758.79,763.24,124.51,-926.76,379.39,0.53,0.14,-1.60,-130.21
27327,779.88,764.04,750.72,758.74,763.34,133.30,-939.45,387.21,2.58,2.08,-3.72,-130.79
27365,780.17,764.06,750.72,758.83,763.45,126.95,-934.08,378.91,-2.21,3.05,0.37,-132.47
27404,780.65,763.91,750.69,758.92,763.54,129.39,-928.71,384.28,-0.23,0.28,0.24,-133.99
27442,781.08,763.87,750.71,758.86,763.63,134.77,-948.24,391.60,-0.91,2.95,-0.34,-134.68
27480,781.28,763.78,750.71,758.94,763.68,132.81,-933.59,378.91,0.98,2.33,-1.21,-135.81
27518,781.48,763.78,750.75,759.00,763.75,129.39,-919.92,391.11,3.48,1.49,-1.34,-137.09
27560,781.35,763.77,750.78,759.11,763.75,131.35,-931.15,396.97,1.97,0.52,0.05,-137.74
27598,781.25,763.75,750.81,759.11,763.73,119.14,-920.41,376.95,-0.47,5.18,0.72,-137.71
27637,781.19,763.72,750.85,759.16,763.73,133.79,-943.36,396.00,0.06,1.84,-0.13,-138.20
27675,781.15,763.65,750.89,759.28,763.74,124.51,-933.59,391.11,2.33,0.40,-1.58,-139.73
27713,781.18,763.64,750.92,759.37,763.78,137.21,-924.32,392.58,1.25,-0.18,-1.43,-141.30
27752,781.17,763.68,750.98,759.44,763.81,134.77,-929.20,392.58,0.68,2.17,1.75,-142.81
27793,781.07,763.53,751.05,759.57,763.81,128.42,-935.06,390.14,2.11,1.14,0.07,-144.92
27832,780.91,763.66,750.99,759.59,763.79,136.72,-929.20,396.48,2.42,0.09,0.73,-143.94
27870,780.95,763.61,751.13,759.69,763.84,125.49,-922.36,383.79,1.57,0.44,-0.42,-146.37
27909,781.03,763.55,751.10,759.72,763.85,131.84,-929.69,379.88,1.56,1.91,2.69,-146.71
27947,781.12,763.54,751.05,759.74,763.86,140.62,-922.36,385.74,0.42,1.25,1.71,-146.91
27986,781.21,763.57,751.12,759.64,763.89,142.09,-929.20,401.37,-1.32,0.91,0.23,-146.71
28027,781.28,763.51,751.07,759.68,763.88,138.67,-919.43,405.76,0.78,0.81,1.71,-146.92
28065,781.42,763.45,751.07,759.63,763.89,144.53,-935.06,400.88,1.74,1.82,-0.90,-146.79
28103,781.50,763.41,751.08,759.70,763.92,144.53,-938.48,389.65,-0.39,1.86,-1.18,-147.77
28142,781.50,763.49,751.11,759.85,763.99,144.04,-933.11,386.72,0.27,0.78,0.67,-149.74
28185,781.42,763.63,751.12,759.85,764.00,140.62,-937.01,399.90,-1.27,1.39,-2.34,-149.68
28223,781.21,763.63,751.15,759.90,763.97,125.00,-933.11,394.53,2.08,2.44,-0.06,-149.72
28264,781.13,763.62,751.07,760.00,763.95,143.07,-926.27,389.16,-0.98,0.27,0.85,-149.85
28303,781.15,763.66,751.16,759.97,763.98,138.67,-929.20,401.86,3.07,1.18,-0.56,-150.49
28341,780.98,763.56,751.24,760.06,763.96,135.74,-931.64,400.39,1.49,3.79,-1.17,-151.46
28380,780.90,763.56,751.22,760.01,763.92,148.44,-912.11,399.41,0.97,2.34,1.68,-150.48
28418,780.77,763.50,751.33,760.05,763.91,141.11,-925.29,393.55,1.64,0.60,-0.14,-151.32
28457,780.81,763.47,751.29,760.05,763.90,140.14,-929.20,393.55,1.79,2.04,0.31,-150.91
28498,780.85,763.31,751.15,760.01,763.83,130.37,-936.04,395.51,-1.13,3.63,0.85,-148.81
28536,780.97,763.25,751.21,759.88,763.83,130.37,-926.27,394.53,0.44,1.67,-1.75,-148.37
28575,781.06,763.22,751.19,760.04,763.88,137.70,-930.18,402.34,1.43,0.63,-1.25,-149.97
28613,781.07,763.22,751.12,759.91,763.83,141.60,-934.08,413.09,-2.21,0.41,0.35,-147.97
28651,781.11,763.28,751.15,759.99,763.88,139.16,-926.76,395.02,1.37,2.82,1.23,-149.45
28692,780.97,763.27,751.20,759.97,763.85,139.65,-916.50,389.65,1.66,2.64,-1.47,-149.14
28731,780.82,763.41,751.22,760.06,763.88,138.18,-925.29,417.48,2.58,-0.09,-1.91,-150.16
28769,780.50,763.58,751.29,760.15,763.88,137.70,-927.73,398.44,0.82,0.14,-0.23,-151.21
28808,780.19,763.73,751.29,760.14,763.84,134.28,-918.46,397.46,-1.16,1.82,-0.14,-150.18
28846,779.98,763.76,751.36,760.22,763.83,118.16,-932.13,392.09,1.47,1.12,-0.83,-151.04
28885,779.76,763.91,751.36,760.17,763.80,130.37,-938.96,388.67,-1.78,1.50,-1.10,-150.17
28926,779.60,764.01,751.31,760.20,763.78,143.55,-937.50,399.41,-1.99,0.73,0.68,-149.39
28964,779.49,764.07,751.38,760.21,763.79,132.32,-923.83,406.25,-1.19,1.73,1.22,-150.43
29003,779.27,764.17,751.37,760.24,763.76,131.35,-918.46,400.39,0.06,1.43,1.08,-150.13
29042,779.22,764.25,751.43,760.32,763.80,143.55,-921.87,392.58,0.50,0.30,1.05,-151.90
29080,779.10,764.18,751.45,760.35,763.77,128.91,-922.36,402.34,-2.03,2.18,1.27,-151.48
29122,779.12,764.16,751.41,760.37,763.77,135.25,-926.27,401.86,0.40,0.82,2.75,-150.97
29163,779.20,764.17,751.42,760.17,763.74,129.39,-927.73,390.62,-0.09,1.00,2.78,-150.06
29201,779.52,764.11,751.33,760.19,763.79,117.68,-937.99,394.53,-0.50,3.54,-1.37,-149.85
29239,779.67,763.91,751.38,760.15,763.78,129.88,-934.08,380.86,1.46,3.60,-0.62,-149.93
29278,779.81,763.90,751.34,760.02,763.77,136.72,-924.32,398.44,-1.24,1.69,0.39,-148.79
29316,780.21,763.80,751.29,760.00,763.83,144.04,-917.48,397.46,-0.92,1.53,1.52,-149.14
29354,780.37,763.77,751.28,760.00,763.85,134.77,-940.43,383.30,0.53,-0.72,0.10,-149.40
29395,780.23,763.73,751.32,760.01,763.82,127.93,-935.55,391.60,0.30,2.58,-1.08,-149.27
29434,780.08,763.71,751.25,760.12,763.79,133.79,-935.55,393.55,0.44,1.34,0.40,-149.22
29472,779.98,763.72,751.31,760.14,763.79,130.86,-922.36,386.23,0.25,2.19,2.30,-149.59
29510,779.82,763.72,751.34,760.13,763.75,134.77,-940.92,404.79,-0.48,2.31,-0.48,-149.19
29548,779.68,763.76,751.32,760.23,763.75,136.23,-939.94,396.97,1.29,3.01,-0.30,-149.53
29587,779.40,764.01,751.36,760.35,763.78,135.74,-927.25,389.16,3.72,3.08,0.94,-150.63
29630,779.14,764.03,751.38,760.41,763.74,131.84,-942.87,394.53,0.62,0.06,-1.44,-150.46
29669,779.06,764.15,751.52,760.47,763.80,129.88,-922.85,400.88,-1.69,-0.31,0.94,-153.14
29707,778.81,764.21,751.48,760.52,763.75,139.65,-944.82,383.79,-0.38,1.25,0.97,-152.16
29745,778.81,764.24,751.47,760.43,763.74,129.39,-925.29,389.16,-0.78,0.32,2.57,-151.58
29784,778.89,764.31,751.46,760.42,763.77,136.72,-926.27,395.02,-0.49,0.84,0.87,-152.07
29825,778.98,764.31,751.44,760.36,763.77,118.16,-925.78,398.93,-1.47,-0.30,1.63,-151.63
29863,779.04,764.25,751.46,760.37,763.78,128.91,-929.69,391.11,-2.24,2.68,-0.08,-151.90
29902,778.97,764.34,751.44,760.37,763.78,127.44,-917.48,397.95,-0.46,2.31,0.47,-151.89
29941,778.77,764.39,751.43,760.32,763.73,132.81,-936.04,388.67,0.79,2.00,0.37,-150.79
29979,778.78,764.43,751.51,760.27,763.75,139.16,-927.73,389.16,0.15,-1.98,0.89,-151.63
30017,778.95,764.37,751.40,760.18,763.73,142.09,-927.25,402.83,0.79,1.37,-0.25,-149.90
30065,779.12,764.36,751.37,760.15,763.75,133.79,-927.25,406.25,-0.12,0.58,0.74,-149.93
30103,779.34,764.19,751.36,760.06,763.74,125.00,-938.96,400.39,-0.49,2.01,0.12,-149.12
30141,779.54,764.21,751.30,759.87,763.73,125.49,-943.36,396.97,-0.53,1.28,-0.56,-147.58
30179,779.89,764.06,751.26,759.85,763.77,132.32,-930.66,379.39,-0.97,1.05,-0.02,-147.55
30218,780.15,763.94,751.27,759.79,763.79,128.91,-927.73,383.79,0.69,0.38,2.11,-147.66
30256,780.46,763.81,751.14,759.64,763.76,131.84,-926.76,400.39,0.60,1.26,-0.58,-144.80
30297,780.71,763.68,751.17,759.51,763.76,128.42,-928.22,390.14,-0.19,2.76,3.60,-144.56
30335,780.92,763.63,751.12,759.38,763.76,137.70,-925.29,397.95,-0.92,1.29,-0.58,-143.59
30373,781.08,763.56,751.10,759.32,763.76,131.84,-933.11,389.16,-1.18,0.76,-0.08,-143.13
30411,781.28,763.61,751.07,759.23,763.80,135.74,-925.78,387.70,-1.21,1.31,-0.26,-143.04
30449,781.38,763.57,751.03,759.14,763.78,133.79,-928.71,381.84,0.50,0.37,-0.35,-142.05
30488,781.25,763.67,751.02,759.09,763.76,123.54,-920.90,384.77,-0.39,1.85,-0.86,-141.39
30528,780.81,763.73,751.06,759.24,763.71,139.65,-934.57,385.74,-1.40,-1.12,0.32,-141.60
30567,780.39,764.05,751.18,759.26,763.72,137.21,-930.18,390.14,-1.70,1.71,-0.46,-143.52
30605,779.88,764.25,751.15,759.30,763.64,129.39,-929.20,387.21,-1.33,-0.18,0.26,-142.11
30643,779.44,764.43,751.18,759.43,763.62,138.67,-933.11,388.18,-0.89,1.58,5.52,-142.83
30681,778.99,764.52,751.20,759.44,763.54,134.77,-934.08,385.74,1.35,1.91,0.40,-141.82
30720,778.66,764.55,751.21,759.49,763.48,133.30,-917.97,394.04,-0.43,1.98,1.11,-141.19
30760,778.37,764.60,751.15,759.51,763.41,128.91,-933.59,392.58,-0.08,3.75,2.68,-139.62
30799,778.15,764.76,751.18,759.46,763.39,133.30,-929.69,383.79,-0.48,-1.92,2.30,-139.50
30837,777.96,764.85,751.22,759.55,763.39,135.74,-928.71,383.30,0.34,-1.04,2.99,-140.54
30875,777.85,764.94,751.25,759.68,763.43,141.11,-934.08,387.70,1.21,-0.56,-1.74,-142.03
30913,777.76,764.95,751.27,759.75,763.43,135.74,-935.06,381.35,1.12,0.37,-1.34,-142.81
30959,777.66,764.92,751.37,759.84,763.45,135.74,-938.96,394.53,3.47,1.59,0.65,-144.30
30997,777.64,764.93,751.34,759.90,763.45,120.61,-918.46,384.28,2.73,0.21,-2.64,-144.25
31035,777.81,764.84,751.34,759.88,763.47,120.61,-924.32,380.37,0.44,2.80,1.78,-144.35
31073,778.18,764.62,751.31,759.89,763.50,139.16,-926.76,401.37,-0.09,-0.33,-0.37,-144.43
31112,778.77,764.34,751.24,759.64,763.50,126.95,-930.66,371.58,1.78,-0.37,-0.94,-142.43
31150,779.67,763.99,751.22,759.48,763.59,117.68,-926.27,389.65,0.18,2.32,-2.06,-142.63
31191,780.58,763.69,751.08,759.39,763.68,132.32,-929.69,385.25,-0.57,1.61,0.37,-141.91
31229,780.88,763.55,751.17,759.40,763.75,120.61,-928.71,392.09,0.15,2.95,-1.97,-143.94
31268,781.10,763.40,751.15,759.34,763.75,132.32,-931.15,396.00,2.15,1.68,0.51,-143.43
31306,781.10,763.47,751.13,759.38,763.77,141.11,-934.08,388.67,0.00,0.98,-3.20,-143.76
31344,781.16,763.50,751.14,759.44,763.81,127.44,-927.25,389.16,-1.14,2.18,-0.04,-144.61
31382,781.08,763.57,751.12,759.51,763.82,142.09,-942.38,396.00,0.34,2.82,2.03,-144.88
31423,780.98,763.66,751.20,759.49,763.83,132.81,-930.18,373.54,2.05,-0.27,2.96,-145.97
31462,781.02,763.75,751.14,759.49,763.85,138.18,-919.92,389.16,-0.35,1.49,-0.44,-145.66
31501,781.09,763.87,751.14,759.59,763.92,131.35,-924.32,386.72,1.01,4.27,2.26,-147.10
31539,781.09,763.98,751.18,759.45,763.92,144.04,-927.73,375.00,-0.24,0.27,0.96,-147.25
31577,780.87,763.99,751.21,759.44,763.88,135.25,-937.01,387.21,1.29,0.66,3.69,-147.00
31616,780.73,764.00,751.21,759.42,763.84,138.67,-930.18,386.72,0.00,0.60,-1.31,-146.36
31657,780.62,764.00,751.23,759.31,763.79,120.61,-923.34,396.97,-2.27,0.73,1.39,-145.37
31695,780.50,763.97,751.15,759.24,763.71,132.32,-934.08,391.11,0.56,1.05,2.18,-142.78
31733,780.33,764.07,751.15,759.19,763.68,143.07,-931.64,395.02,0.44,2.56,2.88,-142.28
31772,780.31,763.94,751.14,759.24,763.65,135.25,-931.64,385.25,1.73,0.44,0.22,-141.82
31811,780.24,763.99,751.05,759.23,763.63,132.32,-929.69,389.16,0.92,0.66,-0.63,-140.23
31849,780.27,763.98,751.07,759.14,763.62,138.18,-929.69,384.28,-0.84,1.85,-0.55,-140.18
31895,780.39,763.94,751.05,759.16,763.63,132.81,-937.99,378.42,1.97,-1.17,-1.08,-140.10
31934,780.43,763.85,751.02,759.09,763.60,137.21,-940.43,387.21,-0.59,-0.69,-1.44,-139.01
31973,780.53,763.72,751.04,759.09,763.59,137.21,-926.27,378.91,-0.98,3.87,0.56,-139.18
32011,780.63,763.72,751.03,759.17,763.64,124.02,-925.78,386.23,-0.21,3.15,-0.54,-139.97
32049,780.62,763.76,751.03,759.08,763.62,138.18,-933.59,387.70,0.44,1.40,0.73,-139.42
32088,780.62,763.68,751.07,759.14,763.63,141.60,-932.13,388.18,0.79,3.57,-1.89,-140.25
32128,780.70,763.68,751.07,759.10,763.64,126.95,-934.57,397.95,0.01,0.78,-0.85,-140.28
32167,780.83,763.77,751.04,759.04,763.67,123.54,-934.57,387.21,1.28,2.22,0.54,-140.15
32205,780.74,763.82,751.01,759.12,763.67,137.70,-945.31,365.72,-1.56,0.72,1.12,-140.18
32243,780.49,763.90,751.06,759.12,763.64,129.39,-941.41,372.56,-1.24,0.37,-0.74,-140.29
32282,780.66,763.93,750.98,759.07,763.66,143.07,-943.36,392.09,0.37,2.79,0.79,-139.31
32323,780.71,764.03,751.07,759.09,763.72,129.39,-944.34,381.35,0.56,4.05,1.25,-141.48
32361,780.63,764.16,751.03,759.13,763.74,131.35,-931.15,391.11,-0.85,0.51,-0.84,-141.23
32399,780.51,764.12,751.06,759.20,763.72,145.02,-941.89,385.74,0.43,0.89,0.87,-141.92
32438,780.49,764.11,751.08,759.12,763.70,135.25,-930.66,391.60,1.71,1.64,-1.62,-141.47
32476,780.48,764.13,751.02,759.21,763.71,130.86,-918.95,388.18,1.03,1.35,0.33,-141.09
32515,780.41,764.14,751.10,759.25,763.72,130.37,-937.50,392.58,0.89,-0.56,2.18,-142.55
32556,780.08,764.15,751.13,759.14,763.62,138.18,-944.34,389.16,0.00,0.53,0.97,-141.08
32594,779.92,764.18,751.11,759.22,763.61,128.42,-923.83,383.30,-1.02,1.07,-0.74,-140.76
32635,779.89,764.24,751.08,759.16,763.59,144.04,-937.01,370.12,-2.63,1.88,0.70,-140.10
32673,779.86,764.35,751.08,759.18,763.62,132.81,-928.71,383.79,0.08,-0.63,-0.59,-140.56
32711,779.43,764.42,751.15,759.30,763.57,152.34,-923.83,382.32,0.76,0.35,0.92,-141.19
32750,779.15,764.46,751.12,759.38,763.52,117.68,-933.11,405.76,0.02,3.23,2.88,-140.41
32795,778.76,764.61,751.21,759.44,763.51,136.72,-941.41,380.86,-0.90,2.77,0.09,-141.60
32834,778.45,764.66,751.18,759.50,763.45,122.56,-937.50,382.32,-0.44,-0.29,-0.66,-140.55
32872,778.18,764.76,751.12,759.56,763.40,136.72,-941.89,378.91,-0.50,2.35,0.39,-139.50
32910,777.92,764.69,751.15,759.55,763.33,126.46,-937.99,398.93,0.97,1.71,-1.55,-138.59
32949,777.87,764.74,751.19,759.55,763.34,134.28,-925.29,390.62,1.33,-0.03,0.46,-139.21
32987,777.93,764.74,751.21,759.51,763.35,120.12,-935.55,383.79,-1.01,1.11,0.61,-139.47
33028,777.82,764.81,751.18,759.55,763.34,127.93,-924.80,382.81,-0.08,2.63,-0.18,-139.28
33066,777.80,764.72,751.18,759.51,763.30,121.58,-937.01,381.84,0.95,0.37,4.30,-138.45
33105,777.86,764.77,751.17,759.48,763.32,126.95,-935.55,391.11,-1.51,0.94,-1.69,-138.65
33143,777.80,764.82,751.16,759.49,763.32,125.00,-932.13,385.74,-0.04,2.27,1.51,-138.38
33181,777.78,764.78,751.13,759.48,763.29,134.77,-932.13,369.14,-1.45,3.85,0.95,-137.67
33219,777.80,764.80,751.10,759.39,763.27,124.02,-928.22,392.58,-0.24,1.05,-0.01,-136.19
33260,777.66,764.90,751.15,759.53,763.31,130.37,-948.24,391.11,-0.66,2.17,0.43,-138.44
33298,777.54,765.03,751.17,759.58,763.33,130.86,-925.29,384.77,1.60,3.36,1.81,-139.30
33337,777.26,765.21,751.23,759.58,763.32,132.81,-935.06,384.77,-0.20,1.79,1.53,-140.41
33375,777.08,765.38,751.27,759.62,763.34,138.67,-936.04,379.88,0.39,0.93,2.02,-141.90
33414,776.88,765.49,751.28,759.70,763.34,128.91,-925.78,380.86,1.02,0.14,-1.34,-142.32
33455,776.79,765.61,751.33,759.64,763.34,129.88,-933.11,384.28,0.12,1.94,0.02,-143.45
33493,776.70,765.68,751.28,759.57,763.31,127.44,-924.80,380.37,-0.94,1.88,-0.71,-142.03
33532,776.78,765.76,751.31,759.64,763.37,132.81,-922.85,394.53,0.97,0.45,-1.33,-143.74
33570,776.61,765.56,751.26,759.57,763.25,114.26,-928.22,394.04,-1.87,1.11,-1.31,-140.61
33609,776.65,765.68,751.29,759.65,763.32,137.70,-929.20,395.51,1.20,-0.49,-0.50,-142.57
33647,776.61,765.71,751.32,759.61,763.31,119.63,-945.31,383.79,-2.18,0.40,2.21,-142.85
33692,776.56,765.77,751.32,759.62,763.32,123.05,-944.34,379.39,-1.53,2.53,1.50,-142.97
33730,776.57,765.78,751.34,759.65,763.33,130.86,-938.96,372.07,-1.03,-2.41,0.07,-143.81
33769,776.47,765.86,751.33,759.58,763.31,119.14,-928.22,376.46,1.12,0.98,2.67,-142.89
33807,776.57,765.85,751.36,759.62,763.35,125.49,-935.06,380.37,0.26,-1.03,-0.40,-144.36
33845,776.56,765.77,751.26,759.68,763.32,133.30,-929.20,392.09,1.63,0.85,2.26,-141.84
33884,776.53,765.85,751.34,759.65,763.34,128.42,-941.41,394.53,1.13,1.37,2.85,-143.91
33925,776.55,765.80,751.27,759.72,763.34,134.77,-933.59,379.39,-0.15,0.16,-1.80,-142.49
33964,776.72,765.75,751.30,759.59,763.34,131.84,-931.64,389.65,-0.15,2.09,-0.70,-142.98
34002,776.77,765.59,751.26,759.66,763.32,135.25,-928.22,374.51,1.05,0.75,0.49,-142.03
34041,776.85,765.69,751.23,759.64,763.35,134.77,-929.20,380.86,-0.44,0.26,1.37,-141.78
34079,776.82,765.50,751.26,759.62,763.30,142.09,-921.87,380.86,0.14,1.35,1.89,-141.46
34117,776.85,765.53,751.26,759.63,763.32,125.00,-936.52,381.35,1.43,3.00,0.51,-141.71
34158,776.86,765.47,751.34,759.61,763.32,127.93,-919.43,384.77,0.85,1.05,0.07,-142.85
34197,776.81,765.49,751.32,759.62,763.31,131.84,-936.04,388.18,0.40,0.73,0.08,-142.46
34235,776.82,765.47,751.28,759.59,763.29,124.02,-923.34,378.42,-0.14,2.54,-0.38,-141.28
34274,776.78,765.47,751.23,759.54,763.26,121.58,-936.52,389.16,0.15,-0.95,1.44,-139.97
34312,776.87,765.39,751.27,759.59,763.28,124.02,-938.96,380.86,2.09,0.69,-0.11,-140.96
34351,776.84,765.36,751.25,759.61,763.27,133.30,-926.76,387.70,0.04,1.73,-1.24,-140.38
34392,776.78,765.34,751.33,759.56,763.25,122.56,-934.08,384.77,0.22,2.50,-0.53,-140.76
34430,776.74,765.39,751.26,759.64,763.26,137.70,-930.18,394.53,0.82,2.37,1.01,-140.52
34469,776.63,765.47,751.24,759.60,763.24,130.86,-936.52,392.09,1.13,-0.73,-0.37,-139.98
34507,776.68,765.37,751.23,759.64,763.23,126.95,-941.41,393.55,-0.66,2.00,1.27,-139.62
34546,776.79,765.37,751.23,759.52,763.23,125.49,-925.78,387.70,-1.30,4.21,-0.50,-139.12
34584,776.74,765.40,751.25,759.61,763.25,127.93,-937.99,391.11,0.92,-0.67,1.24,-140.12
34630,776.78,765.35,751.26,759.57,763.24,133.79,-937.01,394.53,0.13,3.40,0.64,-139.89
34668,776.77,765.29,751.30,759.56,763.23,147.95,-933.59,374.02,-1.71,-0.15,-1.56,-139.93
34707,776.87,765.34,751.27,759.49,763.24,133.30,-921.87,385.25,-1.97,1.03,0.95,-139.62
34745,776.92,765.26,751.17,759.52,763.22,139.65,-929.20,376.95,2.48,0.71,-0.76,-137.74
34783,777.00,765.18,751.21,759.52,763.23,121.09,-931.15,401.37,1.98,0.77,2.36,-138.43
34824,777.08,765.18,751.20,759.44,763.23,128.91,-933.11,387.70,0.48,3.19,1.30,-138.03
34862,777.17,765.14,751.20,759.41,763.23,134.77,-925.29,376.46,0.70,-0.53,1.40,-137.80
34900,777.27,765.02,751.19,759.37,763.21,134.77,-921.87,395.51,-0.44,1.92,-0.40,-136.86
34939,777.33,765.06,751.16,759.30,763.21,127.93,-942.87,378.91,-1.61,3.56,0.11,-136.40
34977,777.35,764.98,751.18,759.30,763.20,134.28,-930.18,379.39,-0.28,-0.98,0.27,-136.19
35015,777.39,764.99,751.12,759.33,763.21,125.49,-943.85,380.86,1.18,0.46,2.27,-135.68
35056,777.33,764.97,751.16,759.38,763.21,130.86,-936.52,398.93,0.85,-0.35,0.72,-136.35
35095,777.34,764.85,751.13,759.31,763.16,133.79,-932.13,399.90,-0.85,2.08,-0.98,-134.63
35133,777.39,764.92,751.09,759.29,763.17,126.46,-931.64,371.09,1.97,4.53,1.73,-134.21
35172,777.33,764.97,751.20,759.29,763.20,140.62,-934.08,386.72,0.92,-0.50,0.88,-136.36
35210,777.32,765.05,751.18,759.36,763.23,132.81,-943.85,386.72,-1.07,2.30,1.85,-137.21
35249,777.31,765.04,751.22,759.43,763.25,132.81,-936.04,388.67,-0.88,2.43,-1.39,-138.19
35290,777.22,765.15,751.22,759.43,763.26,115.23,-931.64,383.30,-0.84,2.59,1.47,-138.56
35328,777.21,765.13,751.15,759.28,763.19,137.21,-934.08,378.91,-0.34,1.21,0.78,-136.08
35367,777.17,765.12,751.19,759.45,763.23,130.37,-940.43,392.09,-1.40,1.31,0.23,-137.82
35405,777.24,765.15,751.19,759.46,763.26,132.81,-944.82,387.21,0.82,1.30,-0.89,-138.28
35444,777.21,765.17,751.21,759.47,763.27,127.93,-934.08,379.39,-0.31,4.21,1.31,-138.80
35482,777.17,765.14,751.15,759.47,763.23,129.88,-945.80,396.48,-0.86,1.66,0.74,-137.30
35529,777.23,765.08,751.25,759.41,763.24,123.54,-913.57,381.35,-1.34,2.22,0.29,-138.39
35567,777.29,765.14,751.20,759.48,763.28,141.60,-946.78,392.58,2.08,1.34,-1.76,-138.80
35608,777.37,764.99,751.22,759.37,763.23,125.49,-924.80,377.93,0.76,-0.67,1.16,-137.47
35646,777.47,765.09,751.15,759.44,763.28,137.21,-929.20,389.16,2.60,3.05,0.72,-137.76
35684,777.56,764.94,751.13,759.29,763.23,129.39,-924.32,389.65,2.92,3.16,-0.62,-135.97
35722,777.58,764.96,751.15,759.33,763.25,138.67,-934.08,391.11,-1.46,-0.31,-3.60,-136.73
35764,777.70,764.91,751.13,759.48,763.31,134.28,-935.55,398.44,-0.53,1.08,0.11,-137.76
35802,777.73,764.86,751.17,759.38,763.29,116.21,-926.27,380.37,-0.08,4.05,-2.56,-137.63
35841,777.76,764.88,751.09,759.38,763.28,128.91,-926.27,392.58,0.78,1.99,-0.23,-136.20
35879,777.77,764.77,751.09,759.33,763.24,117.68,-933.11,386.72,0.23,0.37,0.63,-135.28
35918,777.88,764.76,751.13,759.31,763.27,143.55,-938.48,386.72,2.27,-0.05,-1.93,-136.30
35958,777.90,764.75,751.10,759.27,763.25,134.28,-932.13,389.16,0.25,0.89,-0.15,-135.36
35997,777.88,764.80,751.08,759.32,763.27,133.79,-935.06,388.18,0.77,0.26,0.43,-135.61
36035,777.93,764.81,751.11,759.27,763.28,127.93,-939.94,391.11,-1.04,1.89,2.19,-135.93
36074,777.96,764.79,751.09,759.33,763.29,137.21,-933.11,382.32,-0.79,0.47,-0.34,-136.19
36112,777.89,764.85,751.08,759.23,763.26,134.77,-930.66,392.09,-3.56,3.37,1.69,-135.05
36151,777.80,764.88,751.12,759.36,763.29,142.58,-935.55,387.21,-0.36,0.79,0.84,-136.75
36192,777.81,764.84,751.09,759.35,763.27,124.51,-920.41,383.30,0.47,0.83,-0.11,-135.95
36230,777.68,764.90,751.17,759.48,763.31,127.44,-934.08,383.30,1.72,-0.91,3.16,-138.31
36269,777.46,765.04,751.15,759.48,763.28,129.39,-928.22,378.42,1.12,0.63,0.08,-137.73
36307,777.45,764.95,751.14,759.48,763.26,121.09,-935.55,368.16,-0.36,1.51,-2.30,-137.15
36346,777.35,765.08,751.16,759.42,763.25,134.77,-947.27,391.60,1.56,0.91,-1.14,-137.38
36384,777.27,765.01,751.16,759.52,763.24,132.32,-944.34,385.74,1.39,1.31,1.16,-137.32
36425,777.30,765.09,751.23,759.52,763.29,126.95,-929.69,375.49,2.31,0.43,0.54,-139.45
36468,777.17,765.13,751.21,759.61,763.28,124.02,-931.15,381.35,1.26,0.73,-2.50,-139.30
36506,777.00,765.15,751.20,759.64,763.25,124.51,-933.11,396.00,0.15,0.73,1.19,-138.76
36544,776.84,765.17,751.17,759.63,763.20,131.84,-925.78,394.53,-0.16,2.72,1.52,-137.59
36583,776.73,765.30,751.20,759.65,763.22,129.39,-932.62,391.11,0.36,3.64,0.37,-138.76
36621,776.61,765.35,751.22,759.66,763.21,124.51,-943.85,381.35,-0.14,1.08,0.40,-138.99
36664,776.45,765.44,751.24,759.66,763.20,139.65,-939.94,390.62,0.49,2.93,0.70,-139.33
36702,776.27,765.34,751.28,759.66,763.14,128.91,-930.66,383.30,1.71,2.60,2.23,-138.56
36740,776.21,765.45,751.24,759.70,763.15,132.32,-931.15,382.32,0.71,3.56,1.27,-138.66
36778,776.14,765.52,751.31,759.67,763.16,140.14,-932.62,387.70,1.64,1.12,0.50,-139.78
36816,776.17,765.48,751.27,759.71,763.16,136.72,-936.52,404.30,1.21,0.22,1.78,-139.45
36855,776.04,765.50,751.27,759.67,763.12,114.75,-923.34,379.39,-0.98,2.74,2.32,-138.55
36895,775.95,765.56,751.22,759.70,763.11,149.90,-940.43,387.21,-0.50,0.37,0.76,-137.85
36934,775.86,765.59,751.28,759.75,763.12,139.16,-945.31,376.46,-1.05,0.92,-1.34,-139.37
36972,775.73,765.57,751.27,759.78,763.09,136.72,-940.43,383.79,1.14,1.43,-0.89,-138.52
37011,775.68,765.57,751.21,759.81,763.07,138.67,-938.96,384.77,-0.98,-0.27,-1.73,-137.18
37049,775.84,765.62,751.23,759.73,763.10,126.46,-933.59,388.18,-1.32,0.29,0.27,-137.94
37088,775.88,765.47,751.24,759.62,763.05,136.23,-936.52,385.74,1.96,2.68,-0.61,-136.85
37129,775.77,765.57,751.24,759.60,763.04,126.95,-937.50,384.77,-1.19,3.00,0.48,-136.88
37167,775.79,765.57,751.25,759.62,763.06,131.35,-930.18,392.58,1.48,0.14,0.39,-137.41
37206,775.65,765.53,751.32,759.56,763.02,125.00,-938.96,388.67,-0.82,2.89,1.23,-136.98
37245,775.54,765.56,751.21,759.64,762.99,125.49,-923.83,377.44,1.45,3.34,-0.18,-135.57
37283,775.63,765.56,751.28,759.57,763.01,133.30,-931.15,382.81,1.49,2.31,2.04,-136.75
37324,775.59,765.53,751.24,759.53,762.97,133.79,-928.22,386.23,2.15,2.69,0.91,-135.38
37367,775.59,765.49,751.27,759.56,762.98,125.98,-931.64,387.21,0.91,-0.85,-0.16,-135.86
37405,775.66,765.45,751.20,759.63,762.99,122.56,-934.57,392.09,-0.12,0.07,2.29,-135.27
37444,775.67,765.41,751.28,759.56,762.98,126.95,-934.57,393.55,0.56,-1.18,-1.43,-135.62
37482,775.70,765.53,751.20,759.54,762.99,136.72,-923.34,377.93,2.69,1.16,-1.21,-135.31
37520,775.62,765.55,751.24,759.56,762.99,122.07,-937.99,386.23,-0.44,0.76,-0.73,-135.93
37561,775.57,765.56,751.24,759.60,762.99,134.77,-933.11,387.21,0.79,0.76,-0.24,-135.99
37600,775.48,765.59,751.24,759.61,762.98,136.23,-927.73,378.42,0.85,0.15,1.35,-135.90
37638,775.48,765.59,751.27,759.64,763.00,138.18,-932.62,389.65,2.33,1.31,0.44,-136.60
37676,775.46,765.56,751.28,759.64,762.99,116.70,-942.87,381.35,-0.78,0.08,0.87,-136.50
37715,775.30,765.59,751.26,759.67,762.96,133.79,-929.20,380.86,0.08,-1.22,1.63,-135.91
37753,775.29,765.70,751.32,759.73,763.01,130.37,-939.45,379.39,0.46,0.99,1.40,-137.85
37794,775.33,765.68,751.31,759.76,763.02,134.28,-937.99,377.44,1.38,3.61,-1.11,-137.95
37833,775.21,765.78,751.36,759.82,763.04,118.16,-939.94,368.16,1.11,0.56,1.50,-139.40
37871,775.11,765.88,751.33,759.74,763.01,123.54,-938.96,377.44,-0.40,1.64,3.74,-138.25
37910,775.05,765.86,751.31,759.79,763.00,118.16,-935.55,383.30,-0.39,1.23,-0.52,-138.00
37948,775.03,765.89,751.25,759.75,762.98,140.62,-932.62,382.32,0.08,1.89,-2.19,-136.35
37986,775.04,765.96,751.33,759.79,763.03,123.05,-944.34,394.04,0.27,0.56,0.20,-138.79
38027,774.89,766.02,751.30,759.83,763.01,130.86,-943.85,382.81,0.34,1.96,0.44,-137.88
38066,774.80,766.09,751.38,759.86,763.03,129.88,-931.64,384.28,-0.02,0.91,2.69,-139.64
38104,774.67,766.15,751.32,759.93,763.02,129.39,-929.69,389.65,1.09,1.07,-1.27,-138.57
38143,774.63,766.18,751.28,759.91,763.00,133.30,-925.29,386.23,-0.11,2.94,1.32,-137.36
38181,774.60,766.23,751.42,759.93,763.05,132.81,-922.85,389.16,-0.38,0.92,-1.61,-140.79
38220,774.54,766.33,751.37,759.95,763.05,122.07,-929.69,375.49,1.96,2.47,-4.00,-140.06
38261,774.51,766.36,751.34,759.97,763.04,125.49,-933.59,376.46,2.31,1.69,1.49,-139.19
38305,774.46,766.30,751.38,759.96,763.02,124.02,-941.89,381.35,0.76,3.50,-0.51,-139.83
38343,774.43,766.33,751.40,759.96,763.03,136.72,-932.62,392.09,-0.57,1.50,1.11,-140.15
38381,774.41,766.33,751.41,759.93,763.02,126.95,-935.06,387.21,-0.27,0.93,0.15,-140.17
38420,774.35,766.32,751.36,759.96,763.00,139.16,-941.41,389.65,0.96,0.87,2.05,-139.01
38458,774.32,766.34,751.43,760.04,763.03,136.23,-937.01,399.41,1.74,2.47,0.92,-140.92
38500,774.41,766.31,751.37,760.02,763.03,131.35,-930.18,376.95,0.08,3.69,1.30,-139.88
38538,774.32,766.30,751.41,760.06,763.02,127.44,-926.76,386.72,0.03,2.63,2.37,-140.37
38577,774.27,766.39,751.37,759.97,763.00,136.23,-930.18,384.28,-2.24,-0.30,0.47,-139.27
38618,774.23,766.27,751.41,760.03,762.98,134.77,-931.15,385.25,-0.37,2.95,1.02,-139.67
38656,774.28,766.28,751.43,759.95,762.99,129.88,-928.71,377.44,0.29,1.41,1.42,-139.91
38697,774.43,766.29,751.39,759.90,763.00,137.70,-943.36,387.21,0.27,1.07,0.39,-139.40
38735,774.46,766.19,751.36,759.90,762.98,131.84,-928.71,383.30,2.08,2.19,-3.02,-138.63
38774,774.67,766.08,751.35,759.82,762.98,137.21,-925.29,382.81,1.73,0.07,0.47,-138.26
38812,774.98,765.94,751.37,759.74,763.01,126.95,-943.85,382.32,-0.79,0.72,2.76,-138.58
38851,775.15,765.86,751.23,759.64,762.97,137.70,-933.11,398.93,0.75,1.85,1.77,-135.77
38889,775.23,765.81,751.27,759.60,762.98,118.65,-939.94,386.72,1.68,2.42,-0.37,-136.36
38930,775.42,765.73,751.22,759.65,763.00,125.98,-928.71,372.56,-0.73,3.07,-1.28,-136.16
38969,775.35,765.78,751.25,759.66,763.01,129.39,-947.27,381.84,-1.13,0.48,0.15,-136.70
39007,775.32,765.77,751.26,759.68,763.01,116.21,-937.01,375.00,-1.08,1.05,-2.21,-136.94
39046,775.30,765.79,751.24,759.69,763.00,131.84,-922.36,375.98,-1.69,1.39,1.94,-136.51
39084,775.24,765.83,751.27,759.62,762.99,125.49,-941.89,395.51,0.50,1.56,0.83,-136.70
39123,775.19,765.89,751.23,759.68,763.00,117.19,-940.92,396.00,0.11,0.41,1.89,-136.14
39164,775.11,765.87,751.25,759.69,762.98,125.98,-935.55,385.74,0.48,1.54,0.65,-136.18
39206,775.15,765.83,751.29,759.72,763.00,138.67,-945.80,380.37,0.39,0.28,-0.19,-137.32
39245,775.16,765.76,751.28,759.60,762.95,129.39,-933.11,373.05,0.06,-0.27,-0.13,-135.97
39283,775.11,765.77,751.27,759.62,762.94,132.81,-920.41,389.65,1.50,1.37,1.18,-135.88
39322,775.09,765.79,751.28,759.63,762.95,127.93,-937.50,382.81,0.40,1.76,-0.40,-136.07
39360,775.06,765.72,751.27,759.64,762.92,134.77,-937.50,394.53,1.06,0.45,1.89,-135.51
39400,775.15,765.71,751.25,759.66,762.94,140.62,-934.08,389.65,0.15,0.80,1.38,-135.70
39439,775.08,765.78,751.29,759.69,762.96,134.28,-921.39,381.84,3.00,-0.14,-0.08,-136.70
39477,775.14,765.69,751.31,759.70,762.96,118.65,-938.96,381.84,0.98,1.37,-0.01,-136.74
39515,775.03,765.77,751.31,759.61,762.93,121.09,-929.69,381.84,-0.85,2.63,1.05,-136.09
39553,774.93,765.79,751.22,759.71,762.91,120.61,-931.15,379.88,-0.81,2.44,-0.89,-134.65
39591,774.95,765.79,751.33,759.67,762.94,124.02,-929.20,375.49,-0.18,-0.11,2.09,-136.62
39632,775.02,765.77,751.26,759.61,762.92,127.44,-933.11,387.21,-0.76,1.60,0.10,-135.16
39670,774.98,765.76,751.25,759.71,762.92,120.61,-935.06,381.84,1.03,0.89,0.79,-135.50
39709,775.05,765.68,751.25,759.59,762.89,132.81,-934.08,383.79,1.37,0.51,-0.01,-134.43
39747,775.07,765.66,751.32,759.59,762.91,132.32,-934.08,376.46,0.75,-0.08,2.62,-135.51
39785,775.18,765.62,751.24,759.56,762.90,129.88,-934.57,376.46,-0.24,2.30,2.08,-134.34
39823,775.27,765.56,751.22,759.55,762.90,116.70,-929.69,381.84,-0.55,-0.52,-0.79,-134.07
39864,775.29,765.47,751.23,759.53,762.88,125.00,-931.15,384.28,0.50,-0.41,-0.60,-133.43
39902,775.34,765.48,751.22,759.51,762.89,134.28,-936.52,389.65,0.40,-0.45,-0.82,-133.47
39941,775.52,765.40,751.21,759.49,762.90,121.09,-924.32,384.28,2.85,0.65,1.16,-133.40
39979,775.62,765.37,751.21,759.50,762.92,128.91,-932.62,385.25,-1.31,0.89,0.53,-133.69
40017,775.70,765.28,751.21,759.46,762.91,121.09,-938.96,378.42,-0.29,0.71,-0.02,-133.11
40058,775.72,765.18,751.15,759.48,762.88,124.02,-929.20,375.98,-0.33,2.10,0.98,-131.94
40099,775.75,765.18,751.17,759.41,762.88,127.44,-926.76,391.60,1.83,2.21,-0.69,-131.62
40138,775.77,765.19,751.17,759.49,762.91,133.30,-935.55,366.70,-0.24,3.25,1.32,-132.45
40176,775.72,765.32,751.20,759.45,762.92,128.42,-932.13,388.67,1.12,1.11,0.47,-133.17
40214,775.58,765.35,751.14,759.53,762.90,120.12,-932.62,396.97,0.03,-0.09,-0.76,-132.67
40252,775.42,765.38,751.21,759.51,762.88,126.95,-949.22,377.44,1.51,1.76,3.59,-132.93
40294,775.32,765.45,751.15,759.52,762.86,119.63,-929.20,401.86,-0.15,0.16,0.52,-132.39
40332,775.24,765.49,751.23,759.52,762.87,117.68,-931.64,380.86,0.92,1.63,2.70,-133.33
40370,775.11,765.48,751.22,759.61,762.85,130.37,-930.18,383.79,1.53,0.70,1.45,-133.16
40409,775.07,765.57,751.22,759.58,762.86,138.18,-938.96,378.91,0.54,1.56,-1.28,-133.36
40447,774.95,765.63,751.26,759.61,762.86,126.95,-926.27,392.09,0.59,3.79,-0.02,-134.08
40485,774.87,765.59,751.26,759.62,762.83,128.42,-938.96,391.60,-0.70,1.50,0.79,-133.41
40526,774.85,765.63,751.23,759.63,762.83,136.72,-928.22,386.72,1.02,0.94,-3.44,-133.16
40564,774.83,765.69,751.31,759.64,762.87,144.53,-930.18,392.58,0.81,3.59,-2.33,-134.84
40603,774.76,765.69,751.26,759.65,762.84,129.39,-935.06,371.58,-1.24,1.13,-0.37,-133.83
40642,774.88,765.67,751.24,759.65,762.86,118.16,-937.50,376.46,-0.22,2.89,2.92,-133.89
40680,774.83,765.74,751.19,759.62,762.85,127.44,-937.01,395.02,0.81,1.82,-2.30,-132.92
40718,774.84,765.68,751.23,759.64,762.85,135.74,-944.82,391.11,0.90,1.59,-0.53,-133.63
40760,774.78,765.70,751.24,759.60,762.83,123.05,-945.31,377.93,-0.50,2.15,-0.44,-133.25
40798,774.76,765.73,751.29,759.60,762.85,107.42,-939.94,381.35,-1.56,1.60,-1.69,-134.17
40836,774.72,765.69,751.31,759.58,762.82,125.49,-937.99,383.30,1.96,4.22,-0.48,-133.79
40875,774.70,765.78,751.27,759.73,762.87,125.00,-929.20,387.70,-0.98,0.89,-1.63,-134.88
40914,774.57,765.81,751.26,759.68,762.83,123.54,-934.08,378.91,1.47,0.97,1.76,-133.87
40952,774.58,765.81,751.27,759.66,762.83,140.62,-931.15,382.81,-0.06,1.65,0.40,-133.97
40993,774.53,765.79,751.25,759.65,762.81,125.98,-939.45,377.93,-0.22,2.57,-0.57,-133.23
41036,774.58,765.82,751.23,759.70,762.83,128.91,-946.29,383.79,-0.11,3.70,-2.12,-133.69
41074,774.56,765.91,751.27,759.69,762.86,126.46,-937.99,395.51,1.04,0.68,2.11,-134.54
41113,774.48,765.89,751.32,759.69,762.84,129.39,-929.69,381.84,1.02,0.67,0.65,-134.86
41151,774.45,765.82,751.31,759.70,762.82,135.74,-949.71,383.30,1.83,0.63,-2.24,-134.47
41193,774.45,765.92,751.36,759.69,762.85,127.93,-935.55,383.30,-0.79,3.21,0.50,-135.60
41232,774.54,765.94,751.31,759.67,762.86,140.62,-948.24,385.74,-0.92,2.50,-0.80,-135.03
41270,774.48,765.85,751.32,759.68,762.83,122.07,-934.08,380.86,0.85,2.23,1.66,-134.61
41308,774.47,765.92,751.24,759.66,762.82,142.58,-943.36,378.42,0.98,0.59,-1.27,-133.32
41347,774.55,765.85,751.31,759.73,762.86,129.88,-932.62,388.67,-0.73,2.44,0.06,-135.29
41385,774.53,765.91,751.28,759.73,762.86,132.32,-934.08,395.02,0.47,2.64,2.55,-134.88
41426,774.45,765.96,751.29,759.71,762.85,124.02,-927.25,390.14,-1.68,1.11,1.16,-134.83
41465,774.42,765.95,751.33,759.77,762.87,130.37,-938.48,384.28,2.95,1.10,1.54,-135.82
41503,774.38,766.01,751.33,759.75,762.87,140.14,-944.82,379.88,-0.37,-0.92,0.52,-135.68
41542,774.40,766.04,751.36,759.77,762.89,120.61,-938.48,378.42,1.48,3.04,-0.95,-136.58
41583,774.42,766.02,751.28,759.73,762.86,127.93,-930.18,386.72,0.60,0.02,-0.05,-134.92
41621,774.44,765.97,751.27,759.76,762.86,127.93,-941.89,390.14,-0.47,0.62,-1.28,-134.82
41662,774.38,766.01,751.31,759.77,762.87,128.42,-932.13,396.48,0.13,2.12,0.69,-135.48
41701,774.42,765.98,751.29,759.69,762.84,123.54,-929.69,375.98,0.34,2.17,-0.65,-134.39
41739,774.41,765.99,751.30,759.75,762.86,139.65,-937.50,378.91,1.18,1.46,-1.83,-135.25
41778,774.42,765.98,751.31,759.73,762.86,123.05,-934.08,383.30,1.23,0.08,1.48,-135.13
41816,774.48,765.93,751.25,759.79,762.86,126.46,-937.01,372.56,0.27,1.65,2.18,-134.56
41855,774.47,766.04,751.32,759.73,762.89,130.37,-933.59,388.67,-1.82,-0.59,-0.24,-135.86
41896,774.52,765.86,751.28,759.69,762.84,126.95,-925.78,387.70,0.27,2.30,1.23,-134.34
41934,774.52,765.91,751.24,759.68,762.84,135.74,-931.64,392.58,-0.31,2.12,-0.62,-133.71
41976,774.47,765.88,751.24,759.65,762.81,116.21,-947.75,381.35,1.12,0.27,-0.19,-133.16
42015,774.44,765.87,751.36,759.71,762.84,132.32,-936.52,389.65,0.60,0.85,-0.37,-135.45
42053,774.53,765.94,751.28,759.78,762.88,134.28,-935.55,386.72,-0.73,1.43,-1.81,-135.34
42091,774.39,765.95,751.32,759.81,762.87,119.14,-944.34,387.70,-2.01,-0.78,-0.86,-135.67
42133,774.34,765.99,751.28,759.74,762.84,135.74,-937.99,379.88,0.85,1.61,0.89,-134.53
42171,774.46,766.01,751.31,759.65,762.86,118.65,-932.13,386.23,-1.27,1.80,-1.26,-134.90
42209,774.41,766.02,751.32,759.66,762.85,129.39,-937.50,390.62,0.98,0.15,-2.98,-134.92
42247,774.37,765.99,751.23,759.66,762.81,135.25,-933.59,382.81,-0.50,-0.37,0.28,-133.11
42286,774.47,765.97,751.24,759.70,762.85,131.35,-929.69,403.32,0.64,1.35,0.08,-133.95
42326,774.47,765.94,751.32,759.71,762.86,133.79,-933.11,384.77,-0.31,2.14,1.24,-135.23
42365,774.60,765.90,751.28,759.68,762.87,129.39,-923.34,382.81,1.63,0.66,2.89,-134.83
42403,774.93,765.64,751.19,759.48,762.81,132.32,-932.13,392.58,0.21,1.98,-1.02,-131.78
42442,775.55,765.47,751.09,759.46,762.89,143.07,-939.94,391.11,-0.75,1.62,2.73,-132.03
42480,775.82,765.26,751.07,759.41,762.89,125.98,-935.06,390.62,-0.11,1.43,-1.28,-131.51
42519,775.88,765.25,751.20,759.44,762.94,137.21,-930.18,381.35,1.56,-0.17,2.15,-133.41
42560,775.90,765.27,751.19,759.50,762.96,119.14,-932.13,388.18,0.20,0.74,-0.31,-133.82
42598,775.81,765.29,751.09,759.54,762.93,132.32,-938.48,385.25,1.10,0.71,1.73,-132.67
42637,775.77,765.34,751.12,759.52,762.94,125.49,-928.22,385.74,0.33,1.30,-3.58,-132.90
42675,775.73,765.26,751.18,759.58,762.94,134.77,-933.11,384.77,-0.66,2.90,1.15,-133.61
42714,775.81,765.35,751.19,759.58,762.98,133.79,-917.97,386.72,0.08,0.49,2.07,-134.71
42752,775.77,765.34,751.15,759.57,762.96,128.42,-922.85,378.42,0.76,1.23,0.05,-133.61
42793,775.68,765.35,751.19,759.56,762.94,118.65,-926.76,374.02,0.11,0.40,0.26,-133.90
42832,775.69,765.28,751.12,759.56,762.91,135.74,-934.08,381.84,0.00,1.54,-0.87,-132.74
42870,775.63,765.38,751.24,759.60,762.96,129.88,-937.99,383.79,-1.09,1.59,0.87,-134.98
42913,775.64,765.29,751.19,759.64,762.94,128.91,-927.73,385.74,-0.51,-0.44,-1.48,-133.90
42952,775.58,765.34,751.19,759.69,762.95,114.26,-934.57,379.88,-0.26,1.94,-0.11,-134.49
42990,775.64,765.33,751.14,759.62,762.93,123.05,-936.04,381.84,1.95,0.84,-1.56,-133.35
43031,775.67,765.28,751.22,759.62,762.95,137.21,-922.36,382.81,-0.27,0.18,2.40,-134.25
43072,775.78,765.31,751.21,759.54,762.96,136.23,-930.66,388.18,-0.67,2.77,-0.02,-134.25
43110,775.73,765.24,751.15,759.55,762.92,134.28,-929.69,377.93,1.65,4.31,1.43,-132.90
43148,775.78,765.19,751.18,759.54,762.92,131.84,-930.66,390.14,1.56,-0.30,-0.02,-132.86
43187,775.81,765.25,751.20,759.51,762.94,130.37,-929.69,388.18,1.51,2.91,-0.11,-133.58
43225,775.73,765.28,751.26,759.51,762.94,131.35,-943.85,384.28,0.51,1.54,0.08,-134.23
43266,775.53,765.39,751.30,759.47,762.92,139.65,-920.41,389.65,1.79,0.54,0.44,-134.36
43305,775.49,765.28,751.16,759.61,762.88,134.28,-929.69,383.30,0.01,1.85,-0.01,-132.80
43343,775.33,765.39,751.21,759.61,762.88,132.81,-928.71,386.72,-0.53,2.49,1.69,-133.43
43381,775.21,765.55,751.25,759.62,762.91,123.54,-933.11,382.32,-1.60,-0.11,-0.95,-134.71
43420,775.04,765.59,751.28,759.66,762.89,125.00,-937.01,385.25,-2.02,1.66,-1.32,-134.98
43459,774.88,765.59,751.29,759.76,762.88,122.07,-940.43,382.32,1.86,-0.05,1.11,-135.05
43499,774.75,765.63,751.21,759.74,762.83,137.70,-945.31,387.21,1.67,0.52,1.76,-133.15
43538,774.63,765.68,751.23,759.80,762.84,128.42,-930.66,383.30,0.69,1.30,0.79,-133.83
43576,774.58,765.66,751.32,759.76,762.83,124.51,-935.06,391.60,-0.89,1.03,1.50,-134.75
43615,774.56,765.71,751.31,759.82,762.85,128.91,-940.43,377.44,0.76,1.50,-0.35,-135.30
43653,774.52,765.69,751.30,759.74,762.81,126.95,-932.13,376.95,0.63,1.37,0.35,-134.20
43694,774.51,765.69,751.32,759.70,762.81,125.98,-931.15,378.42,-1.28,2.95,1.74,-134.11
43732,774.46,765.62,751.27,759.77,762.78,127.44,-937.01,375.49,0.77,0.57,2.82,-133.12
43770,774.49,765.71,751.22,759.69,762.78,135.74,-921.39,376.95,-0.47,0.97,-1.35,-132.45
43808,774.38,765.68,751.36,759.74,762.79,121.58,-928.71,379.88,-3.13,2.49,2.71,-134.23
43850,774.29,765.62,751.29,759.76,762.74,122.07,-927.73,402.34,-0.68,-1.98,-0.60,-132.67
43888,774.26,765.74,751.35,759.80,762.79,126.95,-931.15,381.35,2.77,0.73,-0.37,-134.45
43936,774.14,765.79,751.31,759.76,762.75,124.02,-933.11,395.02,1.52,1.33,0.24,-133.21
43974,774.09,765.83,751.35,759.85,762.78,115.23,-919.43,377.44,1.47,1.77,2.39,-134.75
44013,774.10,765.86,751.33,759.77,762.76,136.23,-944.34,382.81,-0.02,0.11,0.61,-133.89
44051,773.97,765.91,751.38,759.77,762.76,132.81,-944.34,370.61,1.46,1.23,0.76,-134.39
44089,773.90,765.94,751.35,759.88,762.77,117.19,-930.66,372.56,0.31,-1.33,0.78,-134.64
44127,773.90,765.97,751.39,759.86,762.78,121.58,-941.41,388.18,1.55,1.30,0.20,-135.24
44172,773.68,766.04,751.38,759.85,762.74,137.70,-941.41,375.49,1.32,0.04,0.21,-134.35
44211,773.63,766.15,751.43,759.90,762.78,133.79,-937.99,384.77,0.41,2.05,1.79,-135.86
44250,773.60,766.13,751.31,759.90,762.74,127.93,-935.06,384.77,0.21,1.19,3.18,-133.68
44288,773.55,766.14,751.40,759.95,762.76,125.00,-930.66,383.79,-0.06,1.79,-0.48,-135.41
44328,773.48,766.19,751.38,759.96,762.75,124.51,-929.69,383.79,0.40,-0.40,-0.89,-135.07
44367,773.44,766.16,751.38,760.00,762.74,122.56,-947.27,396.97,0.55,1.08,0.57,-135.06
44408,773.41,766.33,751.37,759.99,762.78,121.58,-934.57,381.84,-1.74,0.76,1.14,-135.50
44446,773.29,766.27,751.37,760.04,762.74,124.02,-938.48,378.42,-0.15,1.22,0.51,-135.04
44485,773.27,766.26,751.46,760.03,762.75,131.35,-932.13,387.70,1.33,1.97,-2.05,-136.48
44523,773.23,766.25,751.38,759.90,762.69,125.00,-924.32,395.02,2.80,1.70,1.72,-133.78
44569,773.29,766.22,751.39,759.92,762.71,126.95,-925.78,377.93,0.41,3.55,0.07,-134.28
44608,773.25,766.27,751.40,759.95,762.71,134.28,-929.69,385.74,0.84,4.45,-0.71,-134.63
44649,773.37,766.28,751.38,759.99,762.76,141.11,-941.41,389.65,-0.24,4.53,-1.01,-135.33
44687,773.32,766.25,751.36,759.98,762.73,123.54,-940.43,384.77,0.17,-0.73,0.67,-134.45
44730,773.25,766.25,751.38,759.99,762.72,121.09,-932.13,385.74,0.06,1.45,-0.40,-134.68
44768,773.26,766.14,751.44,759.95,762.70,137.70,-936.52,386.72,-0.69,2.04,0.65,-134.86
44806,773.33,766.23,751.40,759.95,762.73,129.88,-936.52,361.33,0.42,2.20,0.56,-134.76
44845,773.26,766.28,751.44,759.98,762.74,119.63,-928.71,384.28,1.08,1.05,0.27,-135.81
44886,773.31,766.22,751.39,759.94,762.72,115.23,-926.76,380.37,2.26,0.92,-1.24,-134.44
44924,773.29,766.24,751.39,759.94,762.71,117.68,-930.66,374.51,0.55,1.21,-0.08,-134.41
44963,773.43,766.11,751.41,759.98,762.73,116.21,-932.62,393.07,0.37,1.78,-0.72,-135.17
45001,773.56,766.09,751.42,759.99,762.76,121.09,-931.15,380.37,-0.33,2.11,-1.40,-135.93
45040,773.54,766.12,751.42,759.87,762.74,117.19,-938.48,386.72,-0.30,0.49,2.24,-135.05
45081,773.41,766.12,751.30,759.91,762.68,118.16,-941.89,386.72,-1.08,0.98,0.69,-132.53
45119,773.58,766.11,751.44,759.88,762.75,141.60,-927.25,387.70,-1.76,0.27,1.94,-135.60
45158,773.54,766.15,751.33,759.84,762.72,125.49,-925.29,382.32,-1.08,3.12,-1.47,-133.31
45196,773.49,766.09,751.31,759.84,762.68,128.91,-928.71,374.02,2.38,0.83,-1.11,-132.43
45235,773.46,766.08,751.34,759.86,762.69,134.28,-930.66,394.53,1.30,0.79,-0.16,-132.98
45273,773.49,766.13,751.38,759.97,762.74,121.09,-938.48,386.23,1.78,2.38,0.47,-134.98
45314,773.49,766.22,751.36,759.91,762.75,125.98,-942.38,389.65,1.65,1.10,0.11,-134.48
45353,773.42,766.13,751.41,759.91,762.72,121.09,-938.48,384.77,-0.07,-0.03,-0.56,-134.73
45391,773.46,766.09,751.37,759.91,762.71,130.86,-948.73,388.67,-0.19,2.30,2.08,-133.85
45430,773.56,766.06,751.32,759.98,762.73,128.42,-938.48,393.07,-0.63,1.22,0.49,-133.94
45468,773.57,766.11,751.36,759.90,762.73,124.02,-937.50,385.74,-0.22,-0.17,2.75,-134.15
45507,773.54,766.02,751.40,759.91,762.72,125.98,-939.94,387.21,0.05,0.71,0.45,-134.60
45548,773.59,765.98,751.42,759.88,762.72,132.81,-937.50,378.42,0.97,1.18,-0.23,-134.53
45586,773.61,766.01,751.43,759.89,762.73,134.77,-937.01,382.32,-0.19,3.92,0.94,-135.13
45624,773.61,765.97,751.38,759.87,762.71,113.28,-928.71,370.12,1.15,2.82,-0.17,-133.80
45666,773.76,765.96,751.34,759.89,762.74,135.74,-915.53,379.88,0.21,0.86,-0.68,-134.04
45704,773.83,766.00,751.36,759.87,762.76,136.72,-927.25,384.28,-0.70,1.67,-0.02,-134.61
45742,773.82,765.88,751.27,759.81,762.70,128.42,-945.80,388.67,-1.27,-0.66,2.57,-132.06
45784,773.96,765.82,751.32,759.74,762.71,127.93,-922.85,376.46,0.11,0.82,-0.43,-132.53
45822,774.18,765.68,751.29,759.70,762.71,142.09,-932.13,377.44,0.55,3.23,0.16,-131.94
45860,774.23,765.56,751.33,759.62,762.68,128.42,-920.41,385.25,0.35,-0.10,-0.73,-131.27
45899,774.41,765.53,751.24,759.60,762.69,128.42,-930.18,392.09,1.50,2.03,2.02,-130.63
45937,774.46,765.49,751.21,759.56,762.68,122.07,-934.08,385.25,-0.02,1.30,0.54,-130.22
45975,774.64,765.52,751.19,759.53,762.72,135.74,-935.06,370.12,-0.51,1.80,-0.62,-130.55
46016,774.67,765.45,751.20,759.50,762.71,125.98,-927.25,389.65,0.38,0.79,0.23,-130.29
46054,774.76,765.45,751.20,759.53,762.74,123.05,-942.38,387.21,0.36,4.92,3.15,-130.77
46093,774.66,765.54,751.21,759.47,762.72,128.91,-939.94,385.74,-0.83,-0.93,0.79,-130.40
46131,774.52,765.58,751.25,759.53,762.72,125.49,-928.71,375.98,0.40,2.25,0.72,-130.98
46170,774.37,765.64,751.19,759.58,762.69,126.95,-938.48,372.07,0.05,0.96,-1.12,-130.55
46211,774.37,765.68,751.23,759.70,762.74,133.79,-930.66,393.55,1.17,-1.19,2.39,-131.91
46249,774.36,765.59,751.29,759.65,762.72,124.02,-925.78,387.70,0.50,2.02,-0.50,-131.88
46288,774.30,765.62,751.36,759.64,762.73,128.91,-925.29,380.37,-2.39,4.00,1.30,-132.54
46326,774.46,765.64,751.31,759.60,762.75,121.58,-919.43,380.86,0.48,-0.85,-0.48,-132.55
46365,774.53,765.54,751.23,759.53,762.71,139.65,-932.62,391.11,1.02,4.10,-1.31,-130.52
46403,774.64,765.49,751.18,759.53,762.71,122.56,-939.94,383.79,-1.09,0.19,-0.53,-130.47
46444,774.84,765.43,751.19,759.51,762.74,143.07,-934.08,385.74,0.80,0.83,-0.28,-130.79
46483,774.78,765.38,751.22,759.58,762.74,131.35,-936.52,398.44,1.66,2.95,-0.14,-130.95
46521,774.82,765.40,751.17,759.57,762.74,130.86,-924.80,388.67,0.83,1.40,0.09,-130.93
46560,774.93,765.36,751.19,759.46,762.74,119.14,-943.85,379.39,1.87,1.30,2.03,-130.23
46601,774.99,765.34,751.17,759.40,762.72,138.18,-939.94,388.67,1.20,2.25,0.09,-129.76
46640,775.05,765.24,751.15,759.49,762.73,121.58,-924.80,386.72,0.58,2.35,-0.10,-130.18
46681,775.18,765.24,751.12,759.28,762.71,126.95,-937.01,382.32,3.02,0.32,0.14,-128.82
46720,775.29,765.12,751.12,759.31,762.71,133.79,-931.15,374.51,-0.81,1.24,0.56,-128.84
46758,775.42,765.12,751.11,759.25,762.73,135.25,-923.83,382.81,-0.95,0.15,-0.74,-128.69
46796,775.58,765.15,751.11,759.22,762.77,131.35,-937.01,400.88,-0.49,1.66,1.91,-129.12
46835,775.53,765.18,751.11,759.28,762.78,132.81,-933.11,396.97,0.79,-0.39,3.40,-129.64
46873,775.58,765.03,751.15,759.27,762.75,124.02,-928.71,388.67,0.92,4.95,0.06,-129.02
46914,775.48,765.07,751.11,759.28,762.73,137.70,-933.11,376.46,2.49,-0.82,-1.98,-128.87
46953,775.51,765.05,751.15,759.37,762.77,127.93,-934.57,379.39,0.42,0.82,0.38,-129.75
46991,775.55,764.97,751.10,759.25,762.72,134.77,-937.01,391.11,0.05,0.40,0.44,-128.31
47030,775.60,764.98,751.11,759.24,762.73,132.81,-938.96,379.39,0.16,2.51,0.87,-128.47
47068,775.54,764.93,751.11,759.22,762.70,127.44,-938.96,388.18,0.66,0.34,1.59,-127.86
47107,775.56,764.86,751.08,759.23,762.68,139.16,-935.06,385.74,0.50,0.17,-2.46,-127.56
47148,775.61,764.83,751.10,759.15,762.67,140.62,-931.64,390.14,0.73,4.11,0.50,-126.97
47186,775.63,764.74,751.06,759.19,762.65,130.86,-950.68,381.84,1.33,0.47,-0.88,-126.74
47225,775.65,764.73,751.06,759.25,762.67,139.16,-928.71,385.25,-0.31,-0.90,-0.53,-127.32
47264,775.63,764.67,751.04,759.20,762.63,146.00,-937.99,371.58,-0.49,3.52,0.92,-126.50
47302,775.52,764.71,751.08,759.26,762.64,140.14,-930.18,375.98,-0.15,1.95,1.63,-126.94
47341,775.53,764.69,751.03,759.21,762.61,137.21,-948.73,379.39,-0.69,-0.47,0.11,-126.24
47382,775.54,764.70,751.05,759.24,762.63,131.35,-940.92,387.21,-0.85,0.66,1.54,-126.70
47420,775.65,764.63,751.02,759.19,762.62,135.74,-930.66,396.48,0.02,1.51,-1.28,-126.23
47458,775.81,764.65,751.04,759.19,762.67,134.28,-935.06,376.95,-0.28,0.54,-0.48,-126.86
47497,775.86,764.62,751.08,759.16,762.68,144.04,-937.01,379.88,-2.10,3.56,1.11,-126.82
47541,775.83,764.70,751.06,759.11,762.68,140.14,-931.64,392.58,-0.21,0.62,-3.04,-126.54
47583,775.90,764.65,751.05,759.05,762.66,131.35,-932.62,374.51,-0.52,-0.47,-0.10,-125.98
47621,775.94,764.71,751.03,759.16,762.71,122.56,-924.80,382.32,0.53,0.71,-0.34,-127.36
47660,775.93,764.62,751.02,759.14,762.68,127.93,-928.22,376.95,0.29,1.69,-1.11,-126.65
47698,775.97,764.61,751.04,759.17,762.70,129.88,-928.71,376.46,0.76,1.47,1.34,-127.13
47736,775.99,764.54,751.09,759.23,762.71,136.72,-934.08,391.60,2.05,2.69,0.77,-127.58
47774,776.07,764.51,750.96,759.14,762.67,132.32,-925.78,391.60,0.59,1.38,1.73,-126.29
47815,776.14,764.50,751.00,759.14,762.69,125.00,-933.59,383.30,0.84,0.48,-1.38,-126.72
47854,776.14,764.49,751.02,759.11,762.69,141.60,-937.99,378.91,0.43,1.07,-0.58,-126.52
47892,776.37,764.47,751.00,759.07,762.73,128.42,-923.83,376.46,0.05,0.24,-1.39,-126.78
47931,776.28,764.36,751.05,759.10,762.70,120.12,-948.24,387.21,1.05,-1.70,0.15,-126.50
47969,776.40,764.40,750.98,759.02,762.70,138.67,-938.48,384.28,0.27,1.25,1.11,-126.03
48008,776.31,764.37,751.00,758.95,762.65,138.67,-941.41,402.34,-1.15,1.98,-2.38,-125.00
48049,776.18,764.37,751.00,759.06,762.65,126.95,-934.57,390.62,0.88,1.08,0.85,-125.67
48087,776.23,764.48,751.02,759.02,762.68,139.16,-939.94,382.32,1.21,2.93,1.15,-125.90
48126,776.09,764.59,750.94,759.00,762.65,133.30,-947.75,379.39,-1.28,1.60,-0.54,-125.51
48164,775.92,764.62,751.04,759.10,762.67,130.86,-926.27,372.56,1.02,1.94,-0.66,-126.28
48203,775.87,764.62,750.99,759.02,762.63,124.02,-942.38,378.91,0.21,1.02,1.61,-125.32
48241,775.76,764.73,751.07,759.14,762.67,142.09,-945.31,381.35,-0.42,2.30,1.79,-126.71
48282,775.73,764.71,751.01,759.14,762.65,142.09,-933.59,367.19,-0.59,3.02,0.91,-126.43
48321,775.74,764.76,751.06,759.24,762.70,127.93,-937.50,366.21,1.59,1.00,-0.39,-127.66
48359,775.46,764.81,751.06,759.26,762.65,123.54,-933.59,379.39,0.99,1.50,1.38,-127.19
48398,775.42,764.86,751.05,759.27,762.65,127.44,-940.43,378.91,1.11,1.11,0.32,-127.30
48436,775.47,764.89,751.06,759.33,762.69,126.46,-939.45,377.44,-1.97,1.07,1.02,-128.10
48480,775.47,764.95,751.08,759.35,762.71,124.02,-930.18,385.25,-0.31,-0.37,0.60,-128.68
48521,775.41,764.98,751.13,759.37,762.72,132.81,-933.59,386.72,1.12,2.10,-1.40,-129.01
48559,775.27,764.96,751.04,759.39,762.67,127.44,-929.69,381.35,-0.86,1.87,1.83,-128.21
48598,775.20,764.92,751.14,759.44,762.68,136.72,-932.13,368.65,1.39,1.48,-1.13,-128.57
48636,775.28,765.02,751.08,759.33,762.68,129.39,-931.64,382.81,-1.08,2.53,-0.90,-128.25
48674,775.31,765.00,751.09,759.43,762.71,124.02,-933.59,375.49,0.98,2.39,0.26,-128.97
48713,775.43,764.92,751.11,759.33,762.70,133.79,-934.57,374.02,-0.82,-0.66,-2.31,-128.34
48754,775.45,764.82,751.09,759.34,762.68,138.67,-938.96,376.46,0.40,1.33,0.44,-127.94
48792,775.65,764.84,751.02,759.21,762.68,129.39,-924.32,383.79,-1.27,1.69,0.00,-127.38
48831,775.67,764.83,751.08,759.20,762.70,135.25,-944.34,376.95,-0.28,-1.13,0.61,-127.52
48869,775.67,764.77,751.07,759.19,762.68,121.58,-930.66,377.93,-0.90,1.69,1.89,-127.12
48908,775.69,764.71,751.04,759.21,762.66,136.23,-937.01,376.95,-0.89,-0.08,-0.53,-126.97
48949,775.54,764.88,751.01,759.20,762.66,131.84,-939.45,385.74,-2.15,2.38,1.18,-127.15
48987,775.44,764.84,751.06,759.23,762.64,124.51,-940.92,374.51,0.98,2.72,-1.35,-127.00
49026,775.44,764.83,751.03,759.17,762.62,130.37,-938.48,374.02,-0.31,-2.80,0.98,-126.32
49065,775.45,764.85,751.09,759.32,762.68,130.86,-933.59,387.70,-0.31,3.15,1.10,-127.88
49103,775.39,764.83,751.14,759.23,762.65,121.09,-927.73,371.09,0.71,-1.37,0.75,-127.03
49142,775.49,764.89,751.16,759.24,762.70,138.18,-942.38,379.88,0.07,1.96,-1.06,-127.79
49182,775.49,764.79,751.04,759.30,762.66,118.65,-935.55,377.44,-0.08,0.53,1.02,-127.37
49221,775.64,764.72,751.09,759.16,762.65,132.32,-931.15,381.84,-0.27,2.29,1.98,-126.54
49259,775.74,764.74,751.08,759.22,762.70,130.37,-941.89,372.07,2.18,0.89,-0.35,-127.50
49297,775.85,764.63,751.05,759.13,762.66,129.39,-940.43,381.84,-2.50,1.28,-0.40,-126.45
49335,775.89,764.77,751.08,759.13,762.72,137.21,-937.01,386.72,1.60,2.23,1.31,-127.36
49374,775.88,764.64,751.03,759.15,762.68,125.49,-937.01,388.67,-0.01,0.44,-1.02,-126.73
49420,775.95,764.62,751.08,759.09,762.68,132.32,-949.71,375.98,0.92,0.23,-2.80,-126.44
49459,776.13,764.60,751.03,759.08,762.71,125.49,-935.55,387.21,0.12,1.69,-2.70,-126.71
49497,776.13,764.53,751.05,759.08,762.70,123.05,-946.29,386.72,0.08,0.52,-1.06,-126.44
49535,776.34,764.54,751.01,758.97,762.71,129.39,-935.55,370.12,-1.49,0.61,0.08,-126.06
49573,776.31,764.46,750.99,759.00,762.69,130.86,-933.11,375.49,-1.46,0.85,-0.37,-125.88
49612,776.41,764.53,751.00,759.03,762.74,137.70,-928.71,375.98,-1.40,2.52,-0.74,-126.76
49652,776.48,764.49,751.02,759.05,762.76,120.61,-931.64,385.25,0.60,2.60,0.49,-127.11
49690,776.36,764.48,750.97,759.05,762.71,128.91,-932.62,381.35,0.25,0.78,-0.40,-126.46
49729,776.45,764.47,750.99,759.05,762.74,136.72,-922.36,381.35,-0.24,1.79,1.14,-126.80
49768,776.54,764.49,751.02,759.00,762.76,129.39,-942.38,389.16,1.47,0.17,1.32,-126.83
49806,776.51,764.48,751.05,759.02,762.76,132.81,-946.29,388.67,-0.66,0.73,-2.57,-126.96
49844,776.54,764.42,750.96,759.06,762.74,132.32,-933.59,385.74,0.72,1.37,-0.35,-126.79
49885,776.58,764.43,751.06,759.07,762.78,130.86,-929.20,376.46,0.09,-0.88,-2.18,-127.49
49924,776.61,764.44,750.96,758.99,762.75,127.44,-926.27,380.86,1.08,1.33,2.53,-126.50
49962,776.70,764.40,750.95,759.03,762.77,137.70,-931.64,386.23,2.24,1.89,-3.02,-126.93
50001,776.86,764.36,750.92,758.92,762.77,115.23,-943.85,375.98,0.45,5.65,-1.54,-126.24
50039,776.92,764.33,750.93,758.93,762.78,127.44,-929.20,380.37,-2.33,2.13,-2.11,-126.40
50080,776.90,764.38,750.91,758.91,762.78,133.79,-937.01,397.95,-2.23,0.89,-0.05,-126.32
50118,776.96,764.26,750.89,758.94,762.76,139.16,-939.94,379.39,0.42,2.34,2.21,-126.09
50157,776.94,764.27,751.06,758.92,762.79,131.84,-933.59,378.42,-0.39,0.44,-1.21,-126.59
50195,776.90,764.29,751.00,758.88,762.77,130.37,-942.87,383.79,0.44,2.26,-1.17,-126.11
50234,776.92,764.23,750.96,758.96,762.77,132.32,-937.99,384.77,0.35,1.14,-1.34,-126.42
50272,776.95,764.25,750.93,758.94,762.77,126.46,-935.06,378.91,-0.07,0.33,-0.47,-126.23
50317,777.08,764.23,750.90,758.87,762.77,140.62,-931.15,369.63,1.53,3.65,-0.48,-125.94
50355,777.21,764.17,750.92,758.82,762.78,131.35,-942.38,384.77,1.27,5.30,-0.56,-125.72
50394,777.19,764.18,750.93,758.83,762.78,128.42,-936.04,384.28,0.46,0.67,0.85,-125.89
50432,777.19,764.10,750.92,758.79,762.75,133.30,-931.15,379.88,-0.38,-0.18,-0.19,-125.19
50471,777.19,764.11,750.88,758.78,762.74,126.95,-936.52,381.84,-1.66,0.79,0.31,-124.85
50509,777.21,764.04,750.90,758.78,762.73,131.35,-932.13,382.81,0.51,1.60,-0.01,-124.72
50553,777.13,763.99,750.92,758.62,762.67,131.84,-935.06,369.63,-0.15,0.69,1.49,-122.79
50591,777.18,763.93,750.89,758.76,762.69,129.39,-937.99,372.07,-0.12,1.72,-0.56,-124.25
50629,777.05,763.89,750.83,758.72,762.62,133.30,-939.45,375.98,0.97,0.99,2.81,-123.56
50668,777.17,763.96,750.87,758.69,762.67,133.79,-944.82,389.65,-2.30,2.08,-1.38,-123.53
50707,777.22,763.97,750.82,758.68,762.67,134.77,-937.01,376.46,-1.84,1.85,0.27,-123.69
50745,777.13,763.91,750.88,758.65,762.64,128.91,-943.85,368.65,-0.46,1.46,3.13,-122.82
50786,777.19,763.98,750.84,758.64,762.66,134.28,-919.92,374.51,0.50,3.96,0.27,-123.11
50825,777.15,763.95,750.90,758.61,762.65,117.19,-937.99,373.54,2.22,1.11,2.50,-122.53
50863,777.13,763.92,750.90,758.58,762.63,142.58,-933.59,385.74,0.23,1.08,0.15,-122.09
50901,777.09,763.88,750.82,758.66,762.61,124.02,-940.92,381.35,-1.26,1.66,-1.50,-123.01
50940,777.14,763.96,750.77,758.70,762.64,140.14,-938.96,362.30,0.82,0.89,0.92,-123.82
50978,777.09,763.96,750.79,758.71,762.64,124.02,-937.01,374.02,-1.08,2.40,1.05,-123.74
51019,777.11,763.92,750.80,758.60,762.61,133.30,-931.15,377.44,0.80,2.31,0.25,-122.60
51058,777.22,763.91,750.80,758.68,762.65,137.21,-946.78,379.88,-2.53,2.47,-0.67,-123.73
51096,777.11,763.94,750.85,758.65,762.64,126.95,-939.94,372.07,0.44,0.93,2.49,-122.97
51134,777.10,764.03,750.87,758.70,762.67,125.49,-936.52,379.39,0.37,1.70,0.01,-123.53
51172,777.05,763.94,750.87,758.66,762.63,135.25,-938.48,381.35,1.18,1.85,1.05,-122.71
51214,777.00,764.01,750.89,758.78,762.67,115.72,-933.11,367.19,1.47,0.99,-1.56,-124.13
51256,776.98,763.93,750.87,758.72,762.63,121.58,-949.71,379.88,1.18,2.10,1.44,-123.36
51294,776.90,763.94,750.92,758.72,762.62,135.25,-943.36,375.49,0.12,-1.18,-3.43,-122.86
51332,776.93,764.05,750.89,758.72,762.65,131.84,-948.24,384.28,0.96,1.48,0.21,-123.34
51371,776.98,764.09,750.92,758.81,762.70,134.28,-945.80,375.98,0.34,1.60,-1.78,-124.63
51409,777.03,764.11,750.94,758.75,762.71,134.28,-937.50,372.56,0.24,2.21,-0.58,-124.29
51450,777.04,764.02,750.93,758.76,762.69,131.35,-928.22,377.44,2.53,1.62,-1.74,-124.01
51488,776.97,764.12,750.92,758.76,762.69,136.72,-924.32,371.09,-0.37,-0.31,-1.18,-124.20
51527,776.89,764.12,750.89,758.80,762.67,126.46,-945.80,377.93,-0.12,-2.12,1.46,-124.16
51565,776.79,764.08,750.87,758.81,762.64,123.54,-942.87,381.35,0.54,2.46,3.23,-123.94
51604,776.74,764.10,750.97,758.92,762.68,121.09,-938.48,374.51,0.95,2.37,1.07,-125.04
51642,776.65,764.12,751.02,758.89,762.67,136.23,-929.69,373.05,0.40,0.85,2.10,-124.69
51683,776.55,764.19,750.99,758.92,762.66,132.81,-942.38,369.14,-0.21,2.73,4.23,-124.77
51722,776.46,764.19,750.99,758.95,762.65,134.28,-930.66,379.88,0.86,0.76,-0.97,-124.81
51760,776.34,764.22,750.92,758.98,762.61,129.88,-931.15,379.39,-0.20,-0.15,-0.83,-124.70
51799,776.33,764.19,750.95,758.91,762.59,129.39,-937.01,368.16,1.35,0.85,0.86,-123.82
51837,776.35,764.19,750.98,758.91,762.61,130.86,-945.80,372.56,1.27,1.65,-1.67,-123.97
51876,776.30,764.23,751.01,758.91,762.61,127.44,-939.94,372.07,-0.98,0.71,-0.05,-124.08
51917,776.29,764.16,750.97,759.01,762.61,129.88,-937.50,375.00,1.79,1.28,-1.05,-124.70
51955,776.29,764.20,751.00,758.90,762.60,122.56,-933.11,390.14,1.69,0.08,-1.41,-123.84
51994,776.27,764.14,750.95,758.89,762.56,127.93,-946.78,373.54,-0.21,2.15,1.82,-123.31
52032,776.31,764.21,750.99,758.98,762.62,131.84,-937.50,387.70,-0.38,2.92,2.27,-124.67
52071,776.33,764.15,750.92,758.93,762.58,135.25,-950.68,381.84,1.43,1.18,-0.34,-124.03
52109,776.20,764.27,750.95,758.98,762.60,132.81,-942.38,365.72,0.19,0.10,0.52,-124.44
52150,776.23,764.24,750.88,758.94,762.57,132.32,-937.50,375.49,-1.24,1.94,1.60,-124.02
52192,776.29,764.22,750.92,758.82,762.57,134.28,-940.43,378.91,-0.79,1.45,1.28,-122.97
52231,776.22,764.19,750.97,758.85,762.56,143.07,-939.45,375.00,-1.37,1.32,-1.75,-122.94
52269,776.12,764.18,750.91,758.82,762.51,131.84,-928.71,376.46,2.14,1.45,0.22,-122.25
52308,776.15,764.12,750.98,758.85,762.52,119.63,-931.64,394.04,-0.28,0.92,-0.40,-122.42
52346,776.18,764.10,750.96,758.92,762.54,127.93,-919.92,374.02,0.75,-0.62,-0.56,-123.30
52387,776.12,764.18,750.92,758.90,762.53,129.88,-928.22,382.32,0.13,-0.22,0.31,-123.11
52426,776.10,764.24,750.94,758.93,762.55,128.42,-940.43,369.63,0.52,0.49,0.19,-123.44
52464,776.13,764.27,750.88,759.01,762.57,128.91,-949.22,371.58,-0.58,2.04,1.47,-124.51
52504,776.09,764.19,750.94,758.99,762.55,127.93,-936.52,380.86,-0.08,1.57,0.40,-124.01
52542,776.07,764.29,750.94,758.92,762.55,135.74,-942.38,375.00,-0.45,2.93,0.79,-123.44
52583,775.89,764.33,751.04,758.97,762.55,138.18,-939.45,377.93,-1.34,2.66,2.24,-123.75
52622,775.73,764.44,750.99,758.91,762.52,124.51,-942.87,378.91,1.50,1.09,0.96,-122.97
52660,775.67,764.46,751.02,758.98,762.53,126.46,-939.94,377.44,1.31,1.19,1.40,-123.63
52700,775.58,764.47,750.99,759.01,762.51,133.79,-940.92,378.42,-0.11,2.13,1.92,-123.52
52738,775.54,764.50,750.99,758.98,762.50,118.65,-940.92,379.88,-2.40,3.22,1.60,-123.27
52777,775.54,764.57,751.07,759.03,762.55,125.00,-924.32,374.02,2.86,-0.47,0.19,-124.32
52818,775.47,764.55,751.01,759.06,762.52,135.25,-937.99,374.51,1.83,0.69,1.38,-124.08
52856,775.45,764.67,751.05,759.17,762.59,124.51,-938.48,378.42,-0.63,3.69,-1.01,-125.67
52894,775.40,764.70,750.98,759.09,762.54,133.30,-937.99,380.37,-0.54,1.17,0.80,-124.76
52932,775.33,764.70,751.03,759.08,762.53,122.56,-941.89,381.84,0.42,3.02,-0.88,-124.47
52971,775.39,764.64,751.01,759.09,762.53,113.77,-936.52,364.75,-0.03,1.85,2.34,-124.47
53009,775.38,764.68,751.07,759.15,762.57,141.11,-933.11,381.84,0.59,0.17,1.40,-125.29
53050,775.40,764.70,751.12,759.12,762.58,136.23,-932.62,386.72,1.02,0.19,1.42,-125.36
53089,775.43,764.70,751.03,759.17,762.58,126.95,-935.06,372.56,-1.72,0.05,1.53,-125.69
53132,775.42,764.70,750.96,759.15,762.56,130.37,-936.52,373.54,-1.26,1.08,0.51,-125.23
53170,775.46,764.69,751.05,759.17,762.59,121.09,-937.99,376.46,1.14,1.33,1.44,-125.72
53208,775.41,764.65,751.05,759.15,762.56,143.07,-953.12,375.49,0.05,1.01,-0.82,-125.20
53246,775.45,764.69,751.05,759.17,762.59,130.37,-931.64,379.39,0.50,3.42,-0.41,-125.74
53287,775.41,764.81,751.07,759.17,762.61,117.68,-937.01,372.56,-0.25,1.34,1.24,-126.25
53325,775.33,764.73,751.09,759.20,762.59,126.46,-929.20,375.49,-0.60,1.65,1.48,-125.88
53364,775.25,764.83,751.15,759.23,762.61,129.88,-929.20,384.28,-1.05,1.22,-1.79,-126.55
53402,775.21,764.90,751.10,759.23,762.61,132.81,-932.62,382.81,0.98,3.05,-0.73,-126.66
53440,775.05,764.89,751.09,759.28,762.58,140.14,-921.39,374.02,0.70,2.50,0.07,-126.42
53479,774.99,764.93,751.08,759.25,762.56,129.88,-922.85,369.63,1.55,-0.17,1.51,-126.16
53522,774.96,764.92,751.12,759.40,762.60,127.93,-934.57,374.51,-0.66,2.68,1.07,-127.28
53560,774.84,764.94,751.13,759.34,762.56,123.05,-929.20,384.77,1.79,1.73,1.64,-126.53
53599,774.86,764.94,751.08,759.36,762.56,137.70,-932.13,361.33,-1.95,0.95,0.86,-126.65
53637,774.74,764.98,751.18,759.39,762.57,133.79,-944.34,359.37,2.06,1.24,0.40,-127.01
53675,774.69,765.04,751.18,759.39,762.58,139.65,-925.78,368.65,1.25,0.06,4.02,-127.17
