currTime,s1,s2,s3,s4,s,AccX,AccY,AccZ,GyroX,GyroY,GyroZ,GRF
28,769.05,766.39,759.17,758.75,763.34,70.80,-852.54,569.34,1.65,3.50,2.37,-120.07
64,769.00,766.38,759.10,758.76,763.31,77.64,-837.89,563.48,1.31,2.29,0.44,-121.59
100,769.00,766.39,759.10,758.74,763.31,72.27,-844.73,552.73,0.41,-1.85,1.34,-121.51
136,769.01,766.32,759.11,758.78,763.31,83.50,-840.82,555.18,-2.08,1.98,0.05,-121.27
173,769.01,766.30,759.09,758.74,763.29,71.78,-841.31,561.52,2.09,0.59,-0.85,-120.98
209,768.92,766.16,759.17,758.80,763.27,83.01,-843.75,572.75,-0.69,4.10,0.62,-118.62
250,768.92,766.23,759.09,758.73,763.24,76.66,-840.82,562.50,0.48,2.58,3.26,-119.95
287,768.79,766.22,759.13,758.73,763.22,79.10,-844.73,550.78,1.30,1.08,-1.14,-118.58
324,768.77,766.27,759.16,758.75,763.24,90.82,-855.96,545.90,1.53,1.24,-0.13,-118.26
361,768.58,766.32,759.15,758.71,763.19,59.08,-843.26,551.76,2.10,2.24,-0.18,-117.72
398,768.49,766.40,759.11,758.86,763.21,72.27,-826.17,562.01,1.49,0.41,0.55,-121.33
435,768.43,766.45,759.14,758.84,763.21,82.03,-854.49,559.08,0.41,4.35,0.34,-120.43
475,768.41,766.37,759.17,758.88,763.21,75.68,-839.84,561.52,-0.57,2.04,-0.54,-119.63
512,768.27,766.50,759.11,758.91,763.20,84.96,-842.77,564.45,1.98,2.27,3.22,-122.25
549,768.28,766.45,759.21,758.93,763.22,90.82,-838.38,562.01,-1.47,2.76,-0.49,-119.59
587,768.35,766.51,759.18,759.02,763.27,82.03,-843.75,568.36,-1.94,3.15,1.46,-122.38
624,768.34,766.51,759.21,758.87,763.23,78.61,-842.77,564.94,0.12,1.45,-0.35,-119.39
661,768.44,766.46,759.12,758.94,763.24,81.05,-843.26,553.71,1.75,2.01,1.35,-122.50
701,768.28,766.41,759.17,758.89,763.19,80.57,-836.43,563.96,0.30,-0.62,-0.71,-119.61
739,768.40,766.43,759.19,758.93,763.24,78.61,-853.03,561.04,-0.86,1.10,1.75,-120.28
776,768.49,766.44,759.17,758.88,763.24,77.64,-847.17,562.01,1.01,-0.08,-0.93,-120.22
813,768.62,766.36,759.23,758.89,763.28,76.66,-848.63,553.71,-0.15,2.87,-1.26,-118.98
850,768.63,766.40,759.16,758.84,763.26,76.17,-837.89,557.13,0.90,0.11,-0.69,-120.24
888,768.75,766.39,759.09,758.81,763.26,84.47,-844.73,562.99,0.98,1.37,-1.61,-121.86
927,768.73,766.35,759.14,758.81,763.25,85.45,-840.33,560.06,0.21,1.24,3.70,-120.29
965,768.68,766.40,759.14,758.81,763.26,66.41,-854.98,554.69,-0.01,2.89,1.93,-120.57
1002,768.75,766.34,759.12,758.87,763.27,71.78,-840.33,553.71,0.64,0.28,3.16,-121.57
1039,768.71,766.34,759.17,758.91,763.28,76.66,-846.19,562.01,1.53,0.47,0.00,-120.75
1077,768.66,766.40,759.15,758.89,763.27,84.47,-862.30,560.06,-0.41,1.07,1.50,-121.43
1114,768.63,766.46,759.22,758.90,763.30,77.64,-841.80,562.99,0.76,0.47,-0.25,-120.17
1154,768.64,766.44,759.16,758.92,763.29,72.75,-851.56,552.73,0.27,-0.76,-1.18,-121.68
1192,768.60,766.54,759.18,758.92,763.31,72.75,-843.26,572.27,0.83,0.82,2.18,-121.86
1229,768.60,766.45,759.13,758.91,763.27,73.24,-824.22,569.82,1.72,1.66,0.75,-122.45
1266,768.54,766.52,759.21,758.98,763.31,64.94,-840.82,566.41,-0.03,0.01,2.58,-121.72
1304,768.59,766.48,759.17,758.98,763.30,77.64,-857.91,564.94,-0.59,3.52,-1.18,-122.39
1341,768.54,766.54,759.12,759.03,763.31,68.85,-843.26,558.59,3.17,2.43,0.51,-124.72
1381,768.61,766.49,759.14,758.97,763.30,72.75,-845.70,570.80,0.67,1.46,0.88,-123.35
1418,768.62,766.55,759.15,758.89,763.30,56.15,-849.12,556.64,0.06,2.50,-0.34,-122.40
1456,768.64,766.55,759.18,758.93,763.33,77.15,-847.66,571.29,0.99,-0.60,1.75,-122.16
1493,768.62,766.53,759.10,758.91,763.29,68.36,-854.00,557.13,-0.40,0.34,1.82,-123.78
1530,768.62,766.47,759.18,758.92,763.30,56.64,-844.73,529.30,1.64,1.63,-3.31,-121.52
1567,768.63,766.49,759.16,758.90,763.29,72.75,-829.59,563.96,0.76,2.16,-1.92,-121.95
1607,768.66,766.51,759.15,758.89,763.30,83.50,-865.23,562.50,-1.08,3.64,0.41,-122.16
1645,768.69,766.47,759.13,758.95,763.31,73.24,-852.05,556.15,3.24,2.77,2.13,-123.31
1682,768.69,766.49,759.19,758.87,763.31,65.43,-839.84,556.64,-2.31,0.14,1.89,-120.87
1719,768.77,766.42,759.16,758.82,763.29,77.15,-855.96,552.73,-1.68,0.05,0.85,-120.53
1757,768.80,766.44,759.16,758.83,763.31,80.08,-850.10,560.55,1.11,1.68,0.40,-121.07
1794,768.80,766.49,759.13,758.86,763.32,80.08,-841.31,558.11,0.56,1.98,-0.56,-122.61
1834,768.76,766.47,759.20,758.88,763.33,77.64,-851.07,554.20,-0.11,0.40,0.20,-120.93
1872,768.77,766.44,759.18,758.97,763.34,80.08,-847.17,556.15,0.17,3.30,-1.50,-122.55
1909,768.82,766.44,759.16,758.98,763.35,78.61,-843.26,566.89,-0.21,1.44,0.40,-123.33
1946,768.71,766.47,759.20,758.95,763.33,70.80,-847.66,558.59,-0.22,2.40,1.43,-121.85
1983,768.71,766.50,759.19,758.95,763.34,73.73,-844.73,562.50,-0.33,1.47,0.74,-122.24
2020,768.74,766.41,759.20,759.00,763.34,62.50,-839.84,561.04,1.41,2.88,1.20,-122.14
2060,768.65,766.50,759.21,758.97,763.33,86.43,-856.45,553.71,1.84,0.93,0.63,-121.79
2098,768.62,766.48,759.22,758.98,763.32,71.78,-840.82,562.99,0.74,3.18,0.66,-121.40
2135,768.59,766.50,759.16,759.01,763.31,77.64,-847.66,551.76,-2.37,1.60,-1.42,-123.28
2172,768.54,766.60,759.18,758.96,763.32,71.29,-844.24,562.01,-0.79,2.24,1.67,-122.79
2209,768.59,766.55,759.14,758.96,763.31,77.64,-846.19,557.62,0.89,2.06,-0.18,-123.77
2247,768.49,766.54,759.20,758.98,763.30,65.92,-855.47,562.99,-0.20,2.98,0.05,-121.94
2287,768.42,766.57,759.28,758.97,763.31,90.82,-851.56,565.92,0.27,2.33,2.76,-119.81
2324,768.41,766.51,759.17,758.93,763.26,72.27,-834.47,546.87,1.36,0.92,1.24,-121.51
2361,768.42,766.52,759.24,759.01,763.30,74.22,-844.24,562.50,-0.11,0.55,-0.88,-121.02
2399,768.43,766.47,759.27,758.96,763.28,81.54,-847.66,561.04,0.01,2.04,2.16,-119.04
2436,768.37,766.53,759.16,758.90,763.24,76.17,-839.84,562.50,0.20,3.99,2.15,-121.27
2474,768.38,766.53,759.21,758.91,763.26,89.36,-845.70,566.89,-0.73,1.57,1.40,-120.28
2514,768.35,766.56,759.15,758.99,763.26,67.87,-854.98,558.11,0.35,1.09,1.04,-123.16
2551,768.22,766.46,759.21,759.00,763.22,77.15,-835.45,553.71,2.05,1.82,-1.79,-120.42
2589,768.26,766.50,759.20,758.94,763.22,83.50,-835.45,557.62,-0.66,0.72,1.63,-120.20
2626,768.23,766.55,759.25,758.94,763.24,96.68,-842.29,557.62,1.83,1.36,0.82,-119.24
2664,768.23,766.53,759.23,759.00,763.25,79.10,-846.19,551.27,1.63,2.06,2.10,-120.40
2701,768.22,766.59,759.26,759.01,763.27,89.36,-839.36,548.34,-0.84,1.46,1.70,-120.43
2741,768.16,766.50,759.19,759.04,763.22,91.31,-838.87,569.34,-0.19,0.59,2.26,-121.64
2778,768.08,766.54,759.22,758.97,763.20,88.38,-838.87,553.71,-0.17,0.65,-0.03,-119.76
2816,768.00,766.52,759.21,758.93,763.16,79.10,-851.07,565.92,0.08,1.86,3.36,-119.25
2853,768.00,766.58,759.21,758.99,763.20,77.15,-836.43,558.11,-0.38,2.71,2.35,-120.47
2891,767.90,766.65,759.19,759.10,763.21,81.54,-854.49,555.66,-0.97,0.27,0.00,-122.85
2928,767.79,766.68,759.20,759.13,763.20,83.98,-848.63,560.55,1.51,-0.50,1.57,-122.77
2968,767.66,766.72,759.23,759.16,763.20,92.29,-849.61,561.04,1.34,2.63,-2.11,-122.42
3006,767.57,766.76,759.23,759.14,763.17,79.10,-838.87,551.27,1.82,3.31,1.02,-122.05
3043,767.39,766.77,759.24,759.16,763.14,77.15,-856.45,564.94,1.27,0.50,2.21,-121.81
3080,767.39,766.77,759.19,759.21,763.14,81.54,-848.63,551.76,1.07,1.45,-0.77,-123.58
3118,767.32,766.85,759.21,759.19,763.14,70.31,-833.01,559.08,0.00,1.34,-1.67,-123.29
3155,767.28,766.88,759.28,759.19,763.16,68.36,-842.29,568.36,-0.76,2.30,-0.03,-121.59
3196,767.27,766.92,759.29,759.23,763.18,69.82,-851.56,569.34,1.20,0.27,1.13,-122.33
3234,767.20,766.89,759.26,759.23,763.14,63.48,-845.70,562.99,0.52,2.11,1.52,-122.57
3271,767.15,766.90,759.29,759.19,763.13,84.47,-848.14,565.43,1.97,1.16,-1.53,-121.07
3308,766.97,766.91,759.24,759.24,763.09,69.34,-846.68,561.52,-1.40,0.85,0.77,-122.66
3346,766.93,766.94,759.35,759.25,763.12,72.27,-839.84,570.31,2.69,3.02,2.08,-120.20
3383,766.81,767.01,759.29,759.31,763.11,78.61,-851.56,548.83,-1.93,2.44,-0.46,-122.43
3424,766.67,767.04,759.32,759.29,763.08,81.05,-839.84,553.22,0.20,-1.50,-1.06,-121.44
3461,766.56,767.04,759.37,759.29,763.07,70.31,-854.49,548.34,0.27,0.22,-0.37,-119.58
3498,766.40,767.13,759.38,759.34,763.06,71.78,-841.31,564.94,-1.19,0.85,2.46,-120.43
3536,766.39,767.15,759.32,759.35,763.05,65.92,-837.40,557.62,-1.15,2.94,0.43,-122.09
3573,766.22,767.18,759.37,759.46,763.06,85.45,-845.21,546.87,-0.37,1.61,-1.89,-122.24
3611,766.10,767.24,759.36,759.39,763.03,72.27,-845.21,559.57,0.56,0.63,-2.16,-121.45
3651,765.98,767.31,759.37,759.40,763.02,83.50,-846.19,550.78,2.08,1.40,1.84,-121.42
3688,765.91,767.36,759.40,759.43,763.03,69.34,-846.19,565.43,1.31,3.43,0.44,-121.32
3725,765.78,767.32,759.44,759.49,763.01,64.45,-854.00,558.59,-0.17,0.89,1.86,-120.51
3763,765.72,767.35,759.41,759.58,763.02,67.38,-835.45,563.48,0.79,1.66,2.62,-122.62
3800,765.65,767.36,759.42,759.54,762.99,69.82,-842.29,556.64,-0.63,0.28,0.92,-121.37
3837,765.54,767.40,759.42,759.52,762.97,66.89,-839.36,552.73,1.08,-0.07,2.24,-121.25
3877,765.57,767.38,759.43,759.58,762.99,74.22,-851.56,581.54,0.98,4.36,-0.64,-121.91
3915,765.51,767.47,759.44,759.55,762.99,78.12,-854.00,559.08,1.39,0.08,1.55,-121.53
3952,765.44,767.46,759.47,759.59,762.99,76.66,-848.14,553.22,2.07,-0.88,0.64,-121.13
3989,765.37,767.47,759.48,759.66,763.00,82.03,-854.00,560.06,-0.18,5.34,-1.86,-121.71
4026,765.34,767.50,759.39,759.54,762.94,69.34,-846.19,564.45,1.50,0.20,2.37,-122.27
4063,765.19,767.44,759.46,759.58,762.92,71.78,-828.61,567.87,0.69,2.30,-1.43,-120.24
4103,765.21,767.44,759.48,759.67,762.95,65.92,-850.10,556.64,0.85,0.40,0.05,-121.14
4140,765.11,767.46,759.48,759.63,762.92,72.75,-841.31,554.20,0.06,1.87,1.64,-120.36
4178,765.00,767.46,759.46,759.63,762.89,73.73,-841.31,562.01,0.01,3.08,-0.54,-120.58
4215,764.99,767.47,759.48,759.67,762.90,62.99,-843.75,565.43,-0.21,0.99,1.43,-120.54
4253,764.89,767.47,759.51,759.70,762.89,66.41,-842.77,562.99,0.34,1.98,0.18,-120.01
4290,764.77,767.51,759.49,759.78,762.89,71.78,-831.54,551.76,-1.04,1.79,2.34,-121.46
4330,764.68,767.55,759.44,759.80,762.86,81.54,-839.36,565.92,-0.38,2.95,3.33,-123.11
4368,764.59,767.62,759.47,759.89,762.89,71.78,-848.14,567.87,-0.30,-0.92,2.12,-123.80
4405,764.44,767.69,759.58,759.78,762.87,65.92,-844.73,556.64,-0.88,3.80,-1.12,-119.67
4442,764.35,767.74,759.54,759.89,762.88,71.29,-849.12,564.45,0.56,1.82,-0.63,-122.31
4480,764.27,767.77,759.57,759.83,762.86,80.08,-854.98,572.27,0.91,2.13,1.00,-120.65
4520,764.20,767.85,759.57,759.89,762.88,59.57,-845.70,564.94,0.60,3.33,1.13,-121.88
4558,764.16,767.78,759.56,759.87,762.84,72.75,-832.52,564.94,-1.07,1.11,1.16,-121.24
4595,764.16,767.78,759.55,759.93,762.86,74.22,-853.03,544.92,0.81,-0.51,0.77,-122.32
4632,764.21,767.78,759.57,759.87,762.86,62.50,-834.96,560.06,0.38,0.49,-0.44,-121.02
4670,764.22,767.73,759.57,759.84,762.84,62.99,-843.26,560.55,1.63,-1.51,-0.30,-120.14
4707,764.39,767.73,759.51,759.75,762.85,77.64,-849.12,551.27,0.40,0.70,-0.35,-121.03
4747,764.39,767.66,759.55,759.75,762.84,79.10,-847.66,559.57,0.51,2.00,-1.20,-119.59
4785,764.50,767.60,759.55,759.74,762.85,80.57,-848.63,559.57,1.02,0.79,1.05,-119.40
4822,764.57,767.61,759.48,759.72,762.84,68.36,-837.89,564.94,0.75,1.29,-0.47,-120.95
4860,764.56,767.61,759.53,759.68,762.85,84.96,-842.77,556.64,0.67,1.60,1.20,-119.18
4897,764.59,767.53,759.53,759.64,762.82,64.45,-850.10,555.66,0.93,0.70,0.71,-117.93
4934,764.65,767.56,759.47,759.72,762.85,47.36,-828.12,514.16,3.38,6.40,-0.50,-121.21
4974,764.72,767.53,759.48,759.63,762.84,73.24,-835.94,569.34,-3.22,-3.83,0.13,-119.55
5012,764.84,767.51,759.48,759.64,762.87,72.75,-844.24,553.22,0.72,2.34,-1.28,-120.05
5049,764.96,767.54,759.45,759.57,762.88,61.52,-841.31,570.31,-0.60,0.98,-1.74,-120.33
5087,765.18,767.43,759.48,759.53,762.90,57.13,-853.52,566.89,-0.07,-1.38,1.30,-118.79
5124,765.42,767.30,759.36,759.50,762.90,66.89,-844.24,562.99,0.90,-0.28,-0.60,-121.31
5161,765.62,767.28,759.43,759.41,762.93,68.36,-854.98,572.27,0.63,0.79,2.08,-118.66
5202,765.79,767.19,759.40,759.40,762.95,76.66,-859.37,564.94,0.81,0.36,1.80,-119.02
5240,766.01,767.09,759.35,759.27,762.93,79.59,-844.73,560.55,-0.53,0.68,0.70,-118.42
5277,766.17,767.00,759.35,759.25,762.94,77.64,-852.54,556.15,-1.59,0.53,0.65,-117.98
5314,766.30,766.95,759.31,759.23,762.95,75.20,-860.35,565.43,0.18,1.08,1.44,-118.60
5352,766.40,766.88,759.38,759.15,762.95,76.17,-836.91,557.62,0.02,1.04,-0.45,-115.59
5389,766.52,766.91,759.34,759.13,762.98,83.98,-838.87,556.64,-0.81,0.79,0.76,-116.84
5429,766.62,766.90,759.28,759.14,762.99,75.20,-846.68,572.75,0.78,3.02,-0.40,-118.80
5467,766.75,766.83,759.36,759.14,763.02,66.41,-858.40,548.34,0.29,3.07,-2.18,-116.62
5504,766.85,766.84,759.30,759.15,763.04,54.20,-846.68,554.20,-1.27,3.58,0.64,-118.68
5541,766.95,766.79,759.24,759.06,763.01,72.27,-847.66,553.71,-0.23,0.73,-1.42,-118.82
5578,767.06,766.72,759.23,759.00,763.00,66.89,-848.63,560.55,-0.53,0.49,-0.50,-118.06
5615,767.24,766.73,759.38,758.96,763.08,83.98,-845.70,555.66,-2.02,0.72,1.11,-114.45
5656,767.35,766.58,759.23,758.94,763.03,75.20,-834.96,537.60,2.02,0.53,1.51,-116.97
5693,767.47,766.58,759.28,758.97,763.08,84.96,-835.45,557.13,2.74,-0.44,2.14,-116.63
5730,767.61,766.62,759.23,758.97,763.11,82.03,-841.80,575.20,1.70,3.45,-0.69,-118.78
5767,767.68,766.54,759.25,758.96,763.11,64.45,-850.10,583.98,-0.16,1.79,0.49,-117.64
5804,767.74,766.51,759.22,758.86,763.08,68.85,-844.73,560.55,-3.37,-0.69,1.95,-116.73
5842,767.75,766.48,759.14,758.87,763.06,89.36,-858.89,545.41,-1.02,2.01,-0.92,-118.79
5882,767.75,766.40,759.20,758.85,763.05,85.94,-873.54,589.36,-0.46,2.16,2.46,-116.34
5919,767.81,766.41,759.21,758.87,763.07,93.75,-854.49,565.92,2.85,3.91,2.44,-116.78
5956,767.83,766.39,759.12,758.88,763.05,80.08,-845.70,558.59,-1.16,1.32,-2.81,-118.85
5994,767.96,766.33,759.22,758.80,763.07,79.59,-886.23,557.13,3.26,-0.01,1.01,-115.32
6031,767.84,766.35,759.17,758.82,763.05,72.75,-812.99,574.71,1.89,0.63,-0.43,-116.44
6069,767.92,766.40,759.22,758.83,763.09,80.08,-849.61,547.85,-4.11,-3.14,1.39,-116.24
6109,767.89,766.46,759.17,758.85,763.09,92.77,-836.43,563.96,4.31,1.60,0.33,-118.17
6146,767.80,766.39,759.19,758.85,763.06,94.73,-831.54,571.29,0.68,3.67,0.68,-116.84
6184,767.79,766.47,759.20,758.84,763.08,86.91,-858.40,559.57,1.48,1.82,-0.02,-116.88
6222,767.77,766.48,759.19,758.82,763.06,75.68,-826.17,584.96,2.62,3.38,-2.09,-116.89
6259,767.65,766.46,759.21,758.79,763.03,70.31,-838.38,556.15,-1.88,-1.22,1.80,-115.32
6297,767.64,766.44,759.18,758.77,763.01,78.61,-856.45,571.78,1.37,1.86,1.89,-115.67
6337,767.54,766.50,759.18,758.80,763.01,95.70,-866.70,576.66,-0.17,-1.18,2.39,-116.20
6374,767.51,766.47,759.28,758.82,763.02,64.94,-850.10,567.38,3.34,2.31,1.62,-113.60
6412,767.40,766.51,759.29,758.90,763.03,68.85,-831.05,552.25,1.35,2.05,-0.89,-114.41
6449,767.29,766.46,759.17,758.83,762.94,73.24,-862.30,550.29,-2.36,-3.08,0.12,-115.84
6487,767.28,766.45,759.30,758.82,762.96,90.33,-843.75,559.57,-6.65,-2.15,2.75,-112.17
6524,767.22,766.50,759.27,758.85,762.96,69.82,-864.26,549.80,1.18,1.53,1.98,-113.71
6564,767.12,766.52,759.23,758.90,762.94,75.20,-845.70,553.71,-1.89,1.17,0.42,-115.24
6602,767.12,766.52,759.30,758.94,762.97,63.48,-842.77,578.61,2.69,2.57,2.05,-113.98
6639,767.09,766.59,759.25,758.96,762.97,73.73,-835.45,567.87,-5.76,-2.36,3.53,-116.17
6676,767.01,766.53,759.24,758.95,762.93,73.73,-846.68,578.12,3.76,1.25,3.59,-115.16
6714,766.98,766.59,759.20,758.98,762.94,89.84,-820.31,589.36,-6.47,-0.49,-1.49,-117.26
6751,766.93,766.55,759.23,759.08,762.95,89.36,-892.58,548.34,3.42,1.47,-0.07,-117.47
6791,766.70,766.62,759.32,759.00,762.91,109.37,-582.52,600.10,3.05,-7.66,-1.69,-113.69
6829,766.52,766.59,759.29,759.02,762.86,150.39,-846.19,534.18,-75.48,-24.02,-1.17,-113.89
6866,766.69,766.46,759.21,758.97,762.83,146.00,-1084.96,460.45,1.84,-1.05,2.31,-114.63
6904,766.63,766.59,759.19,758.93,762.83,54.69,-799.80,571.29,31.09,13.90,0.62,-115.46
6941,766.68,766.56,759.24,758.99,762.87,57.62,-786.13,582.52,-12.74,-4.81,-1.72,-115.00
6978,766.64,766.66,759.21,759.06,762.89,76.66,-891.60,543.46,-0.96,-0.60,1.03,-117.39
7019,766.64,766.60,759.24,759.07,762.89,67.38,-859.37,546.87,-3.80,-0.15,0.62,-116.59
7056,766.61,766.62,759.23,759.06,762.88,71.78,-863.77,546.39,0.31,1.02,0.76,-116.43
7094,766.59,766.64,759.24,759.05,762.88,66.89,-859.37,557.62,3.08,1.40,-0.78,-116.36
7131,766.56,766.63,759.39,759.10,762.92,73.24,-841.31,559.57,-1.42,-0.02,2.47,-113.04
7168,766.56,766.75,759.36,759.10,762.94,69.82,-848.63,563.96,1.07,0.05,0.62,-114.83
7207,766.50,766.70,759.31,759.12,762.91,73.24,-835.45,570.80,-1.15,0.27,2.69,-115.66
7247,766.43,766.67,759.26,759.13,762.87,74.22,-848.14,562.01,0.49,-0.44,1.87,-116.59
7284,766.41,766.63,759.29,759.09,762.86,81.54,-851.56,566.89,-0.05,0.29,1.36,-115.02
7321,766.40,766.74,759.30,759.06,762.87,70.80,-854.49,555.66,1.50,-0.68,-0.81,-115.14
7358,766.28,766.72,759.27,759.20,762.87,79.59,-838.38,560.55,2.02,2.40,-1.34,-117.19
7396,766.24,766.69,759.34,759.12,762.85,64.94,-863.28,550.29,0.47,1.22,-1.02,-114.08
7433,766.19,766.65,759.33,759.07,762.81,80.08,-848.14,563.96,-1.00,1.92,1.53,-113.01
7473,766.26,766.70,759.31,759.11,762.85,66.89,-847.17,576.66,0.30,-0.91,-0.27,-114.74
7511,766.23,766.62,759.35,759.07,762.82,79.59,-850.59,572.27,1.08,1.30,1.21,-112.40
7548,766.27,766.59,759.31,759.06,762.81,66.41,-849.12,559.08,-1.49,1.87,0.63,-113.23
7585,766.27,766.59,759.26,759.06,762.79,60.55,-836.43,563.96,0.82,1.21,0.12,-114.27
7622,766.27,766.58,759.31,759.09,762.81,89.36,-837.89,565.43,1.22,4.60,1.54,-113.61
7659,766.34,766.51,759.28,759.04,762.79,80.08,-839.84,554.69,-0.37,0.08,0.66,-113.25
7699,766.32,766.61,759.25,759.02,762.80,77.15,-839.84,567.38,1.56,0.00,-0.25,-114.38
7737,766.28,766.53,759.26,759.03,762.77,85.94,-862.30,562.50,0.47,1.44,0.09,-113.43
7774,766.38,766.54,759.28,759.08,762.82,84.96,-837.40,556.64,1.50,3.09,-1.97,-114.27
7811,766.38,766.61,759.32,759.00,762.83,73.24,-846.68,574.22,1.44,1.36,-2.66,-112.65
7849,766.34,766.54,759.24,758.95,762.77,83.98,-847.17,553.71,0.28,1.18,-0.94,-113.23
7916,766.35,766.53,759.25,759.00,762.78,72.27,-839.36,562.99,-3.15,1.79,0.07,-113.53
7956,766.46,766.50,759.25,759.00,762.80,70.80,-859.37,574.22,0.56,1.15,-1.18,-113.78
7993,766.49,766.56,759.24,759.03,762.83,77.64,-838.87,560.06,1.66,-1.88,0.32,-114.95
8030,766.52,766.55,759.20,759.08,762.84,68.36,-842.29,545.41,-0.10,0.83,-2.40,-116.81
8067,766.52,766.59,759.27,759.03,762.85,66.41,-853.03,557.62,0.60,2.03,0.50,-114.71
8104,766.45,766.54,759.28,759.09,762.84,65.92,-841.80,556.15,-0.56,0.99,-2.37,-114.57
8141,766.45,766.59,759.22,759.10,762.84,67.38,-841.31,554.20,0.05,2.59,1.17,-116.45
8181,766.41,766.66,759.22,759.14,762.86,67.38,-838.38,560.55,0.53,1.04,-0.50,-117.67
8218,766.39,766.65,759.33,759.11,762.87,83.50,-834.47,572.75,2.08,3.19,0.99,-114.15
8255,766.33,766.69,759.28,759.07,762.84,66.41,-836.43,553.22,0.93,-1.89,1.24,-115.24
8292,766.37,766.65,759.28,759.10,762.85,77.64,-851.07,565.43,0.67,1.40,-1.63,-115.48
8329,766.29,766.74,759.37,759.27,762.92,60.55,-847.66,555.66,-0.58,2.55,1.12,-116.07
8367,766.14,766.85,759.35,759.20,762.88,65.92,-856.93,557.62,0.53,2.61,0.40,-115.86
8406,766.07,766.80,759.31,759.31,762.87,78.12,-846.19,565.43,0.36,2.08,1.04,-117.95
8443,766.05,766.89,759.35,759.36,762.91,66.41,-853.52,554.69,-0.04,2.32,1.26,-118.28
8480,765.95,766.98,759.38,759.29,762.90,66.89,-833.50,558.11,-0.08,0.73,-0.78,-116.87
8518,765.95,767.00,759.39,759.35,762.92,64.94,-860.84,559.57,-0.76,-0.21,-0.82,-117.54
8555,765.90,766.98,759.37,759.31,762.89,83.01,-856.93,584.47,1.21,2.24,2.40,-117.28
8594,765.86,766.98,759.33,759.44,762.90,80.08,-839.36,564.45,-0.86,-0.05,1.40,-119.94
8631,765.83,767.10,759.45,759.41,762.95,86.91,-836.91,560.06,0.69,0.74,-0.47,-117.45
8669,765.84,767.06,759.40,759.39,762.92,79.59,-845.21,562.99,1.55,1.74,-0.23,-118.17
8706,765.87,767.04,759.45,759.34,762.93,69.34,-836.43,569.82,0.29,3.00,-0.57,-115.95
8743,765.83,767.08,759.34,759.42,762.92,78.61,-861.33,570.31,0.80,4.16,1.31,-120.05
8780,765.85,767.03,759.35,759.43,762.91,81.05,-833.01,569.34,0.74,1.11,-1.79,-119.63
8820,765.83,767.08,759.37,759.44,762.93,76.17,-839.36,562.99,1.15,-1.58,0.34,-119.56
8857,765.75,767.13,759.37,759.45,762.92,77.15,-845.70,567.38,0.38,1.16,1.65,-120.02
8895,765.63,767.11,759.41,759.43,762.89,72.75,-843.75,567.87,2.18,1.79,0.66,-118.12
8932,765.61,767.15,759.41,759.51,762.92,67.87,-841.31,559.08,0.73,2.65,0.66,-119.55
8969,765.56,767.19,759.40,759.49,762.91,64.94,-844.24,566.89,0.12,0.06,0.52,-119.62
9006,765.55,767.25,759.45,759.43,762.92,71.78,-840.33,560.06,-0.49,-0.34,-0.53,-117.85
9046,765.49,767.15,759.30,759.42,762.84,65.43,-843.26,563.96,2.53,2.16,-0.32,-120.52
9083,765.55,767.16,759.42,759.41,762.89,68.36,-839.36,573.24,0.15,0.13,-0.03,-117.69
9120,765.53,767.17,759.45,759.42,762.89,77.64,-854.49,562.99,0.76,-0.11,0.08,-116.94
9156,765.57,767.20,759.39,759.47,762.91,70.31,-834.96,570.31,0.53,3.29,1.82,-119.65
9193,765.61,767.15,759.46,759.43,762.91,66.41,-844.24,565.92,2.27,-0.57,1.30,-117.20
9230,765.64,767.16,759.43,759.47,762.93,70.80,-841.31,560.06,-0.96,2.18,-1.34,-118.55
9270,765.71,767.13,759.35,759.39,762.89,62.50,-848.14,564.94,0.89,1.87,-1.05,-119.55
9307,765.81,767.06,759.32,759.37,762.89,73.24,-844.73,559.08,0.47,1.01,1.98,-119.81
9344,765.83,766.82,759.31,759.29,762.81,73.73,-840.33,557.62,-1.11,-0.06,-1.15,-116.86
9381,765.93,766.56,759.20,759.13,762.70,62.01,-839.36,561.52,0.93,-0.46,-0.60,-115.53
9418,765.77,766.26,759.33,758.97,762.58,76.66,-847.17,556.15,-1.34,0.27,-0.61,-106.93
9455,765.70,766.00,759.15,758.75,762.40,63.96,-852.54,550.78,-1.81,2.40,-1.71,-105.83
9494,765.80,765.84,759.15,758.63,762.35,75.20,-862.30,546.39,-3.64,0.50,1.33,-103.25
9531,765.95,765.60,759.08,758.45,762.27,88.38,-856.93,559.57,-1.20,3.61,0.06,-100.84
9569,766.19,765.46,759.08,758.39,762.28,88.87,-847.17,564.45,2.90,1.08,-1.81,-99.76
9606,766.37,765.38,759.09,758.36,762.30,69.82,-849.61,548.34,0.10,1.15,0.05,-98.91
9643,766.59,765.26,759.04,758.24,762.28,54.69,-847.17,547.36,1.35,-0.54,-1.18,-98.16
9680,766.98,765.09,758.92,758.17,762.29,38.09,-838.38,544.92,1.27,1.69,0.40,-100.19
9720,767.35,764.95,758.83,758.01,762.28,82.03,-847.66,561.04,-1.31,1.13,0.39,-100.35
9757,767.96,764.83,758.77,757.80,762.34,77.64,-838.38,551.76,1.74,2.54,0.13,-99.65
9794,768.80,764.87,758.75,757.79,762.55,83.50,-829.10,567.87,5.18,2.73,-0.02,-103.35
9832,769.94,764.93,758.67,757.68,762.81,72.27,-825.68,564.45,-0.76,-0.02,1.32,-108.09
9869,771.39,764.95,758.71,757.67,763.18,79.10,-840.33,570.31,0.21,2.05,0.34,-112.21
9907,772.98,765.04,758.69,757.73,763.61,75.20,-836.43,571.78,1.31,-0.67,1.23,-119.53
9947,774.85,765.21,758.66,757.81,764.13,81.05,-846.68,560.55,-1.27,3.15,1.92,-129.19
9984,777.01,765.43,758.61,757.85,764.72,83.50,-852.54,570.31,-1.85,1.27,-1.34,-140.28
10021,778.92,765.49,758.63,757.78,765.21,73.73,-834.96,559.08,-3.60,2.31,-2.00,-145.91
10058,780.36,765.61,758.71,757.84,765.63,88.38,-849.12,552.25,-4.83,-0.11,-1.12,-150.76
10095,781.46,765.83,758.57,757.81,765.92,59.08,-867.19,527.34,-3.46,2.77,-1.15,-159.10
10133,783.01,766.08,758.62,757.93,766.41,152.34,-819.82,585.45,-2.02,1.16,-3.47,-166.90
10172,784.34,766.93,758.71,758.11,767.02,95.21,-858.89,579.10,-4.42,-0.75,-2.05,-178.91
10210,784.93,768.04,758.85,758.83,767.66,83.98,-852.54,562.50,-1.04,1.26,0.89,-196.96
10247,786.54,769.10,759.00,759.37,768.50,85.94,-776.37,537.60,-2.94,0.85,-4.69,-215.13
10284,788.98,770.08,759.04,759.75,769.46,86.91,-906.74,567.38,0.44,0.30,0.05,-235.94
10321,791.15,771.16,759.21,760.28,770.45,101.07,-857.91,542.48,-2.50,2.38,-2.29,-255.65
10358,793.26,771.91,759.13,760.87,771.29,34.67,-839.84,577.15,4.82,5.33,-1.58,-279.53
10398,794.72,772.61,759.17,761.43,771.98,76.17,-856.93,558.59,5.26,4.02,-3.87,-297.34
10435,794.61,773.71,759.24,761.84,772.35,82.52,-816.89,582.03,3.21,4.47,-0.05,-310.29
10473,793.77,774.45,759.24,762.16,772.40,83.98,-843.26,550.78,-2.31,2.02,-0.18,-318.02
10510,792.49,775.22,759.22,762.27,772.30,74.22,-844.73,548.34,-2.95,1.47,2.11,-321.95
10547,791.16,775.92,759.22,762.29,772.15,70.80,-856.93,548.83,-0.95,-1.88,4.30,-323.13
10584,789.37,776.83,759.28,762.50,772.00,72.75,-849.61,553.71,-0.75,-0.46,3.80,-325.86
10625,787.30,777.71,759.40,762.81,771.80,78.12,-872.07,548.34,-0.03,2.78,3.11,-327.54
10662,785.38,778.45,759.52,763.32,771.67,70.80,-845.21,547.36,2.40,2.07,3.53,-331.37
10699,784.29,778.63,759.71,763.86,771.62,71.78,-858.40,551.76,1.14,-0.02,2.64,-332.21
10736,783.58,778.56,759.98,764.38,771.62,57.62,-841.31,551.27,0.03,1.72,3.18,-330.35
10774,782.82,778.44,760.05,764.67,771.50,63.96,-840.82,549.80,-0.27,1.47,0.96,-329.14
10811,781.96,778.33,760.23,764.75,771.32,68.85,-836.91,560.06,-0.33,-2.53,2.54,-322.11
10851,781.37,778.29,760.37,764.87,771.23,62.99,-857.91,551.76,-3.16,-2.07,2.59,-317.98
10889,780.66,778.24,760.67,764.80,771.10,60.55,-852.05,552.25,-4.81,-1.44,1.79,-306.63
10926,779.21,778.53,761.23,764.92,770.97,84.96,-859.86,545.90,-5.75,1.50,2.92,-291.75
10963,776.68,779.04,762.10,765.48,770.82,70.80,-870.61,543.95,-2.44,0.56,2.27,-273.81
11000,772.97,779.97,763.61,766.47,770.76,76.17,-867.19,540.04,1.58,2.23,4.95,-245.60
11037,767.38,781.54,765.87,767.77,770.64,62.50,-846.19,556.64,3.85,8.90,6.73,-201.51
11077,758.91,784.14,769.84,770.62,770.88,63.96,-869.63,533.69,8.85,5.58,7.59,-136.58
11114,750.55,787.74,775.47,774.71,772.12,41.99,-885.74,533.20,13.95,14.83,17.55,-56.70
11151,745.99,790.44,781.34,779.03,774.20,52.25,-864.75,589.84,2.26,14.78,18.95,20.02
11188,745.43,790.07,786.25,780.53,775.57,273.93,-848.63,724.61,-80.82,15.21,42.35,125.09
11225,745.07,784.21,790.34,778.10,774.43,-3.91,-897.95,631.35,-75.47,66.08,72.32,310.94
11265,744.76,773.53,791.93,772.95,770.79,-14.65,-1116.70,506.35,-54.24,82.23,106.26,513.24
11302,744.59,764.27,791.10,767.00,766.74,-110.35,-1545.90,452.64,-23.66,57.17,145.09,655.04
11339,744.33,760.19,777.82,760.63,760.75,-671.39,-1712.40,879.39,8.19,48.95,163.47,451.50
11377,744.22,758.25,758.87,756.69,754.51,-769.53,-2000.00,805.18,109.71,39.26,155.18,53.27
11414,744.16,757.42,756.89,755.51,753.50,-257.81,-917.48,836.43,230.95,79.31,86.69,28.13
11451,744.22,757.21,756.47,755.49,753.35,216.80,-847.66,174.80,130.57,46.08,96.26,19.70
11491,744.29,757.12,756.20,755.40,753.25,758.30,-651.37,-102.05,114.21,134.70,82.41,14.55
11528,744.24,757.06,756.14,755.36,753.20,787.60,-225.10,-139.16,10.03,153.58,-39.95,14.46
11565,744.30,756.92,756.10,755.23,753.14,628.91,-432.62,66.89,-23.65,127.28,-97.27,16.13
11603,744.25,756.86,756.04,755.27,753.10,473.14,-607.91,196.29,-11.66,49.86,-154.08,14.63
11640,744.21,756.77,755.97,755.17,753.03,430.18,-903.32,133.30,37.88,-1.99,-212.99,15.37
11677,744.16,756.70,755.90,755.12,752.97,345.70,-1120.12,30.76,23.15,-21.09,-250.14,14.96
11717,744.09,756.61,755.91,755.13,752.94,304.20,-1570.31,11.72,-12.37,10.51,-250.14,16.26
11755,743.98,756.61,755.98,755.15,752.93,193.85,-1888.67,123.05,-25.93,66.57,-250.14,17.90
11792,744.00,756.50,756.15,755.13,752.95,5.86,-2000.00,152.83,-24.31,80.29,-250.14,23.32
11829,743.89,756.38,756.10,755.20,752.89,-566.89,-1839.84,271.48,-21.38,90.11,-161.05,22.33
11866,743.92,756.25,755.99,755.13,752.82,-1179.69,-2000.00,440.43,-79.05,-7.02,-110.54,21.44
11907,743.94,756.27,755.96,755.04,752.80,-2000.00,-906.74,153.81,49.18,-81.08,-95.18,21.83
11944,743.91,756.20,755.95,754.96,752.76,-1702.64,-656.74,269.04,-140.21,-192.16,-101.93,23.45
11981,744.69,756.52,755.86,755.03,753.03,-908.69,-817.38,295.41,34.05,-47.72,30.85,15.14
12019,752.30,757.08,755.87,755.07,755.08,-1031.74,-604.49,853.03,-116.24,114.24,174.49,-15.75
12056,776.63,758.37,755.79,755.26,761.51,-882.81,-26.86,1930.66,250.13,235.05,173.64,-114.55
12093,792.69,762.48,757.00,755.19,766.84,-1833.98,-2000.00,159.67,205.08,86.82,31.92,-171.57
12133,791.01,766.79,760.78,757.20,768.95,10.74,-1734.86,27.83,-197.02,-89.94,5.05,-135.80
12170,785.40,772.00,766.32,761.54,771.32,159.18,-1044.43,572.27,10.11,-8.73,8.37,-84.01
12208,778.64,777.00,770.36,765.79,772.95,67.38,-752.44,666.99,0.93,5.66,9.39,-62.87
12245,770.02,780.68,772.33,768.51,772.89,70.31,-885.25,569.82,-8.50,6.70,6.98,-53.70
12282,762.17,783.28,773.70,770.78,772.48,53.71,-815.43,602.05,-9.57,5.98,6.72,-47.10
12320,756.15,785.30,774.31,772.29,772.01,62.01,-837.40,557.13,-6.99,9.13,6.82,-49.62
12360,752.60,786.83,774.68,773.36,771.87,44.92,-843.26,594.24,4.10,7.29,8.46,-56.12
12397,750.91,787.39,774.77,774.56,771.91,46.39,-852.05,562.99,7.37,10.69,4.89,-70.27
12434,749.61,788.27,774.75,775.99,772.15,13.18,-783.69,597.66,7.95,6.56,1.34,-94.53
12472,748.70,789.40,774.97,777.33,772.60,27.34,-841.31,580.57,2.99,5.02,4.47,-114.47
12509,747.86,790.70,775.30,778.37,773.06,32.23,-808.59,593.26,2.83,7.77,7.35,-129.25
12549,746.92,793.02,776.03,779.39,773.84,15.63,-805.18,583.98,-0.33,5.97,5.93,-141.51
12586,746.22,795.07,777.19,780.70,774.79,9.28,-817.38,580.57,4.95,10.60,7.81,-145.79
12623,745.13,797.41,779.83,783.09,776.36,29.79,-830.57,601.56,-6.72,6.05,7.32,-130.27
12660,744.82,798.75,786.76,786.09,779.10,81.05,-956.05,510.74,-28.34,19.11,22.92,-11.42
12697,744.73,797.12,795.04,788.27,781.29,115.72,-867.68,640.14,-54.50,79.56,63.55,176.14
12734,744.71,791.67,798.14,787.49,780.50,-47.85,-941.41,617.19,-81.68,94.46,92.49,308.50
12774,744.65,784.01,799.27,782.56,777.62,-133.30,-1093.75,472.66,-82.76,87.67,127.87,470.80
12811,744.58,776.70,798.26,776.65,774.05,-74.71,-1385.74,449.22,-114.39,63.92,191.04,591.57
12848,744.43,769.19,793.27,770.66,769.38,49.32,-1570.80,402.34,-84.72,62.18,250.13,616.19
12886,744.20,761.34,789.85,763.21,764.65,-233.89,-2000.00,329.10,-127.63,43.25,250.13,704.50
12923,744.01,758.03,762.84,756.97,755.46,-9.28,-1521.48,401.37,68.32,45.44,250.13,150.63
12960,744.28,757.27,756.76,755.27,753.39,172.85,-770.51,-247.07,34.34,100.77,168.36,29.20
12999,743.98,756.90,756.55,755.13,753.14,566.41,-836.91,181.64,108.52,54.43,-146.73,30.10
13037,744.07,756.85,756.37,755.13,753.11,171.87,-227.05,-86.43,153.41,45.37,-186.95,25.66
13074,743.99,756.69,756.21,755.07,752.99,246.58,-654.79,-26.86,59.17,-33.90,-235.34,24.11
13111,743.98,756.54,756.15,755.06,752.93,236.82,-1195.80,-26.37,103.12,-25.24,-250.14,24.03
13149,743.85,756.67,756.10,755.05,752.92,99.12,-1291.50,-151.37,98.77,8.02,-250.14,22.43
13189,743.85,756.65,756.07,755.05,752.90,125.98,-1741.21,-62.50,23.32,45.02,-250.14,21.85
13226,743.71,756.61,756.15,755.02,752.87,101.07,-2000.00,-43.95,28.98,97.30,-250.14,24.88
13263,743.74,756.45,756.09,755.01,752.82,-243.16,-2000.00,-269.53,67.43,156.34,-250.14,24.78
13301,743.65,756.43,756.05,755.06,752.80,-909.67,-1254.88,-39.55,31.69,129.37,-163.85,23.55
13338,743.78,756.27,755.91,754.98,752.73,-1940.92,-1476.07,25.88,-90.31,-11.87,-65.94,22.00
13375,743.79,756.19,755.95,754.89,752.70,-1958.50,-1070.80,400.39,-154.64,-135.32,-64.75,25.00
13415,743.78,756.34,756.19,754.92,752.80,-712.89,-1122.56,211.43,146.33,33.69,11.72,29.47
13452,746.26,756.45,756.15,754.91,753.44,-104.00,-644.04,690.43,-34.79,120.27,105.56,19.23
13490,761.38,757.48,756.28,754.97,757.53,-189.94,-1318.36,428.71,250.13,172.17,140.40,-38.45
13527,782.76,761.39,757.56,754.92,764.16,1999.94,-97.17,-1676.76,107.92,-220.13,52.60,-110.84
13565,784.63,765.22,759.63,756.74,766.55,-37.60,-1230.96,336.91,-57.95,4.69,6.47,-123.13
13602,785.05,770.40,761.18,758.66,768.82,104.49,-1025.88,384.77,14.37,7.71,15.95,-155.66
13642,787.03,775.00,762.59,760.87,771.37,99.12,-881.84,586.43,21.53,7.36,5.40,-196.74
13679,784.58,779.01,763.08,762.59,772.31,91.80,-777.34,611.82,-9.56,1.87,7.50,-233.69
13717,780.69,781.42,763.16,762.86,772.03,90.33,-889.16,555.66,-8.05,5.47,7.09,-241.71
13754,777.21,782.62,762.99,763.15,771.49,84.96,-822.27,561.52,2.92,7.43,1.98,-247.75
13791,775.29,783.73,763.06,763.41,771.37,85.45,-843.26,567.87,-2.60,4.25,2.31,-252.26
13831,775.53,784.53,762.96,763.64,771.66,78.61,-841.31,562.99,-10.02,1.48,-0.32,-265.28
13869,777.46,784.51,762.92,763.60,772.12,94.73,-846.68,556.15,5.79,1.39,1.58,-272.13
13906,778.88,784.64,762.78,763.56,772.47,70.31,-831.05,565.92,-2.98,-0.69,-0.37,-281.19
13944,779.44,784.57,762.61,762.97,772.40,66.41,-842.77,569.34,-4.37,-0.98,3.77,-277.84
13981,779.42,783.86,762.35,762.02,771.91,78.61,-853.03,565.92,-8.60,-1.30,1.73,-264.50
14018,778.27,780.29,762.12,760.80,770.37,80.57,-912.11,534.67,-5.53,-4.27,-0.33,-219.92
14058,770.79,772.98,761.90,759.75,766.36,79.59,-855.96,541.50,20.49,3.89,-11.79,-125.55
14095,748.00,766.69,761.25,758.88,758.71,163.09,-1029.30,536.62,-31.73,14.56,1.30,-0.21
14133,745.01,761.10,760.24,757.24,755.90,83.50,-1158.20,904.30,-89.40,-28.92,26.19,53.60
14170,744.79,758.49,758.80,755.65,754.43,537.11,-1583.50,1087.89,10.47,148.92,145.40,63.02
14207,744.69,757.99,757.17,755.26,753.78,454.10,-1054.69,-75.20,81.96,94.60,76.12,32.50
14245,744.70,757.72,756.80,755.15,753.59,965.33,-474.12,-97.17,51.01,89.05,-24.57,27.12
14284,744.59,757.59,756.58,755.09,753.46,870.61,-470.21,-51.27,-49.94,63.82,-77.77,23.81
14322,744.43,757.39,756.32,755.05,753.30,706.54,-885.74,115.72,-63.46,55.21,-137.15,20.00
14359,744.36,757.26,756.21,754.99,753.20,414.55,-1009.28,178.22,-43.53,48.01,-155.45,19.43
14396,744.20,757.02,756.15,754.96,753.08,293.95,-1177.73,197.27,-35.53,50.31,-132.74,21.05
14433,744.16,756.72,756.04,754.96,752.97,187.99,-1362.79,234.37,-34.60,59.31,-92.27,20.68
14470,744.15,756.54,755.98,755.02,752.92,-22.46,-1454.59,325.20,-49.03,44.76,-82.98,19.95
14510,744.10,756.48,756.10,754.99,752.92,-368.65,-1282.23,473.63,9.18,28.67,-77.44,23.80
14547,744.05,756.41,756.03,755.00,752.87,-728.52,-1210.94,548.34,-53.01,-47.24,-26.99,22.91
14584,744.07,756.28,755.98,754.95,752.82,-991.21,-706.54,604.98,-56.84,-121.85,4.32,23.29
14621,744.05,756.36,756.00,754.94,752.84,-804.69,-926.27,626.46,-22.69,-179.31,-3.25,23.30
14658,744.08,756.34,755.97,754.92,752.83,-516.60,-965.82,508.30,44.51,-188.53,10.21,22.80
14698,744.06,756.34,755.91,755.04,752.84,-99.61,-840.82,348.14,98.83,-134.19,27.09,19.66
14735,746.16,756.34,755.87,754.97,753.34,1676.27,-192.87,-1454.59,250.13,80.28,107.62,12.53
14772,750.75,756.98,755.92,754.95,754.65,262.70,-1109.38,-132.32,211.29,120.40,127.80,-6.63
14810,769.31,759.04,756.25,755.00,759.90,-1339.84,-2000.00,1677.73,186.75,94.95,54.25,-79.51
14847,780.30,760.90,757.43,755.83,763.62,533.69,-1333.50,1294.43,177.79,-9.70,-7.86,-115.11
14885,783.22,762.55,758.92,757.52,765.55,47.36,-666.02,708.50,15.65,4.75,6.51,-125.93
14925,786.49,764.54,760.32,758.55,767.47,92.29,-965.33,449.22,-6.39,0.50,4.93,-133.50
14962,791.56,766.73,762.84,760.21,770.33,107.91,-915.04,523.44,24.60,4.13,6.47,-130.11
14999,792.79,768.30,765.48,762.48,772.26,79.59,-784.18,625.49,19.13,4.91,3.08,-114.33
15037,788.32,769.83,767.18,764.12,772.36,89.36,-834.96,578.12,2.22,1.15,3.24,-93.10
15074,783.29,771.08,769.06,765.79,772.30,92.29,-852.54,571.29,7.37,2.19,3.06,-63.82
15111,778.39,772.20,770.76,767.50,772.21,56.64,-815.43,594.24,5.61,6.41,3.25,-38.83
15151,773.96,773.78,772.46,769.09,772.32,77.15,-836.91,587.40,-2.27,4.52,3.74,-17.02
15188,770.25,775.44,774.42,770.51,772.65,92.29,-630.86,693.36,6.92,-9.85,5.11,10.11
15226,766.99,776.71,776.56,771.97,773.06,91.80,-810.55,577.15,-48.20,-17.12,3.73,43.13
15263,763.96,778.44,779.32,773.79,773.88,7999.76,-8000.00,2486.33,117.67,-250.14,250.13,81.53
15299,761.77,779.54,781.62,775.85,774.69,7999.76,-8000.00,2486.33,117.67,-250.14,250.13,107.08
15338,759.28,779.07,784.16,776.27,774.70,7999.76,-8000.00,2486.33,117.67,-250.14,250.13,176.35
15374,758.56,779.03,785.04,777.27,774.97,7999.76,-8000.00,2486.33,117.67,-250.14,250.13,186.49
15410,757.01,778.26,786.33,778.37,774.99,7999.76,-8000.00,2486.33,117.67,-250.14,250.13,213.90
15446,755.25,777.52,786.77,778.77,774.58,7999.76,-8000.00,2486.33,117.67,-250.14,250.13,230.82
15482,755.08,777.49,787.01,778.64,774.55,7999.76,-8000.00,2486.33,117.67,-250.14,250.13,239.82
15519,755.56,777.75,786.89,778.04,774.56,7999.76,-8000.00,2486.33,117.67,-250.14,250.13,241.80
15557,755.99,778.32,786.55,777.47,774.58,7999.76,-8000.00,2486.33,117.67,-250.14,250.13,235.76
15594,756.72,778.28,786.06,776.80,774.47,7999.76,-8000.00,2486.33,117.67,-250.14,250.13,231.30
15630,760.53,778.17,785.36,775.13,774.80,7999.76,-8000.00,2486.33,117.67,-250.14,250.13,226.08
15666,767.95,776.33,782.81,770.51,774.40,7999.76,-8000.00,2486.33,117.67,-250.14,250.13,220.06
15702,771.48,775.17,780.46,767.27,773.60,7999.76,-8000.00,2486.33,117.67,-250.14,250.13,206.31
15741,771.56,772.85,778.07,764.01,771.62,7999.76,-8000.00,2486.33,117.67,-250.14,250.13,212.88
15777,765.61,768.84,773.36,760.52,767.08,7999.76,-8000.00,2486.33,117.67,-250.14,250.13,199.58
15813,756.51,764.67,767.61,757.76,761.64,7999.76,-8000.00,2486.33,117.67,-250.14,250.13,161.78
15850,750.04,762.13,762.40,756.18,757.69,7999.76,-8000.00,2486.33,117.67,-250.14,250.13,97.69
15886,746.38,760.22,759.19,755.54,755.33,7999.76,-8000.00,2486.33,117.67,-250.14,250.13,55.00
15925,745.81,759.04,757.69,755.29,754.46,7999.76,-8000.00,2486.33,117.67,-250.14,250.13,32.74
15961,745.44,758.58,757.29,755.20,754.13,7999.76,-8000.00,2486.33,117.67,-250.14,250.13,29.02
15997,745.21,758.46,757.08,755.12,753.97,7999.76,-8000.00,2486.33,117.67,-250.14,250.13,26.66
16032,745.05,758.46,756.98,755.18,753.92,7999.76,-8000.00,2486.33,117.67,-250.14,250.13,24.04
16069,744.92,758.46,756.87,755.13,753.85,7999.76,-8000.00,2486.33,117.67,-250.14,250.13,22.44
16104,744.84,758.35,756.76,755.03,753.75,7999.76,-8000.00,2486.33,117.67,-250.14,250.13,22.36
16143,744.79,758.65,756.74,755.11,753.82,7999.76,-8000.00,2486.33,117.67,-250.14,250.13,18.38
16179,744.74,758.99,756.83,755.07,753.91,7999.76,-8000.00,2486.33,117.67,-250.14,250.13,18.63
16215,744.87,759.68,756.75,755.14,754.11,7999.76,-8000.00,2486.33,117.67,-250.14,250.13,9.45
16251,744.80,760.08,756.82,755.20,754.23,7999.76,-8000.00,2486.33,117.67,-250.14,250.13,7.55
16287,744.90,760.39,756.86,755.09,754.31,7999.76,-8000.00,2486.33,117.67,-250.14,250.13,7.41
16326,744.86,760.47,756.87,755.17,754.34,7999.76,-8000.00,2486.33,117.67,-250.14,250.13,5.75
16362,744.98,760.43,756.84,755.18,754.36,7999.76,-8000.00,2486.33,117.67,-250.14,250.13,4.73
16398,745.09,760.17,756.89,755.29,754.36,7999.76,-8000.00,2486.33,117.67,-250.14,250.13,6.12
16434,745.10,759.03,756.70,755.07,753.98,7999.76,-8000.00,2486.33,117.67,-250.14,250.13,13.93
16470,745.04,758.42,756.66,754.94,753.76,7999.76,-8000.00,2486.33,117.67,-250.14,250.13,19.76
16507,744.91,758.24,756.57,754.98,753.68,7999.76,-8000.00,2486.33,117.67,-250.14,250.13,18.89
16546,745.07,758.52,756.52,754.93,753.76,7999.76,-8000.00,2486.33,117.67,-250.14,250.13,15.47
16582,745.69,759.13,756.59,754.91,754.08,7999.76,-8000.00,2486.33,117.67,-250.14,250.13,10.57
16618,752.54,760.44,756.81,755.03,756.21,7999.76,-8000.00,2486.33,117.67,-250.14,250.13,-19.59
16654,763.04,762.02,757.62,755.23,759.48,7999.76,-8000.00,2486.33,117.67,-250.14,250.13,-51.04
16690,767.00,763.55,758.42,755.48,761.11,7999.76,-8000.00,2486.33,117.67,-250.14,250.13,-60.76
16729,770.62,765.64,759.08,755.83,762.79,7999.76,-8000.00,2486.33,117.67,-250.14,250.13,-78.78
16766,775.28,767.76,759.91,756.28,764.81,7999.76,-8000.00,2486.33,117.67,-250.14,250.13,-97.59
16802,780.89,769.27,760.63,756.67,766.87,7999.76,-8000.00,2486.33,117.67,-250.14,250.13,-116.77
16839,784.97,770.37,761.06,756.97,768.34,7999.76,-8000.00,2486.33,117.67,-250.14,250.13,-133.38
16875,787.74,770.92,761.24,757.06,769.24,7999.76,-8000.00,2486.33,117.67,-250.14,250.13,-144.17
16914,789.99,771.86,761.21,756.99,770.01,7999.76,-8000.00,2486.33,117.67,-250.14,250.13,-158.96
16950,790.96,772.60,761.22,757.02,770.45,7999.76,-8000.00,2486.33,117.67,-250.14,250.13,-168.50
16986,792.48,773.06,761.23,756.95,770.93,7999.76,-8000.00,2486.33,117.67,-250.14,250.13,-176.10
17022,793.66,773.75,761.12,756.85,771.35,7999.76,-8000.00,2486.33,117.67,-250.14,250.13,-187.06
17058,795.01,773.94,761.05,756.78,771.70,7999.76,-8000.00,2486.33,117.67,-250.14,250.13,-193.84
17095,796.04,774.04,760.92,756.70,771.92,7999.76,-8000.00,2486.33,117.67,-250.14,250.13,-200.19
17133,796.42,773.97,760.79,756.63,771.95,7999.76,-8000.00,2486.33,117.67,-250.14,250.13,-203.25
17170,796.57,773.90,760.84,756.83,772.03,7999.76,-8000.00,2486.33,117.67,-250.14,250.13,-204.96
17206,796.22,773.76,760.78,756.84,771.90,7999.76,-8000.00,2486.33,117.67,-250.14,250.13,-204.27
17242,795.66,773.52,760.83,756.98,771.75,7999.76,-8000.00,2486.33,117.67,-250.14,250.13,-201.02
17279,795.03,773.29,760.84,757.02,771.54,7999.76,-8000.00,2486.33,117.67,-250.14,250.13,-197.47
17317,793.89,773.19,760.97,757.15,771.30,7999.76,-8000.00,2486.33,117.67,-250.14,250.13,-191.55
17354,792.05,773.32,761.34,757.49,771.05,7999.76,-8000.00,2486.33,117.67,-250.14,250.13,-181.84
17390,789.54,773.79,761.93,757.85,770.78,7999.76,-8000.00,2486.33,117.67,-250.14,250.13,-167.70
17426,786.85,774.42,762.68,758.20,770.54,7999.76,-8000.00,2486.33,117.67,-250.14,250.13,-150.02
17462,785.04,774.72,763.27,758.47,770.37,7999.76,-8000.00,2486.33,117.67,-250.14,250.13,-135.54
17501,783.73,774.67,763.53,758.64,770.14,7999.76,-8000.00,2486.33,117.67,-250.14,250.13,-126.50
17537,782.64,774.05,763.56,758.62,769.72,7999.76,-8000.00,2486.33,117.67,-250.14,250.13,-116.94
17573,781.31,773.08,763.25,758.31,768.99,7999.76,-8000.00,2486.33,117.67,-250.14,250.13,-107.53
17609,779.98,771.61,762.85,757.93,768.10,7999.76,-8000.00,2486.33,117.67,-250.14,250.13,-95.82
17646,778.36,769.62,762.32,757.44,766.93,7999.76,-8000.00,2486.33,117.67,-250.14,250.13,-80.00
17685,775.50,767.16,761.55,756.93,765.28,7999.76,-8000.00,2486.33,117.67,-250.14,250.13,-62.25
17721,772.27,764.95,760.70,756.44,763.59,7999.76,-8000.00,2486.33,117.67,-250.14,250.13,-47.35
17758,767.09,762.51,760.03,755.99,761.41,7999.76,-8000.00,2486.33,117.67,-250.14,250.13,-20.20
17794,761.10,760.47,759.29,755.59,759.11,7999.76,-8000.00,2486.33,117.67,-250.14,250.13,4.15
17829,755.20,758.96,758.43,755.20,756.95,7999.76,-8000.00,2486.33,117.67,-250.14,250.13,20.98
17866,750.98,757.86,757.44,754.97,755.31,7999.76,-8000.00,2486.33,117.67,-250.14,250.13,22.91
17904,748.32,757.53,756.82,754.84,754.38,7999.76,-8000.00,2486.33,117.67,-250.14,250.13,21.28
17941,746.72,757.39,756.62,754.77,753.87,7999.76,-8000.00,2486.33,117.67,-250.14,250.13,23.87
17977,745.88,757.37,756.40,754.79,753.61,7999.76,-8000.00,2486.33,117.67,-250.14,250.13,21.13
18013,745.55,757.14,756.27,754.82,753.45,7999.76,-8000.00,2486.33,117.67,-250.14,250.13,20.45
18049,745.41,757.05,756.11,754.82,753.35,7999.76,-8000.00,2486.33,117.67,-250.14,250.13,17.56
18088,745.20,756.97,756.03,754.81,753.25,7999.76,-8000.00,2486.33,117.67,-250.14,250.13,17.05
18124,745.10,757.11,756.01,754.82,753.26,7999.76,-8000.00,2486.33,117.67,-250.14,250.13,15.76
18160,745.08,757.18,756.17,754.82,753.31,7999.76,-8000.00,2486.33,117.67,-250.14,250.13,19.21
18196,745.03,757.46,756.46,754.86,753.45,7999.76,-8000.00,2486.33,117.67,-250.14,250.13,23.83
18232,745.43,757.67,756.85,755.24,753.80,7999.76,-8000.00,2486.33,117.67,-250.14,250.13,24.84
18268,746.31,758.09,757.07,755.60,754.27,7999.76,-8000.00,2486.33,117.67,-250.14,250.13,18.46
18307,748.61,758.86,757.68,755.89,755.26,7999.76,-8000.00,2486.33,117.67,-250.14,250.13,15.48
18343,751.47,759.94,758.29,756.16,756.46,7999.76,-8000.00,2486.33,117.67,-250.14,250.13,8.26
18379,754.82,760.73,758.59,756.33,757.62,7999.76,-8000.00,2486.33,117.67,-250.14,250.13,-4.57
18416,758.39,761.88,759.23,756.57,759.02,7999.76,-8000.00,2486.33,117.67,-250.14,250.13,-13.56
18452,763.07,763.50,760.04,756.99,760.90,7999.76,-8000.00,2486.33,117.67,-250.14,250.13,-28.71
18490,770.15,766.14,761.08,757.58,763.74,7999.76,-8000.00,2486.33,117.67,-250.14,250.13,-56.94
18526,778.58,768.69,762.09,758.29,766.91,7999.76,-8000.00,2486.33,117.67,-250.14,250.13,-91.82
18563,786.44,770.60,763.28,758.91,769.81,7999.76,-8000.00,2486.33,117.67,-250.14,250.13,-113.38
18599,790.34,771.67,764.00,759.26,771.32,7999.76,-8000.00,2486.33,117.67,-250.14,250.13,-122.61
18635,791.93,772.10,764.07,759.45,771.89,7999.76,-8000.00,2486.33,117.67,-250.14,250.13,-132.53
18673,793.68,771.91,763.98,759.35,772.23,7999.76,-8000.00,2486.33,117.67,-250.14,250.13,-137.83
18710,796.20,771.59,763.79,759.26,772.71,7999.76,-8000.00,2486.33,117.67,-250.14,250.13,-147.16
18746,797.75,771.51,763.64,759.16,773.01,7999.76,-8000.00,2486.33,117.67,-250.14,250.13,-154.34
18783,797.40,771.22,763.49,759.02,772.78,7999.76,-8000.00,2486.33,117.67,-250.14,250.13,-152.39
18819,796.68,770.86,763.47,758.88,772.47,7999.76,-8000.00,2486.33,117.67,-250.14,250.13,-145.64
18855,796.47,770.35,763.30,758.84,772.24,7999.76,-8000.00,2486.33,117.67,-250.14,250.13,-144.27
18893,795.12,769.60,763.21,758.82,771.69,7999.76,-8000.00,2486.33,117.67,-250.14,250.13,-135.49
18930,792.33,768.72,762.90,758.41,770.59,7999.76,-8000.00,2486.33,117.67,-250.14,250.13,-120.56
18966,788.64,767.60,762.35,758.13,769.18,7999.76,-8000.00,2486.33,117.67,-250.14,250.13,-108.65
19002,785.35,766.83,762.04,757.72,767.98,7999.76,-8000.00,2486.33,117.67,-250.14,250.13,-92.76
19038,782.56,766.32,761.86,757.52,767.06,7999.76,-8000.00,2486.33,117.67,-250.14,250.13,-80.68
19076,780.05,765.79,761.69,757.41,766.24,7999.76,-8000.00,2486.33,117.67,-250.14,250.13,-70.58
19112,777.82,765.41,761.62,757.26,765.53,7999.76,-8000.00,2486.33,117.67,-250.14,250.13,-59.31
19148,775.32,764.94,761.53,757.19,764.74,7999.76,-8000.00,2486.33,117.67,-250.14,250.13,-48.18
19184,772.88,764.67,761.46,757.13,764.04,7999.76,-8000.00,2486.33,117.67,-250.14,250.13,-38.53
19220,770.79,764.41,761.44,757.08,763.43,7999.76,-8000.00,2486.33,117.67,-250.14,250.13,-29.03
19258,768.95,764.22,761.48,757.07,762.93,7999.76,-8000.00,2486.33,117.67,-250.14,250.13,-20.17
19294,767.53,764.08,761.50,756.99,762.52,7999.76,-8000.00,2486.33,117.67,-250.14,250.13,-12.32
19330,766.15,763.97,761.36,757.07,762.14,7999.76,-8000.00,2486.33,117.67,-250.14,250.13,-11.33
19366,764.96,763.94,761.42,757.00,761.83,7999.76,-8000.00,2486.33,117.67,-250.14,250.13,-4.62
19402,764.05,764.12,761.41,757.03,761.65,7999.76,-8000.00,2486.33,117.67,-250.14,250.13,-3.61
19437,763.37,764.17,761.57,757.11,761.55,7999.76,-8000.00,2486.33,117.67,-250.14,250.13,1.21
19476,763.04,764.26,761.55,757.17,761.51,7999.76,-8000.00,2486.33,117.67,-250.14,250.13,0.27
19512,762.88,764.39,761.66,757.24,761.54,7999.76,-8000.00,2486.33,117.67,-250.14,250.13,1.31
19548,762.86,764.55,761.71,757.22,761.59,7999.76,-8000.00,2486.33,117.67,-250.14,250.13,1.76
19584,762.80,764.62,761.73,757.31,761.61,7999.76,-8000.00,2486.33,117.67,-250.14,250.13,0.60
19620,762.75,764.95,761.89,757.38,761.74,7999.76,-8000.00,2486.33,117.67,-250.14,250.13,1.02
19659,762.79,765.25,762.00,757.50,761.89,7999.76,-8000.00,2486.33,117.67,-250.14,250.13,-0.49
19696,762.93,765.37,762.13,757.49,761.98,7999.76,-8000.00,2486.33,117.67,-250.14,250.13,1.31
19732,763.04,765.63,762.24,757.63,762.13,7999.76,-8000.00,2486.33,117.67,-250.14,250.13,-0.27
19768,763.07,765.90,762.41,757.76,762.29,7999.76,-8000.00,2486.33,117.67,-250.14,250.13,-0.42
19804,763.20,766.17,762.51,757.87,762.44,7999.76,-8000.00,2486.33,117.67,-250.14,250.13,-2.04
19843,763.31,766.44,762.71,757.89,762.59,7999.76,-8000.00,2486.33,117.67,-250.14,250.13,0.18
19879,763.60,766.66,762.93,758.03,762.80,7999.76,-8000.00,2486.33,117.67,-250.14,250.13,0.84
19915,764.10,766.86,762.95,758.13,763.01,7999.76,-8000.00,2486.33,117.67,-250.14,250.13,-3.52
19951,764.59,766.85,763.05,758.00,763.12,7999.76,-8000.00,2486.33,117.67,-250.14,250.13,-0.63
19987,765.19,766.95,763.08,758.14,763.34,7999.76,-8000.00,2486.33,117.67,-250.14,250.13,-4.82
20023,765.71,767.08,763.16,758.09,763.51,7999.76,-8000.00,2486.33,117.67,-250.14,250.13,-4.95
20062,766.01,767.12,763.19,758.19,763.62,7999.76,-8000.00,2486.33,117.67,-250.14,250.13,-7.04
20098,766.29,767.13,763.23,758.21,763.71,7999.76,-8000.00,2486.33,117.67,-250.14,250.13,-7.25
20134,766.89,767.17,763.21,758.15,763.85,7999.76,-8000.00,2486.33,117.67,-250.14,250.13,-9.53
20170,767.38,767.04,763.17,758.21,763.95,7999.76,-8000.00,2486.33,117.67,-250.14,250.13,-11.84
20206,767.85,767.08,763.15,758.16,764.06,7999.76,-8000.00,2486.33,117.67,-250.14,250.13,-13.64
20245,768.15,767.08,763.12,758.23,764.15,7999.76,-8000.00,2486.33,117.67,-250.14,250.13,-16.42
20281,768.29,767.13,763.23,758.28,764.23,7999.76,-8000.00,2486.33,117.67,-250.14,250.13,-15.31
20317,768.40,767.02,763.22,758.20,764.21,7999.76,-8000.00,2486.33,117.67,-250.14,250.13,-13.89
20354,768.67,767.14,763.20,758.22,764.31,7999.76,-8000.00,2486.33,117.67,-250.14,250.13,-16.58
20390,769.33,766.96,763.19,758.29,764.44,7999.76,-8000.00,2486.33,117.67,-250.14,250.13,-18.71
20429,769.91,766.74,763.19,758.17,764.50,7999.76,-8000.00,2486.33,117.67,-250.14,250.13,-17.26
20465,770.82,766.44,762.95,758.05,764.57,7999.76,-8000.00,2486.33,117.67,-250.14,250.13,-22.02
20501,771.84,766.00,762.85,757.92,764.65,7999.76,-8000.00,2486.33,117.67,-250.14,250.13,-22.61
20537,773.06,765.64,762.56,757.72,764.75,7999.76,-8000.00,2486.33,117.67,-250.14,250.13,-28.19
20573,774.35,765.37,762.29,757.49,764.87,7999.76,-8000.00,2486.33,117.67,-250.14,250.13,-33.67
20609,775.27,765.10,762.09,757.42,764.97,7999.76,-8000.00,2486.33,117.67,-250.14,250.13,-38.67
20649,776.12,764.96,761.90,757.29,765.07,7999.76,-8000.00,2486.33,117.67,-250.14,250.13,-43.40
20685,776.74,764.77,761.63,757.11,765.06,7999.76,-8000.00,2486.33,117.67,-250.14,250.13,-47.81
20721,777.18,764.65,761.42,756.94,765.05,7999.76,-8000.00,2486.33,117.67,-250.14,250.13,-51.37
20757,777.40,764.59,761.29,756.94,765.06,7999.76,-8000.00,2486.33,117.67,-250.14,250.13,-54.79
20793,777.62,764.65,761.04,756.85,765.04,7999.76,-8000.00,2486.33,117.67,-250.14,250.13,-60.89
20832,777.78,764.48,760.90,756.82,765.00,7999.76,-8000.00,2486.33,117.67,-250.14,250.13,-63.25
20868,778.01,764.53,760.91,756.85,765.07,7999.76,-8000.00,2486.33,117.67,-250.14,250.13,-64.56
20904,777.90,764.45,760.83,756.87,765.01,7999.76,-8000.00,2486.33,117.67,-250.14,250.13,-65.79
20940,777.67,764.47,760.89,756.88,764.98,7999.76,-8000.00,2486.33,117.67,-250.14,250.13,-63.70
20976,777.51,764.54,760.84,756.85,764.93,7999.76,-8000.00,2486.33,117.67,-250.14,250.13,-64.74
21014,777.41,764.46,760.92,756.89,764.92,7999.76,-8000.00,2486.33,117.67,-250.14,250.13,-62.37
21051,777.28,764.44,760.87,756.80,764.84,7999.76,-8000.00,2486.33,117.67,-250.14,250.13,-61.56
21087,777.10,764.45,760.95,756.79,764.82,7999.76,-8000.00,2486.33,117.67,-250.14,250.13,-59.05
21123,777.01,764.36,760.89,756.87,764.78,7999.76,-8000.00,2486.33,117.67,-250.14,250.13,-60.59
21159,776.88,764.37,760.88,756.88,764.75,7999.76,-8000.00,2486.33,117.67,-250.14,250.13,-60.50
21195,776.72,764.34,761.01,756.88,764.74,7999.76,-8000.00,2486.33,117.67,-250.14,250.13,-56.35
21234,776.50,764.40,761.04,756.95,764.72,7999.76,-8000.00,2486.33,117.67,-250.14,250.13,-56.69
21270,776.27,764.40,761.00,756.96,764.66,7999.76,-8000.00,2486.33,117.67,-250.14,250.13,-56.88
21307,776.11,764.46,761.08,756.97,764.66,7999.76,-8000.00,2486.33,117.67,-250.14,250.13,-55.02
21343,775.95,764.50,761.14,757.04,764.66,7999.76,-8000.00,2486.33,117.67,-250.14,250.13,-54.36
21379,775.82,764.44,761.18,757.07,764.63,7999.76,-8000.00,2486.33,117.67,-250.14,250.13,-52.76
21418,775.67,764.45,761.15,757.12,764.60,7999.76,-8000.00,2486.33,117.67,-250.14,250.13,-53.72
21454,775.67,764.40,761.19,757.14,764.60,7999.76,-8000.00,2486.33,117.67,-250.14,250.13,-52.62
21490,775.57,764.48,761.24,757.17,764.61,7999.76,-8000.00,2486.33,117.67,-250.14,250.13,-52.24
21526,775.52,764.50,761.27,757.12,764.60,7999.76,-8000.00,2486.33,117.67,-250.14,250.13,-50.88
21563,775.48,764.40,761.17,757.15,764.55,7999.76,-8000.00,2486.33,117.67,-250.14,250.13,-52.80
21602,775.61,764.38,761.18,757.15,764.58,7999.76,-8000.00,2486.33,117.67,-250.14,250.13,-52.77
21639,775.66,764.29,761.12,757.05,764.53,7999.76,-8000.00,2486.33,117.67,-250.14,250.13,-52.25
21675,775.71,764.33,761.11,757.02,764.54,7999.76,-8000.00,2486.33,117.67,-250.14,250.13,-52.67
21711,775.73,764.33,761.10,757.06,764.55,7999.76,-8000.00,2486.33,117.67,-250.14,250.13,-53.58
21747,775.74,764.28,761.09,757.06,764.54,7999.76,-8000.00,2486.33,117.67,-250.14,250.13,-53.41
21784,775.74,764.22,761.14,757.02,764.53,7999.76,-8000.00,2486.33,117.67,-250.14,250.13,-51.11
21823,775.59,764.23,761.11,757.01,764.49,7999.76,-8000.00,2486.33,117.67,-250.14,250.13,-51.16
21859,775.46,764.23,761.12,757.01,764.46,7999.76,-8000.00,2486.33,117.67,-250.14,250.13,-50.46
21895,775.28,764.31,761.12,757.10,764.45,7999.76,-8000.00,2486.33,117.67,-250.14,250.13,-51.83
21932,775.00,764.41,761.18,757.10,764.42,7999.76,-8000.00,2486.33,117.67,-250.14,250.13,-50.33
21968,774.81,764.56,761.24,757.22,764.46,7999.76,-8000.00,2486.33,117.67,-250.14,250.13,-51.00
22007,774.66,764.59,761.31,757.32,764.47,7999.76,-8000.00,2486.33,117.67,-250.14,250.13,-50.54
22043,774.59,764.64,761.34,757.26,764.46,7999.76,-8000.00,2486.33,117.67,-250.14,250.13,-48.99
22079,774.60,764.72,761.42,757.27,764.50,7999.76,-8000.00,2486.33,117.67,-250.14,250.13,-47.80
22116,774.62,764.69,761.43,757.40,764.54,7999.76,-8000.00,2486.33,117.67,-250.14,250.13,-49.31
22152,774.51,764.66,761.44,757.26,764.47,7999.76,-8000.00,2486.33,117.67,-250.14,250.13,-46.33
22191,774.41,764.75,761.53,757.32,764.50,7999.76,-8000.00,2486.33,117.67,-250.14,250.13,-45.31
22227,774.23,764.68,761.61,757.39,764.48,7999.76,-8000.00,2486.33,117.67,-250.14,250.13,-43.35
22263,774.00,764.74,761.58,757.40,764.43,7999.76,-8000.00,2486.33,117.67,-250.14,250.13,-43.81
22299,773.63,764.81,761.54,757.42,764.35,7999.76,-8000.00,2486.33,117.67,-250.14,250.13,-44.34
22335,773.24,764.84,761.64,757.44,764.29,7999.76,-8000.00,2486.33,117.67,-250.14,250.13,-41.32
22371,772.86,764.96,761.65,757.47,764.23,7999.76,-8000.00,2486.33,117.67,-250.14,250.13,-40.84
22411,772.41,765.05,761.66,757.53,764.16,7999.76,-8000.00,2486.33,117.67,-250.14,250.13,-40.81
22447,772.06,765.12,761.78,757.54,764.12,7999.76,-8000.00,2486.33,117.67,-250.14,250.13,-37.38
22482,771.88,765.21,761.85,757.64,764.15,7999.76,-8000.00,2486.33,117.67,-250.14,250.13,-37.19
22519,771.69,765.31,761.88,757.62,764.12,7999.76,-8000.00,2486.33,117.67,-250.14,250.13,-36.31
22555,771.75,765.35,761.89,757.67,764.17,7999.76,-8000.00,2486.33,117.67,-250.14,250.13,-37.18
22594,771.64,765.38,761.85,757.67,764.14,7999.76,-8000.00,2486.33,117.67,-250.14,250.13,-38.15
22630,771.54,765.36,761.94,757.68,764.13,7999.76,-8000.00,2486.33,117.67,-250.14,250.13,-35.56
22667,771.39,765.46,762.01,757.66,764.13,7999.76,-8000.00,2486.33,117.67,-250.14,250.13,-33.77
22703,771.28,765.54,762.13,757.67,764.15,7999.76,-8000.00,2486.33,117.67,-250.14,250.13,-31.40
22739,771.14,765.48,762.30,757.77,764.17,7999.76,-8000.00,2486.33,117.67,-250.14,250.13,-27.61
22778,771.20,765.45,762.49,757.79,764.23,7999.76,-8000.00,2486.33,117.67,-250.14,250.13,-22.96
22814,771.29,765.34,762.72,757.73,764.27,7999.76,-8000.00,2486.33,117.67,-250.14,250.13,-15.83
22850,771.33,765.33,762.98,757.78,764.35,7999.76,-8000.00,2486.33,117.67,-250.14,250.13,-10.12
22887,771.35,765.30,763.18,757.76,764.40,7999.76,-8000.00,2486.33,117.67,-250.14,250.13,-4.65
22923,771.50,765.29,763.18,757.62,764.40,7999.76,-8000.00,2486.33,117.67,-250.14,250.13,-3.00
22959,771.58,765.23,763.31,757.65,764.44,7999.76,-8000.00,2486.33,117.67,-250.14,250.13,0.05
22998,771.77,765.21,763.18,757.72,764.47,7999.76,-8000.00,2486.33,117.67,-250.14,250.13,-4.90
23034,771.91,765.25,763.11,757.60,764.47,7999.76,-8000.00,2486.33,117.67,-250.14,250.13,-5.61
23070,771.83,765.20,762.90,757.69,764.41,7999.76,-8000.00,2486.33,117.67,-250.14,250.13,-11.51
23106,771.92,765.22,762.72,757.62,764.37,7999.76,-8000.00,2486.33,117.67,-250.14,250.13,-15.42
23143,771.96,765.31,762.54,757.64,764.36,7999.76,-8000.00,2486.33,117.67,-250.14,250.13,-21.06
23182,772.05,765.34,762.28,757.60,764.32,7999.76,-8000.00,2486.33,117.67,-250.14,250.13,-27.53
23218,772.06,765.42,762.08,757.73,764.32,7999.76,-8000.00,2486.33,117.67,-250.14,250.13,-35.20
23254,772.06,765.56,761.96,757.78,764.34,7999.76,-8000.00,2486.33,117.67,-250.14,250.13,-39.88
23290,771.86,765.54,762.00,757.76,764.29,7999.76,-8000.00,2486.33,117.67,-250.14,250.13,-37.79
23326,771.65,765.49,762.05,757.84,764.26,7999.76,-8000.00,2486.33,117.67,-250.14,250.13,-36.60
23362,771.66,765.46,762.06,757.76,764.24,7999.76,-8000.00,2486.33,117.67,-250.14,250.13,-34.84
23401,771.65,765.57,762.10,757.82,764.29,7999.76,-8000.00,2486.33,117.67,-250.14,250.13,-35.58
23437,771.64,765.50,762.11,757.83,764.27,7999.76,-8000.00,2486.33,117.67,-250.14,250.13,-34.91
23474,771.66,765.55,762.09,757.77,764.27,7999.76,-8000.00,2486.33,117.67,-250.14,250.13,-35.16
23511,771.75,765.52,762.04,757.79,764.27,7999.76,-8000.00,2486.33,117.67,-250.14,250.13,-36.71
23547,771.81,765.64,762.11,757.80,764.34,7999.76,-8000.00,2486.33,117.67,-250.14,250.13,-36.21
23591,771.78,765.52,762.12,757.79,764.30,7999.76,-8000.00,2486.33,117.67,-250.14,250.13,-34.80
23627,771.89,765.49,762.04,757.80,764.30,7999.76,-8000.00,2486.33,117.67,-250.14,250.13,-36.94
23663,771.88,765.50,762.08,757.79,764.31,7999.76,-8000.00,2486.33,117.67,-250.14,250.13,-36.17
23699,772.04,765.48,762.05,757.77,764.34,7999.76,-8000.00,2486.33,117.67,-250.14,250.13,-36.82
23735,771.98,765.47,762.00,757.70,764.29,7999.76,-8000.00,2486.33,117.67,-250.14,250.13,-36.72
23776,771.94,765.44,762.02,757.71,764.28,7999.76,-8000.00,2486.33,117.67,-250.14,250.13,-36.14
23812,771.99,765.50,762.10,757.69,764.32,7999.76,-8000.00,2486.33,117.67,-250.14,250.13,-34.33
23848,772.05,765.50,762.04,757.73,764.33,7999.76,-8000.00,2486.33,117.67,-250.14,250.13,-36.68
23884,771.99,765.53,762.08,757.74,764.34,7999.76,-8000.00,2486.33,117.67,-250.14,250.13,-35.82
23920,771.93,765.57,762.07,757.63,764.30,7999.76,-8000.00,2486.33,117.67,-250.14,250.13,-34.76
23957,771.82,765.57,762.06,757.66,764.28,7999.76,-8000.00,2486.33,117.67,-250.14,250.13,-34.84
23995,771.70,765.65,762.15,757.78,764.32,7999.76,-8000.00,2486.33,117.67,-250.14,250.13,-34.79
24031,771.61,765.71,762.15,757.88,764.34,7999.76,-8000.00,2486.33,117.67,-250.14,250.13,-36.30
24067,771.55,765.77,762.14,757.82,764.32,7999.76,-8000.00,2486.33,117.67,-250.14,250.13,-35.75
24103,771.47,765.72,762.21,757.81,764.30,7999.76,-8000.00,2486.33,117.67,-250.14,250.13,-33.47
24139,771.43,765.83,762.24,757.92,764.35,7999.76,-8000.00,2486.33,117.67,-250.14,250.13,-34.93
24178,771.42,765.82,762.23,757.85,764.33,7999.76,-8000.00,2486.33,117.67,-250.14,250.13,-34.10
24214,771.41,765.90,762.22,757.80,764.33,7999.76,-8000.00,2486.33,117.67,-250.14,250.13,-34.17
24250,771.39,765.82,762.16,757.87,764.31,7999.76,-8000.00,2486.33,117.67,-250.14,250.13,-36.08
24287,771.35,765.79,762.19,757.84,764.29,7999.76,-8000.00,2486.33,117.67,-250.14,250.13,-34.57
24323,771.33,765.72,762.15,757.84,764.26,7999.76,-8000.00,2486.33,117.67,-250.14,250.13,-34.89
24362,771.36,765.79,762.29,757.83,764.32,7999.76,-8000.00,2486.33,117.67,-250.14,250.13,-32.00
24399,771.34,765.77,762.23,757.91,764.31,7999.76,-8000.00,2486.33,117.67,-250.14,250.13,-34.39
24435,771.30,765.77,762.20,757.81,764.27,7999.76,-8000.00,2486.33,117.67,-250.14,250.13,-33.50
24471,771.28,765.78,762.26,757.77,764.27,7999.76,-8000.00,2486.33,117.67,-250.14,250.13,-31.46
24508,771.25,765.67,762.19,757.81,764.23,7999.76,-8000.00,2486.33,117.67,-250.14,250.13,-32.58
24544,771.27,765.69,762.16,757.75,764.22,7999.76,-8000.00,2486.33,117.67,-250.14,250.13,-32.71
24583,771.17,765.69,762.23,757.79,764.22,7999.76,-8000.00,2486.33,117.67,-250.14,250.13,-31.46
24619,771.30,765.77,762.18,757.80,764.26,7999.76,-8000.00,2486.33,117.67,-250.14,250.13,-33.81
24655,771.25,765.68,762.17,757.87,764.24,7999.76,-8000.00,2486.33,117.67,-250.14,250.13,-34.06
24692,771.25,765.66,762.23,757.75,764.22,7999.76,-8000.00,2486.33,117.67,-250.14,250.13,-30.70
24728,771.23,765.71,762.16,757.73,764.21,7999.76,-8000.00,2486.33,117.67,-250.14,250.13,-32.62
24767,771.28,765.71,762.20,757.77,764.24,7999.76,-8000.00,2486.33,117.67,-250.14,250.13,-32.36
24803,771.31,765.67,762.18,757.76,764.23,7999.76,-8000.00,2486.33,117.67,-250.14,250.13,-32.38
24839,771.42,765.63,762.20,757.66,764.23,7999.76,-8000.00,2486.33,117.67,-250.14,250.13,-30.45
24876,771.50,765.70,762.03,757.81,764.26,7999.76,-8000.00,2486.33,117.67,-250.14,250.13,-37.81
24912,771.65,765.65,761.98,757.75,764.26,7999.76,-8000.00,2486.33,117.67,-250.14,250.13,-38.22
24951,771.66,765.70,761.89,757.71,764.24,7999.76,-8000.00,2486.33,117.67,-250.14,250.13,-40.30
24987,771.81,765.61,761.97,757.67,764.26,7999.76,-8000.00,2486.33,117.67,-250.14,250.13,-37.65
25024,771.93,765.48,761.86,757.72,764.25,7999.76,-8000.00,2486.33,117.67,-250.14,250.13,-40.37
25060,772.11,765.51,761.87,757.67,764.29,7999.76,-8000.00,2486.33,117.67,-250.14,250.13,-40.26
25096,772.15,765.43,761.81,757.68,764.27,7999.76,-8000.00,2486.33,117.67,-250.14,250.13,-41.39
25133,772.13,765.35,761.86,757.64,764.25,7999.76,-8000.00,2486.33,117.67,-250.14,250.13,-39.06
25172,772.21,765.38,761.89,757.61,764.27,7999.76,-8000.00,2486.33,117.67,-250.14,250.13,-38.19
25208,772.35,765.29,761.81,757.59,764.26,7999.76,-8000.00,2486.33,117.67,-250.14,250.13,-39.62
25244,772.56,765.32,761.89,757.63,764.35,7999.76,-8000.00,2486.33,117.67,-250.14,250.13,-39.30
25281,772.69,765.29,761.82,757.52,764.33,7999.76,-8000.00,2486.33,117.67,-250.14,250.13,-39.77
25317,772.61,765.23,761.79,757.50,764.28,7999.76,-8000.00,2486.33,117.67,-250.14,250.13,-39.29
25356,772.81,765.19,761.79,757.54,764.33,7999.76,-8000.00,2486.33,117.67,-250.14,250.13,-40.17
25392,772.79,765.31,761.84,757.63,764.39,7999.76,-8000.00,2486.33,117.67,-250.14,250.13,-41.09
25428,772.77,765.27,761.84,757.47,764.34,7999.76,-8000.00,2486.33,117.67,-250.14,250.13,-38.40
25464,772.70,765.23,761.87,757.49,764.32,7999.76,-8000.00,2486.33,117.67,-250.14,250.13,-37.60
25500,772.70,765.28,761.78,757.55,764.33,7999.76,-8000.00,2486.33,117.67,-250.14,250.13,-40.85
25540,772.66,765.14,761.79,757.49,764.27,7999.76,-8000.00,2486.33,117.67,-250.14,250.13,-38.56
25576,772.53,765.14,761.84,757.48,764.25,7999.76,-8000.00,2486.33,117.67,-250.14,250.13,-36.76
25612,772.56,765.10,761.79,757.50,764.24,7999.76,-8000.00,2486.33,117.67,-250.14,250.13,-38.20
25648,772.62,765.11,761.85,757.52,764.27,7999.76,-8000.00,2486.33,117.67,-250.14,250.13,-37.19
25684,772.60,765.17,761.80,757.47,764.26,7999.76,-8000.00,2486.33,117.67,-250.14,250.13,-38.16
25720,772.65,765.19,761.80,757.50,764.29,7999.76,-8000.00,2486.33,117.67,-250.14,250.13,-38.87
25759,772.58,765.18,761.80,757.46,764.25,7999.76,-8000.00,2486.33,117.67,-250.14,250.13,-37.80
25795,772.54,765.12,761.74,757.53,764.23,7999.76,-8000.00,2486.33,117.67,-250.14,250.13,-39.81
25831,772.51,765.17,761.83,757.61,764.28,7999.76,-8000.00,2486.33,117.67,-250.14,250.13,-39.12
25868,772.47,765.18,761.79,757.55,764.25,7999.76,-8000.00,2486.33,117.67,-250.14,250.13,-39.11
25904,772.41,765.19,761.77,757.47,764.21,7999.76,-8000.00,2486.33,117.67,-250.14,250.13,-38.30
25943,772.37,765.20,761.78,757.53,764.22,7999.76,-8000.00,2486.33,117.67,-250.14,250.13,-38.74
25979,772.46,765.30,761.79,757.57,764.28,7999.76,-8000.00,2486.33,117.67,-250.14,250.13,-40.48
26016,772.47,765.30,761.80,757.65,764.30,7999.76,-8000.00,2486.33,117.67,-250.14,250.13,-41.32
26052,772.59,765.24,761.79,757.69,764.33,7999.76,-8000.00,2486.33,117.67,-250.14,250.13,-42.03
26088,772.76,765.20,761.78,757.54,764.32,7999.76,-8000.00,2486.33,117.67,-250.14,250.13,-40.42
26127,772.77,765.25,761.84,757.54,764.35,7999.76,-8000.00,2486.33,117.67,-250.14,250.13,-39.39
26164,772.77,765.37,761.74,757.46,764.33,7999.76,-8000.00,2486.33,117.67,-250.14,250.13,-41.61
26200,772.82,765.29,761.73,757.54,764.35,7999.76,-8000.00,2486.33,117.67,-250.14,250.13,-42.62
26236,772.73,765.29,761.82,757.53,764.34,7999.76,-8000.00,2486.33,117.67,-250.14,250.13,-39.93
26273,772.79,765.30,761.74,757.47,764.32,7999.76,-8000.00,2486.33,117.67,-250.14,250.13,-41.29
26309,772.77,765.27,761.81,757.52,764.34,7999.76,-8000.00,2486.33,117.67,-250.14,250.13,-39.76
26348,772.72,765.27,761.78,757.55,764.33,7999.76,-8000.00,2486.33,117.67,-250.14,250.13,-41.05
26385,772.76,765.35,761.85,757.59,764.39,7999.76,-8000.00,2486.33,117.67,-250.14,250.13,-40.64
26421,772.82,765.32,761.83,757.56,764.38,7999.76,-8000.00,2486.33,117.67,-250.14,250.13,-40.66
26457,772.80,765.33,761.82,757.60,764.39,7999.76,-8000.00,2486.33,117.67,-250.14,250.13,-41.29
26494,772.76,765.37,761.85,757.57,764.39,7999.76,-8000.00,2486.33,117.67,-250.14,250.13,-40.36
26533,772.85,765.31,761.93,757.62,764.43,7999.76,-8000.00,2486.33,117.67,-250.14,250.13,-39.03
26569,772.87,765.31,761.81,757.62,764.40,7999.76,-8000.00,2486.33,117.67,-250.14,250.13,-42.26
26605,772.88,765.28,761.77,757.63,764.39,7999.76,-8000.00,2486.33,117.67,-250.14,250.13,-43.07
26642,772.91,765.31,761.82,757.55,764.40,7999.76,-8000.00,2486.33,117.67,-250.14,250.13,-41.10
26678,772.87,765.24,761.78,757.57,764.37,7999.76,-8000.00,2486.33,117.67,-250.14,250.13,-41.40
26717,772.90,765.34,761.80,757.59,764.41,7999.76,-8000.00,2486.33,117.67,-250.14,250.13,-42.27
26754,772.82,765.35,761.83,757.58,764.39,7999.76,-8000.00,2486.33,117.67,-250.14,250.13,-41.23
26790,772.81,765.26,761.84,757.63,764.38,7999.76,-8000.00,2486.33,117.67,-250.14,250.13,-40.88
26826,772.74,765.31,761.83,757.50,764.34,7999.76,-8000.00,2486.33,117.67,-250.14,250.13,-39.38
26862,772.62,765.29,761.82,757.60,764.33,7999.76,-8000.00,2486.33,117.67,-250.14,250.13,-40.52
26899,772.53,765.30,761.86,757.54,764.31,7999.76,-8000.00,2486.33,117.67,-250.14,250.13,-38.31
26938,772.54,765.32,761.79,757.58,764.31,7999.76,-8000.00,2486.33,117.67,-250.14,250.13,-40.81
26974,772.42,765.25,761.82,757.61,764.27,7999.76,-8000.00,2486.33,117.67,-250.14,250.13,-39.82
27010,772.18,765.29,761.82,757.56,764.21,7999.76,-8000.00,2486.33,117.67,-250.14,250.13,-38.44
27046,772.29,765.25,761.86,757.60,764.25,7999.76,-8000.00,2486.33,117.67,-250.14,250.13,-38.06
27083,772.46,765.27,761.76,757.57,764.27,7999.76,-8000.00,2486.33,117.67,-250.14,250.13,-40.91
27122,772.75,765.23,761.75,757.55,764.32,7999.76,-8000.00,2486.33,117.67,-250.14,250.13,-41.43
27158,772.84,765.18,761.75,757.55,764.33,7999.76,-8000.00,2486.33,117.67,-250.14,250.13,-41.40
27194,773.16,765.10,761.65,757.57,764.37,7999.76,-8000.00,2486.33,117.67,-250.14,250.13,-44.65
27230,773.29,765.12,761.56,757.51,764.37,7999.76,-8000.00,2486.33,117.67,-250.14,250.13,-46.53
27266,773.28,765.05,761.53,757.46,764.33,7999.76,-8000.00,2486.33,117.67,-250.14,250.13,-46.03
27306,773.58,765.01,761.55,757.45,764.40,7999.76,-8000.00,2486.33,117.67,-250.14,250.13,-46.18
27342,774.00,765.02,761.53,757.46,764.50,7999.76,-8000.00,2486.33,117.67,-250.14,250.13,-48.28
27378,773.85,764.80,761.47,757.41,764.38,7999.76,-8000.00,2486.33,117.67,-250.14,250.13,-46.82
27415,773.88,764.80,761.37,757.42,764.37,7999.76,-8000.00,2486.33,117.67,-250.14,250.13,-49.59
27451,773.83,764.75,761.37,757.42,764.34,7999.76,-8000.00,2486.33,117.67,-250.14,250.13,-48.84
27487,773.65,764.75,761.38,757.37,764.29,7999.76,-8000.00,2486.33,117.67,-250.14,250.13,-47.08
27526,774.01,764.74,761.37,757.35,764.37,7999.76,-8000.00,2486.33,117.67,-250.14,250.13,-48.44
27563,774.00,764.82,761.41,757.38,764.40,7999.76,-8000.00,2486.33,117.67,-250.14,250.13,-48.55
27599,773.57,764.81,761.40,757.36,764.28,7999.76,-8000.00,2486.33,117.67,-250.14,250.13,-46.72
27635,773.55,764.72,761.39,757.40,764.26,7999.76,-8000.00,2486.33,117.67,-250.14,250.13,-46.77
27672,773.79,764.82,761.42,757.34,764.34,7999.76,-8000.00,2486.33,117.67,-250.14,250.13,-46.99
27711,774.12,764.91,761.45,757.42,764.47,7999.76,-8000.00,2486.33,117.67,-250.14,250.13,-49.17
27747,773.60,764.78,761.39,757.38,764.29,7999.76,-8000.00,2486.33,117.67,-250.14,250.13,-47.35
27783,773.37,764.81,761.47,757.31,764.24,7999.76,-8000.00,2486.33,117.67,-250.14,250.13,-43.58
27819,773.57,764.84,761.42,757.31,764.29,7999.76,-8000.00,2486.33,117.67,-250.14,250.13,-45.89
27855,773.94,764.91,761.46,757.36,764.42,7999.76,-8000.00,2486.33,117.67,-250.14,250.13,-47.47
27894,773.61,764.83,761.46,757.32,764.31,7999.76,-8000.00,2486.33,117.67,-250.14,250.13,-45.05
27930,773.17,764.87,761.38,757.39,764.20,7999.76,-8000.00,2486.33,117.67,-250.14,250.13,-46.95
27967,772.91,764.85,761.44,757.40,764.15,7999.76,-8000.00,2486.33,117.67,-250.14,250.13,-44.57
28003,773.36,765.05,761.52,757.45,764.34,7999.76,-8000.00,2486.33,117.67,-250.14,250.13,-46.46
28039,773.56,765.15,761.48,757.59,764.45,7999.76,-8000.00,2486.33,117.67,-250.14,250.13,-50.96
28075,773.05,765.21,761.53,757.56,764.34,7999.76,-8000.00,2486.33,117.67,-250.14,250.13,-47.84
28114,772.10,765.21,761.60,757.49,764.10,7999.76,-8000.00,2486.33,117.67,-250.14,250.13,-42.01
28150,771.50,765.35,761.57,757.60,764.00,7999.76,-8000.00,2486.33,117.67,-250.14,250.13,-43.24
28186,771.95,765.48,761.68,757.68,764.20,7999.76,-8000.00,2486.33,117.67,-250.14,250.13,-44.29
28222,772.12,765.53,761.77,757.72,764.29,7999.76,-8000.00,2486.33,117.67,-250.14,250.13,-43.62
28259,771.55,765.53,761.73,757.74,764.14,7999.76,-8000.00,2486.33,117.67,-250.14,250.13,-42.96
28298,771.54,765.57,761.76,757.75,764.15,7999.76,-8000.00,2486.33,117.67,-250.14,250.13,-42.62
28334,771.82,765.71,761.81,757.84,764.29,7999.76,-8000.00,2486.33,117.67,-250.14,250.13,-45.03
28371,771.42,765.61,761.77,757.80,764.15,7999.76,-8000.00,2486.33,117.67,-250.14,250.13,-43.18
28407,771.19,765.68,761.76,757.79,764.10,7999.76,-8000.00,2486.33,117.67,-250.14,250.13,-43.11
28443,771.50,765.67,761.73,757.78,764.17,7999.76,-8000.00,2486.33,117.67,-250.14,250.13,-44.51
28482,772.26,765.88,761.87,757.87,764.47,7999.76,-8000.00,2486.33,117.67,-250.14,250.13,-46.88
28518,771.42,765.81,761.91,757.86,764.25,7999.76,-8000.00,2486.33,117.67,-250.14,250.13,-42.25
28554,770.95,765.80,761.85,757.83,764.11,7999.76,-8000.00,2486.33,117.67,-250.14,250.13,-41.48
28590,771.11,765.82,761.76,757.93,764.16,7999.76,-8000.00,2486.33,117.67,-250.14,250.13,-46.03
28626,771.37,765.82,761.83,757.86,764.22,7999.76,-8000.00,2486.33,117.67,-250.14,250.13,-43.90
28662,772.03,765.90,761.78,757.91,764.41,7999.76,-8000.00,2486.33,117.67,-250.14,250.13,-49.09
28701,772.05,765.81,761.79,757.87,764.38,7999.76,-8000.00,2486.33,117.67,-250.14,250.13,-47.40
28737,771.60,765.71,761.77,757.72,764.20,7999.76,-8000.00,2486.33,117.67,-250.14,250.13,-43.47
28773,771.41,765.64,761.72,757.70,764.12,7999.76,-8000.00,2486.33,117.67,-250.14,250.13,-43.20
28809,772.01,765.71,761.82,757.75,764.32,7999.76,-8000.00,2486.33,117.67,-250.14,250.13,-44.00
28845,772.04,765.78,761.71,757.79,764.33,7999.76,-8000.00,2486.33,117.67,-250.14,250.13,-48.08
28884,771.84,765.65,761.77,757.72,764.24,7999.76,-8000.00,2486.33,117.67,-250.14,250.13,-43.55
28920,771.89,765.52,761.71,757.65,764.19,7999.76,-8000.00,2486.33,117.67,-250.14,250.13,-43.40
28956,772.52,765.60,761.66,757.64,764.35,7999.76,-8000.00,2486.33,117.67,-250.14,250.13,-47.15
28992,772.30,765.57,761.67,757.72,764.31,7999.76,-8000.00,2486.33,117.67,-250.14,250.13,-47.19
29028,771.92,765.47,761.72,757.66,764.19,7999.76,-8000.00,2486.33,117.67,-250.14,250.13,-42.78
29067,772.31,765.51,761.67,757.54,764.26,7999.76,-8000.00,2486.33,117.67,-250.14,250.13,-44.17
29103,772.59,765.61,761.69,757.72,764.40,7999.76,-8000.00,2486.33,117.67,-250.14,250.13,-47.87
29139,772.12,765.54,761.66,757.61,764.23,7999.76,-8000.00,2486.33,117.67,-250.14,250.13,-44.85
29176,772.10,765.48,761.60,757.60,764.19,7999.76,-8000.00,2486.33,117.67,-250.14,250.13,-45.86
29212,772.09,765.51,761.69,757.62,764.23,7999.76,-8000.00,2486.33,117.67,-250.14,250.13,-43.81
29249,771.73,765.46,761.66,757.70,764.14,7999.76,-8000.00,2486.33,117.67,-250.14,250.13,-44.25
29288,771.95,765.55,761.70,757.62,764.21,7999.76,-8000.00,2486.33,117.67,-250.14,250.13,-43.39
29324,772.12,765.55,761.55,757.64,764.22,7999.76,-8000.00,2486.33,117.67,-250.14,250.13,-48.07
29360,771.93,765.48,761.67,757.66,764.18,7999.76,-8000.00,2486.33,117.67,-250.14,250.13,-44.24
29396,771.74,765.35,761.57,757.67,764.08,7999.76,-8000.00,2486.33,117.67,-250.14,250.13,-45.32
29432,772.05,765.42,761.61,757.58,764.16,7999.76,-8000.00,2486.33,117.67,-250.14,250.13,-44.66
29471,772.58,765.35,761.60,757.63,764.29,7999.76,-8000.00,2486.33,117.67,-250.14,250.13,-46.71
29508,772.31,765.35,761.45,757.55,764.17,7999.76,-8000.00,2486.33,117.67,-250.14,250.13,-48.43
29544,771.97,765.28,761.49,757.61,764.08,7999.76,-8000.00,2486.33,117.67,-250.14,250.13,-46.46
29580,771.80,765.29,761.52,757.57,764.05,7999.76,-8000.00,2486.33,117.67,-250.14,250.13,-44.92
29616,771.82,765.32,761.47,757.62,764.06,7999.76,-8000.00,2486.33,117.67,-250.14,250.13,-46.96
29655,772.41,765.50,761.50,757.67,764.27,7999.76,-8000.00,2486.33,117.67,-250.14,250.13,-50.50
29691,771.81,765.51,761.56,757.66,764.13,7999.76,-8000.00,2486.33,117.67,-250.14,250.13,-46.94
29728,771.28,765.47,761.55,757.64,763.99,7999.76,-8000.00,2486.33,117.67,-250.14,250.13,-44.60
29764,770.95,765.55,761.60,757.75,763.96,7999.76,-8000.00,2486.33,117.67,-250.14,250.13,-44.70
29800,771.11,765.65,761.68,757.78,764.06,7999.76,-8000.00,2486.33,117.67,-250.14,250.13,-44.36
29837,771.13,765.88,761.74,757.85,764.15,7999.76,-8000.00,2486.33,117.67,-250.14,250.13,-45.76
29876,770.23,766.00,761.75,757.96,763.98,7999.76,-8000.00,2486.33,117.67,-250.14,250.13,-44.98
29912,769.52,766.13,761.81,757.99,763.86,7999.76,-8000.00,2486.33,117.67,-250.14,250.13,-42.70
29948,768.98,766.28,761.89,758.02,763.80,7999.76,-8000.00,2486.33,117.67,-250.14,250.13,-40.49
29985,769.21,766.57,761.92,758.09,763.95,7999.76,-8000.00,2486.33,117.67,-250.14,250.13,-43.75
30021,769.08,766.62,761.99,758.16,763.96,7999.76,-8000.00,2486.33,117.67,-250.14,250.13,-43.03
30060,768.60,766.58,761.93,758.08,763.80,7999.76,-8000.00,2486.33,117.67,-250.14,250.13,-41.23
30096,768.27,766.67,761.95,758.14,763.76,7999.76,-8000.00,2486.33,117.67,-250.14,250.13,-41.30
30132,768.51,766.59,761.98,758.17,763.81,7999.76,-8000.00,2486.33,117.67,-250.14,250.13,-41.15
30169,769.11,766.68,762.01,758.13,763.98,7999.76,-8000.00,2486.33,117.67,-250.14,250.13,-42.59
30204,768.99,766.62,761.93,758.21,763.94,7999.76,-8000.00,2486.33,117.67,-250.14,250.13,-45.08
30244,768.69,766.48,761.96,758.01,763.78,7999.76,-8000.00,2486.33,117.67,-250.14,250.13,-39.20
30280,768.85,766.45,761.95,758.07,763.83,7999.76,-8000.00,2486.33,117.67,-250.14,250.13,-40.59
30316,769.11,766.44,761.90,758.04,763.87,7999.76,-8000.00,2486.33,117.67,-250.14,250.13,-42.13
30352,769.78,766.47,761.93,757.99,764.04,7999.76,-8000.00,2486.33,117.67,-250.14,250.13,-43.40
30388,770.07,766.37,761.86,758.04,764.08,7999.76,-8000.00,2486.33,117.67,-250.14,250.13,-46.06
30424,769.68,766.24,761.81,758.02,763.94,7999.76,-8000.00,2486.33,117.67,-250.14,250.13,-44.40
30463,769.60,766.24,761.83,757.87,763.88,7999.76,-8000.00,2486.33,117.67,-250.14,250.13,-41.38
30499,769.96,766.17,761.81,757.87,763.95,7999.76,-8000.00,2486.33,117.67,-250.14,250.13,-42.77
30535,770.52,766.24,761.84,757.96,764.14,7999.76,-8000.00,2486.33,117.67,-250.14,250.13,-45.75
30572,770.70,766.30,761.73,757.84,764.14,7999.76,-8000.00,2486.33,117.67,-250.14,250.13,-47.89
30608,770.21,766.10,761.77,757.85,763.98,7999.76,-8000.00,2486.33,117.67,-250.14,250.13,-43.65
30647,770.26,766.10,761.75,757.83,763.99,7999.76,-8000.00,2486.33,117.67,-250.14,250.13,-44.17
30683,770.51,766.14,761.77,757.83,764.06,7999.76,-8000.00,2486.33,117.67,-250.14,250.13,-44.65
30720,770.46,766.01,761.80,757.84,764.03,7999.76,-8000.00,2486.33,117.67,-250.14,250.13,-42.85
30756,771.62,766.16,761.75,757.89,764.36,7999.76,-8000.00,2486.33,117.67,-250.14,250.13,-50.00
30792,772.78,766.17,761.82,757.87,764.66,7999.76,-8000.00,2486.33,117.67,-250.14,250.13,-52.24
30832,771.04,765.94,761.70,757.77,764.11,7999.76,-8000.00,2486.33,117.67,-250.14,250.13,-45.90
30868,770.57,765.81,761.64,757.69,763.93,7999.76,-8000.00,2486.33,117.67,-250.14,250.13,-43.44
30904,770.79,765.95,761.73,757.82,764.07,7999.76,-8000.00,2486.33,117.67,-250.14,250.13,-44.92
30940,770.51,766.09,761.80,757.94,764.08,7999.76,-8000.00,2486.33,117.67,-250.14,250.13,-45.06
30977,771.06,766.21,761.85,758.00,764.28,7999.76,-8000.00,2486.33,117.67,-250.14,250.13,-47.74
31013,770.97,766.17,761.87,757.97,764.25,7999.76,-8000.00,2486.33,117.67,-250.14,250.13,-46.01
31052,770.37,766.07,761.80,757.96,764.05,7999.76,-8000.00,2486.33,117.67,-250.14,250.13,-44.84
31089,770.27,766.03,761.73,757.89,763.98,7999.76,-8000.00,2486.33,117.67,-250.14,250.13,-44.88
31125,770.32,766.03,761.74,757.91,764.00,7999.76,-8000.00,2486.33,117.67,-250.14,250.13,-45.05
31162,771.11,766.05,761.80,757.85,764.20,7999.76,-8000.00,2486.33,117.67,-250.14,250.13,-45.56
31198,771.81,766.11,761.76,757.93,764.40,7999.76,-8000.00,2486.33,117.67,-250.14,250.13,-50.53
31237,770.96,765.97,761.72,757.92,764.14,7999.76,-8000.00,2486.33,117.67,-250.14,250.13,-47.30
31273,770.66,765.82,761.69,757.83,764.00,7999.76,-8000.00,2486.33,117.67,-250.14,250.13,-44.75
31310,770.70,765.94,761.74,757.84,764.05,7999.76,-8000.00,2486.33,117.67,-250.14,250.13,-44.61
31346,770.89,766.01,761.76,757.84,764.12,7999.76,-8000.00,2486.33,117.67,-250.14,250.13,-45.50
31382,771.59,766.12,761.75,757.84,764.32,7999.76,-8000.00,2486.33,117.67,-250.14,250.13,-48.98
31421,771.46,766.05,761.71,757.87,764.27,7999.76,-8000.00,2486.33,117.67,-250.14,250.13,-49.16
31458,770.46,765.91,761.64,757.88,763.97,7999.76,-8000.00,2486.33,117.67,-250.14,250.13,-46.62
31494,770.27,766.00,761.77,757.84,763.97,7999.76,-8000.00,2486.33,117.67,-250.14,250.13,-42.91
31530,770.49,766.07,761.83,757.92,764.08,7999.76,-8000.00,2486.33,117.67,-250.14,250.13,-43.84
31567,770.60,766.18,761.80,757.97,764.14,7999.76,-8000.00,2486.33,117.67,-250.14,250.13,-46.76
31603,770.45,766.20,761.78,757.99,764.10,7999.76,-8000.00,2486.33,117.67,-250.14,250.13,-47.11
31642,770.20,766.17,761.74,758.00,764.03,7999.76,-8000.00,2486.33,117.67,-250.14,250.13,-47.13
31678,769.67,766.17,761.77,758.02,763.91,7999.76,-8000.00,2486.33,117.67,-250.14,250.13,-44.76
31714,769.31,766.30,761.81,758.02,763.86,7999.76,-8000.00,2486.33,117.67,-250.14,250.13,-43.64
31750,769.20,766.42,761.88,758.09,763.90,7999.76,-8000.00,2486.33,117.67,-250.14,250.13,-43.56
31786,769.33,766.48,761.94,758.18,763.98,7999.76,-8000.00,2486.33,117.67,-250.14,250.13,-44.20
31825,769.33,766.54,761.94,758.10,763.98,7999.76,-8000.00,2486.33,117.67,-250.14,250.13,-43.60
31861,768.97,766.47,761.90,758.12,763.86,7999.76,-8000.00,2486.33,117.67,-250.14,250.13,-43.12
31897,768.52,766.51,761.91,758.10,763.76,7999.76,-8000.00,2486.33,117.67,-250.14,250.13,-41.32
31933,768.70,766.62,761.96,758.15,763.86,7999.76,-8000.00,2486.33,117.67,-250.14,250.13,-42.29
31969,769.10,766.68,761.98,758.18,763.99,7999.76,-8000.00,2486.33,117.67,-250.14,250.13,-44.15
32007,769.03,766.65,761.91,758.20,763.95,7999.76,-8000.00,2486.33,117.67,-250.14,250.13,-45.56
32044,768.55,766.70,761.98,758.16,763.85,7999.76,-8000.00,2486.33,117.67,-250.14,250.13,-42.20
32080,768.20,766.75,762.05,758.16,763.79,7999.76,-8000.00,2486.33,117.67,-250.14,250.13,-39.70
32117,768.40,766.82,762.06,758.28,763.89,7999.76,-8000.00,2486.33,117.67,-250.14,250.13,-42.27
32153,768.48,766.79,762.04,758.25,763.89,7999.76,-8000.00,2486.33,117.67,-250.14,250.13,-42.39
32189,768.45,766.79,762.05,758.31,763.90,7999.76,-8000.00,2486.33,117.67,-250.14,250.13,-43.03
32228,768.42,766.81,762.02,758.29,763.88,7999.76,-8000.00,2486.33,117.67,-250.14,250.13,-43.56
32264,768.46,766.78,762.03,758.28,763.89,7999.76,-8000.00,2486.33,117.67,-250.14,250.13,-42.94
32300,768.55,766.78,762.08,758.34,763.94,7999.76,-8000.00,2486.33,117.67,-250.14,250.13,-42.99
32337,768.49,766.85,762.11,758.21,763.91,7999.76,-8000.00,2486.33,117.67,-250.14,250.13,-40.68
32373,768.50,766.87,762.04,758.33,763.93,7999.76,-8000.00,2486.33,117.67,-250.14,250.13,-44.31
32412,768.37,766.83,762.08,758.30,763.89,7999.76,-8000.00,2486.33,117.67,-250.14,250.13,-42.17
32448,768.34,766.84,762.09,758.24,763.88,7999.76,-8000.00,2486.33,117.67,-250.14,250.13,-41.08
32484,768.42,766.75,762.06,758.28,763.88,7999.76,-8000.00,2486.33,117.67,-250.14,250.13,-41.91
32520,768.49,766.82,762.04,758.27,763.91,7999.76,-8000.00,2486.33,117.67,-250.14,250.13,-42.96
32556,768.51,766.77,762.07,758.27,763.91,7999.76,-8000.00,2486.33,117.67,-250.14,250.13,-42.07
32595,768.55,766.76,762.09,758.26,763.91,7999.76,-8000.00,2486.33,117.67,-250.14,250.13,-41.33
32631,768.66,766.71,761.98,758.19,763.88,7999.76,-8000.00,2486.33,117.67,-250.14,250.13,-43.11
32668,768.75,766.65,762.05,758.18,763.91,7999.76,-8000.00,2486.33,117.67,-250.14,250.13,-40.86
32704,768.83,766.61,762.03,758.21,763.92,7999.76,-8000.00,2486.33,117.67,-250.14,250.13,-41.80
32740,769.06,766.56,762.00,758.14,763.94,7999.76,-8000.00,2486.33,117.67,-250.14,250.13,-41.85
32776,769.12,766.54,761.96,758.12,763.94,7999.76,-8000.00,2486.33,117.67,-250.14,250.13,-42.59
32815,769.22,766.47,761.95,758.19,763.96,7999.76,-8000.00,2486.33,117.67,-250.14,250.13,-43.91
32851,769.28,766.47,761.96,758.10,763.95,7999.76,-8000.00,2486.33,117.67,-250.14,250.13,-42.26
32887,769.28,766.48,761.94,758.02,763.93,7999.76,-8000.00,2486.33,117.67,-250.14,250.13,-41.76
32924,769.32,766.54,761.91,758.07,763.96,7999.76,-8000.00,2486.33,117.67,-250.14,250.13,-43.91
32960,769.28,766.51,761.93,758.11,763.96,7999.76,-8000.00,2486.33,117.67,-250.14,250.13,-43.60
32998,769.05,766.46,761.94,758.14,763.90,7999.76,-8000.00,2486.33,117.67,-250.14,250.13,-42.49
33035,769.07,766.54,761.96,758.13,763.93,7999.76,-8000.00,2486.33,117.67,-250.14,250.13,-42.71
33071,769.05,766.53,761.97,758.16,763.93,7999.76,-8000.00,2486.33,117.67,-250.14,250.13,-42.80
33108,769.20,766.54,761.99,758.17,763.98,7999.76,-8000.00,2486.33,117.67,-250.14,250.13,-42.98
33144,769.09,766.49,761.98,758.18,763.94,7999.76,-8000.00,2486.33,117.67,-250.14,250.13,-42.53
33183,769.06,766.57,762.06,758.15,763.96,7999.76,-8000.00,2486.33,117.67,-250.14,250.13,-40.82
33219,768.95,766.64,762.06,758.21,763.96,7999.76,-8000.00,2486.33,117.67,-250.14,250.13,-41.71
33255,768.89,766.67,762.11,758.27,763.98,7999.76,-8000.00,2486.33,117.67,-250.14,250.13,-41.60
33291,768.70,766.68,762.13,758.28,763.95,7999.76,-8000.00,2486.33,117.67,-250.14,250.13,-40.63
33327,768.87,766.75,762.17,758.27,764.01,7999.76,-8000.00,2486.33,117.67,-250.14,250.13,-40.57
33363,768.88,766.81,762.08,758.41,764.05,7999.76,-8000.00,2486.33,117.67,-250.14,250.13,-45.29
33402,768.94,766.73,762.13,758.29,764.02,7999.76,-8000.00,2486.33,117.67,-250.14,250.13,-41.75
33438,768.97,766.77,762.01,758.28,764.01,7999.76,-8000.00,2486.33,117.67,-250.14,250.13,-45.19
33473,769.19,766.83,762.01,758.25,764.07,7999.76,-8000.00,2486.33,117.67,-250.14,250.13,-45.95
33509,769.14,766.73,762.00,758.22,764.02,7999.76,-8000.00,2486.33,117.67,-250.14,250.13,-44.71
33545,769.25,766.77,761.92,758.20,764.04,7999.76,-8000.00,2486.33,117.67,-250.14,250.13,-47.12
33584,769.22,766.67,762.07,758.11,764.02,7999.76,-8000.00,2486.33,117.67,-250.14,250.13,-41.31
33620,769.30,766.69,762.01,758.17,764.04,7999.76,-8000.00,2486.33,117.67,-250.14,250.13,-44.11
33657,769.29,766.68,762.00,758.16,764.03,7999.76,-8000.00,2486.33,117.67,-250.14,250.13,-43.85
33693,769.41,766.56,762.02,758.11,764.02,7999.76,-8000.00,2486.33,117.67,-250.14,250.13,-42.25
33729,769.44,766.65,761.96,758.09,764.04,7999.76,-8000.00,2486.33,117.67,-250.14,250.13,-44.41
33768,769.43,766.57,761.99,758.04,764.01,7999.76,-8000.00,2486.33,117.67,-250.14,250.13,-42.15
33805,769.46,766.52,761.99,758.15,764.03,7999.76,-8000.00,2486.33,117.67,-250.14,250.13,-43.19
33841,769.41,766.43,761.95,758.10,763.97,7999.76,-8000.00,2486.33,117.67,-250.14,250.13,-42.86
33877,769.27,766.36,761.92,758.03,763.89,7999.76,-8000.00,2486.33,117.67,-250.14,250.13,-41.41
33913,769.20,766.38,761.89,758.03,763.87,7999.76,-8000.00,2486.33,117.67,-250.14,250.13,-42.16
33950,769.05,766.33,761.96,758.02,763.84,7999.76,-8000.00,2486.33,117.67,-250.14,250.13,-39.13
33989,769.03,766.30,761.87,757.98,763.79,7999.76,-8000.00,2486.33,117.67,-250.14,250.13,-40.54
34026,768.98,766.23,761.91,758.01,763.78,7999.76,-8000.00,2486.33,117.67,-250.14,250.13,-39.38
34062,768.84,766.33,761.91,758.00,763.77,7999.76,-8000.00,2486.33,117.67,-250.14,250.13,-39.42
34098,768.76,766.41,761.90,758.04,763.78,7999.76,-8000.00,2486.33,117.67,-250.14,250.13,-40.80
34134,768.74,766.40,761.90,758.05,763.77,7999.76,-8000.00,2486.33,117.67,-250.14,250.13,-40.80
34173,768.62,766.48,761.96,758.11,763.79,7999.76,-8000.00,2486.33,117.67,-250.14,250.13,-40.39
34210,768.65,766.53,762.00,758.11,763.82,7999.76,-8000.00,2486.33,117.67,-250.14,250.13,-39.84
34246,768.68,766.60,761.98,758.11,763.84,7999.76,-8000.00,2486.33,117.67,-250.14,250.13,-41.06
34282,768.73,766.62,762.05,758.06,763.86,7999.76,-8000.00,2486.33,117.67,-250.14,250.13,-38.84
34319,768.78,766.64,761.97,758.07,763.86,7999.76,-8000.00,2486.33,117.67,-250.14,250.13,-41.41
34358,768.95,766.50,761.98,758.10,763.88,7999.76,-8000.00,2486.33,117.67,-250.14,250.13,-40.96
34394,769.09,766.47,761.87,758.10,763.88,7999.76,-8000.00,2486.33,117.67,-250.14,250.13,-43.96
34430,769.22,766.39,761.88,758.00,763.87,7999.76,-8000.00,2486.33,117.67,-250.14,250.13,-41.92
34467,769.30,766.34,761.92,757.95,763.88,7999.76,-8000.00,2486.33,117.67,-250.14,250.13,-40.36
34503,769.46,766.31,761.85,757.94,763.89,7999.76,-8000.00,2486.33,117.67,-250.14,250.13,-42.00
34539,769.50,766.30,761.86,757.94,763.90,7999.76,-8000.00,2486.33,117.67,-250.14,250.13,-41.79
34578,769.44,766.29,761.80,757.94,763.87,7999.76,-8000.00,2486.33,117.67,-250.14,250.13,-43.03
34615,769.47,766.26,761.87,757.86,763.87,7999.76,-8000.00,2486.33,117.67,-250.14,250.13,-40.04
34651,769.57,766.20,761.77,757.92,763.87,7999.76,-8000.00,2486.33,117.67,-250.14,250.13,-43.34
34687,769.56,766.24,761.79,757.87,763.87,7999.76,-8000.00,2486.33,117.67,-250.14,250.13,-42.22
34724,769.46,766.17,761.72,757.89,763.81,7999.76,-8000.00,2486.33,117.67,-250.14,250.13,-43.47
34763,769.48,766.20,761.81,757.92,763.85,7999.76,-8000.00,2486.33,117.67,-250.14,250.13,-41.91
34799,769.43,766.21,761.74,757.92,763.83,7999.76,-8000.00,2486.33,117.67,-250.14,250.13,-43.63
34835,769.51,766.13,761.81,757.93,763.85,7999.76,-8000.00,2486.33,117.67,-250.14,250.13,-41.86
34871,769.55,766.15,761.76,757.88,763.83,7999.76,-8000.00,2486.33,117.67,-250.14,250.13,-42.46
34908,769.61,766.06,761.68,757.85,763.80,7999.76,-8000.00,2486.33,117.67,-250.14,250.13,-43.54
34947,769.73,766.00,761.73,757.86,763.83,7999.76,-8000.00,2486.33,117.67,-250.14,250.13,-42.35
34983,769.81,766.03,761.69,757.83,763.84,7999.76,-8000.00,2486.33,117.67,-250.14,250.13,-43.49
35019,769.97,765.93,761.75,757.90,763.89,7999.76,-8000.00,2486.33,117.67,-250.14,250.13,-42.74
35055,770.08,765.85,761.70,757.83,763.87,7999.76,-8000.00,2486.33,117.67,-250.14,250.13,-42.65
35091,770.17,765.91,761.67,757.86,763.90,7999.76,-8000.00,2486.33,117.67,-250.14,250.13,-44.76
35128,770.18,765.90,761.63,757.84,763.89,7999.76,-8000.00,2486.33,117.67,-250.14,250.13,-45.36
35166,770.26,765.91,761.70,757.78,763.91,7999.76,-8000.00,2486.33,117.67,-250.14,250.13,-43.11
35203,770.19,765.91,761.70,757.89,763.92,7999.76,-8000.00,2486.33,117.67,-250.14,250.13,-44.49
35239,770.07,766.01,761.67,757.90,763.92,7999.76,-8000.00,2486.33,117.67,-250.14,250.13,-45.63
35275,770.13,766.02,761.70,757.84,763.92,7999.76,-8000.00,2486.33,117.67,-250.14,250.13,-44.33
35312,769.97,766.16,761.72,757.89,763.94,7999.76,-8000.00,2486.33,117.67,-250.14,250.13,-45.20
35351,769.78,766.04,761.76,757.88,763.87,7999.76,-8000.00,2486.33,117.67,-250.14,250.13,-42.51
35387,769.79,766.08,761.75,757.90,763.88,7999.76,-8000.00,2486.33,117.67,-250.14,250.13,-43.20
35423,770.03,766.12,761.78,757.88,763.95,7999.76,-8000.00,2486.33,117.67,-250.14,250.13,-43.37
35460,769.95,766.08,761.78,757.94,763.94,7999.76,-8000.00,2486.33,117.67,-250.14,250.13,-43.83
35496,769.70,766.15,761.75,758.03,763.91,7999.76,-8000.00,2486.33,117.67,-250.14,250.13,-45.38
35535,769.50,766.25,761.77,757.96,763.87,7999.76,-8000.00,2486.33,117.67,-250.14,250.13,-44.01
35601,769.28,766.29,761.88,757.94,763.85,7999.76,-8000.00,2486.33,117.67,-250.14,250.13,-40.57
35866,768.75,766.52,761.80,758.07,763.79,7999.76,-8000.00,2486.33,117.67,-250.14,250.13,-44.49
36134,768.18,766.51,761.77,758.09,763.64,7999.76,-8000.00,2486.33,117.67,-250.14,250.13,-43.56
36395,768.17,766.48,761.81,758.13,763.65,7999.76,-8000.00,2486.33,117.67,-250.14,250.13,-42.76
36653,768.36,766.64,761.86,758.15,763.76,7999.76,-8000.00,2486.33,117.67,-250.14,250.13,-43.91
36836,768.41,766.47,761.79,757.98,763.66,7999.76,-8000.00,2486.33,117.67,-250.14,250.13,-41.92
36872,768.18,766.42,761.88,757.99,763.62,7999.76,-8000.00,2486.33,117.67,-250.14,250.13,-38.64
36908,768.46,766.32,761.83,758.07,763.67,7999.76,-8000.00,2486.33,117.67,-250.14,250.13,-41.19
36944,769.13,766.31,761.80,757.94,763.79,7999.76,-8000.00,2486.33,117.67,-250.14,250.13,-42.15
36980,769.52,766.23,761.68,758.01,763.86,7999.76,-8000.00,2486.33,117.67,-250.14,250.13,-46.96
37018,769.36,766.10,761.70,757.88,763.76,7999.76,-8000.00,2486.33,117.67,-250.14,250.13,-42.87
37054,769.57,766.02,761.68,757.85,763.78,7999.76,-8000.00,2486.33,117.67,-250.14,250.13,-43.10
37090,770.19,765.94,761.53,757.78,763.86,7999.76,-8000.00,2486.33,117.67,-250.14,250.13,-47.29
37126,770.29,765.73,761.52,757.75,763.82,7999.76,-8000.00,2486.33,117.67,-250.14,250.13,-45.90
37162,770.66,765.71,761.43,757.73,763.88,7999.76,-8000.00,2486.33,117.67,-250.14,250.13,-48.82
37201,771.67,765.80,761.36,757.81,764.16,7999.76,-8000.00,2486.33,117.67,-250.14,250.13,-55.91
37237,771.47,765.92,761.37,757.85,764.15,7999.76,-8000.00,2486.33,117.67,-250.14,250.13,-56.56
37273,770.59,765.74,761.38,757.77,763.87,7999.76,-8000.00,2486.33,117.67,-250.14,250.13,-50.56
37309,770.63,765.78,761.39,757.76,763.89,7999.76,-8000.00,2486.33,117.67,-250.14,250.13,-50.60
37345,771.17,765.94,761.42,757.82,764.09,7999.76,-8000.00,2486.33,117.67,-250.14,250.13,-54.05
37381,771.37,765.98,761.49,757.83,764.17,7999.76,-8000.00,2486.33,117.67,-250.14,250.13,-53.35
37419,771.29,765.83,761.38,757.77,764.07,7999.76,-8000.00,2486.33,117.67,-250.14,250.13,-53.73
37455,771.43,765.74,761.40,757.68,764.06,7999.76,-8000.00,2486.33,117.67,-250.14,250.13,-51.78
37490,771.66,765.76,761.34,757.66,764.11,7999.76,-8000.00,2486.33,117.67,-250.14,250.13,-53.91
37526,771.49,765.76,761.35,757.77,764.09,7999.76,-8000.00,2486.33,117.67,-250.14,250.13,-54.69
37562,771.38,765.75,761.35,757.71,764.05,7999.76,-8000.00,2486.33,117.67,-250.14,250.13,-53.28
37601,771.86,765.78,761.38,757.78,764.20,7999.76,-8000.00,2486.33,117.67,-250.14,250.13,-55.31
37636,771.73,765.74,761.32,757.77,764.14,7999.76,-8000.00,2486.33,117.67,-250.14,250.13,-56.13
37672,771.34,765.74,761.32,757.80,764.05,7999.76,-8000.00,2486.33,117.67,-250.14,250.13,-55.28
37708,771.11,765.77,761.35,757.71,763.98,7999.76,-8000.00,2486.33,117.67,-250.14,250.13,-52.47
37744,771.32,765.76,761.31,757.75,764.04,7999.76,-8000.00,2486.33,117.67,-250.14,250.13,-54.71
37783,771.42,765.94,761.39,757.86,764.15,7999.76,-8000.00,2486.33,117.67,-250.14,250.13,-56.19
37819,770.75,765.92,761.41,757.82,763.98,7999.76,-8000.00,2486.33,117.67,-250.14,250.13,-52.82
37855,770.17,766.02,761.49,757.88,763.89,7999.76,-8000.00,2486.33,117.67,-250.14,250.13,-50.42
37891,769.93,766.15,761.52,757.97,763.89,7999.76,-8000.00,2486.33,117.67,-250.14,250.13,-50.98
37927,769.76,766.20,761.54,757.97,763.87,7999.76,-8000.00,2486.33,117.67,-250.14,250.13,-50.35
37963,770.26,766.32,761.56,758.03,764.04,7999.76,-8000.00,2486.33,117.67,-250.14,250.13,-53.52
38001,769.68,766.28,761.61,758.00,763.89,7999.76,-8000.00,2486.33,117.67,-250.14,250.13,-49.62
38037,769.36,766.26,761.63,758.01,763.81,7999.76,-8000.00,2486.33,117.67,-250.14,250.13,-47.76
38073,769.38,766.45,761.62,758.07,763.88,7999.76,-8000.00,2486.33,117.67,-250.14,250.13,-50.63
38109,769.10,766.44,761.60,758.20,763.83,7999.76,-8000.00,2486.33,117.67,-250.14,250.13,-52.02
38145,769.17,766.51,761.74,758.14,763.89,7999.76,-8000.00,2486.33,117.67,-250.14,250.13,-48.51
38184,769.23,766.72,761.72,758.22,763.97,7999.76,-8000.00,2486.33,117.67,-250.14,250.13,-52.03
38220,768.60,766.52,761.64,758.28,763.76,7999.76,-8000.00,2486.33,117.67,-250.14,250.13,-51.19
38256,768.49,766.53,761.65,758.18,763.71,7999.76,-8000.00,2486.33,117.67,-250.14,250.13,-49.05
38292,768.56,766.60,761.66,758.16,763.74,7999.76,-8000.00,2486.33,117.67,-250.14,250.13,-49.26
38328,768.63,766.73,761.72,758.23,763.83,7999.76,-8000.00,2486.33,117.67,-250.14,250.13,-50.01
38367,768.57,766.84,761.81,758.34,763.89,7999.76,-8000.00,2486.33,117.67,-250.14,250.13,-50.16
38403,768.07,766.78,761.75,758.28,763.72,7999.76,-8000.00,2486.33,117.67,-250.14,250.13,-48.71
38439,767.82,766.85,761.73,758.27,763.67,7999.76,-8000.00,2486.33,117.67,-250.14,250.13,-48.68
38474,768.03,766.85,761.74,758.38,763.75,7999.76,-8000.00,2486.33,117.67,-250.14,250.13,-50.70
38511,768.14,767.00,761.82,758.35,763.83,7999.76,-8000.00,2486.33,117.67,-250.14,250.13,-49.93
38547,767.92,766.96,761.87,758.42,763.79,7999.76,-8000.00,2486.33,117.67,-250.14,250.13,-48.80
38585,767.48,766.98,761.85,758.34,763.66,7999.76,-8000.00,2486.33,117.67,-250.14,250.13,-46.44
38622,767.56,766.93,761.91,758.39,763.70,7999.76,-8000.00,2486.33,117.67,-250.14,250.13,-45.53
38658,767.71,767.04,761.83,758.36,763.73,7999.76,-8000.00,2486.33,117.67,-250.14,250.13,-48.51
38694,767.75,766.97,761.84,758.33,763.72,7999.76,-8000.00,2486.33,117.67,-250.14,250.13,-47.46
38730,767.69,766.99,761.81,758.40,763.72,7999.76,-8000.00,2486.33,117.67,-250.14,250.13,-49.34
38769,767.72,767.02,761.89,758.44,763.77,7999.76,-8000.00,2486.33,117.67,-250.14,250.13,-48.32
38805,767.85,766.97,761.92,758.41,763.79,7999.76,-8000.00,2486.33,117.67,-250.14,250.13,-47.04
38841,768.24,767.12,761.83,758.42,763.90,7999.76,-8000.00,2486.33,117.67,-250.14,250.13,-52.00
38878,768.33,767.07,761.87,758.38,763.92,7999.76,-8000.00,2486.33,117.67,-250.14,250.13,-50.34
38914,768.26,767.04,761.88,758.33,763.88,7999.76,-8000.00,2486.33,117.67,-250.14,250.13,-48.65
38952,768.37,766.98,761.83,758.38,763.89,7999.76,-8000.00,2486.33,117.67,-250.14,250.13,-50.65
38988,768.40,766.98,761.88,758.39,763.91,7999.76,-8000.00,2486.33,117.67,-250.14,250.13,-49.83
39024,768.39,767.02,761.83,758.32,763.89,7999.76,-8000.00,2486.33,117.67,-250.14,250.13,-50.16
39060,768.34,766.94,761.80,758.31,763.85,7999.76,-8000.00,2486.33,117.67,-250.14,250.13,-49.98
39096,768.46,766.94,761.82,758.30,763.88,7999.76,-8000.00,2486.33,117.67,-250.14,250.13,-49.83
39132,768.54,766.99,761.85,758.36,763.94,7999.76,-8000.00,2486.33,117.67,-250.14,250.13,-50.61
39171,768.76,766.94,761.82,758.29,763.95,7999.76,-8000.00,2486.33,117.67,-250.14,250.13,-50.77
39207,768.92,766.94,761.80,758.29,763.99,7999.76,-8000.00,2486.33,117.67,-250.14,250.13,-51.67
39243,768.94,766.88,761.78,758.19,763.95,7999.76,-8000.00,2486.33,117.67,-250.14,250.13,-50.32
39279,769.09,766.91,761.70,758.34,764.01,7999.76,-8000.00,2486.33,117.67,-250.14,250.13,-55.36
39315,769.18,766.77,761.65,758.21,763.95,7999.76,-8000.00,2486.33,117.67,-250.14,250.13,-53.79
39353,769.35,766.86,761.70,758.19,764.02,7999.76,-8000.00,2486.33,117.67,-250.14,250.13,-53.50
39389,769.48,766.65,761.67,758.08,763.97,7999.76,-8000.00,2486.33,117.67,-250.14,250.13,-51.42
39428,769.55,766.69,761.68,758.16,764.02,7999.76,-8000.00,2486.33,117.67,-250.14,250.13,-52.81
39464,769.56,766.61,761.71,758.13,764.00,7999.76,-8000.00,2486.33,117.67,-250.14,250.13,-51.24
39500,769.56,766.70,761.72,758.12,764.02,7999.76,-8000.00,2486.33,117.67,-250.14,250.13,-51.38
39539,769.61,766.67,761.65,758.23,764.04,7999.76,-8000.00,2486.33,117.67,-250.14,250.13,-54.75
39575,769.70,766.65,761.69,758.17,764.05,7999.76,-8000.00,2486.33,117.67,-250.14,250.13,-53.02
39611,769.73,766.52,761.70,758.11,764.01,7999.76,-8000.00,2486.33,117.67,-250.14,250.13,-50.91
39647,769.70,766.58,761.66,758.10,764.01,7999.76,-8000.00,2486.33,117.67,-250.14,250.13,-52.28
39684,769.76,766.64,761.66,758.04,764.03,7999.76,-8000.00,2486.33,117.67,-250.14,250.13,-52.14
39720,769.81,766.54,761.65,758.04,764.01,7999.76,-8000.00,2486.33,117.67,-250.14,250.13,-51.64
39759,769.82,766.53,761.64,758.05,764.01,7999.76,-8000.00,2486.33,117.67,-250.14,250.13,-51.76
39795,769.84,766.54,761.61,757.98,763.99,7999.76,-8000.00,2486.33,117.67,-250.14,250.13,-51.75
39831,769.82,766.41,761.57,758.01,763.95,7999.76,-8000.00,2486.33,117.67,-250.14,250.13,-52.24
39867,769.76,766.38,761.59,757.99,763.93,7999.76,-8000.00,2486.33,117.67,-250.14,250.13,-50.95
39903,769.67,766.46,761.54,758.03,763.93,7999.76,-8000.00,2486.33,117.67,-250.14,250.13,-53.07
39942,769.57,766.47,761.68,757.99,763.93,7999.76,-8000.00,2486.33,117.67,-250.14,250.13,-48.82
39978,769.58,766.44,761.59,758.02,763.91,7999.76,-8000.00,2486.33,117.67,-250.14,250.13,-51.26
40014,769.62,766.34,761.70,758.00,763.91,7999.76,-8000.00,2486.33,117.67,-250.14,250.13,-47.35
40050,769.73,766.42,761.72,758.14,764.00,7999.76,-8000.00,2486.33,117.67,-250.14,250.13,-50.16
40086,769.65,766.47,761.62,758.07,763.95,7999.76,-8000.00,2486.33,117.67,-250.14,250.13,-51.76
40125,769.58,766.44,761.69,758.08,763.94,7999.76,-8000.00,2486.33,117.67,-250.14,250.13,-49.55
40161,769.54,766.45,761.65,758.14,763.94,7999.76,-8000.00,2486.33,117.67,-250.14,250.13,-51.33
40198,769.67,766.56,761.63,758.07,763.98,7999.76,-8000.00,2486.33,117.67,-250.14,250.13,-52.25
40234,769.72,766.53,761.66,758.06,763.99,7999.76,-8000.00,2486.33,117.67,-250.14,250.13,-51.22
40270,769.78,766.51,761.68,758.01,764.00,7999.76,-8000.00,2486.33,117.67,-250.14,250.13,-50.09
40306,769.78,766.57,761.66,758.04,764.01,7999.76,-8000.00,2486.33,117.67,-250.14,250.13,-51.52
40345,769.73,766.51,761.62,758.04,763.98,7999.76,-8000.00,2486.33,117.67,-250.14,250.13,-51.83
40381,769.77,766.63,761.59,758.09,764.02,7999.76,-8000.00,2486.33,117.67,-250.14,250.13,-54.35
40417,769.87,766.52,761.62,758.09,764.03,7999.76,-8000.00,2486.33,117.67,-250.14,250.13,-53.20
40453,769.94,766.45,761.67,758.02,764.02,7999.76,-8000.00,2486.33,117.67,-250.14,250.13,-50.59
40490,769.89,766.44,761.70,758.07,764.03,7999.76,-8000.00,2486.33,117.67,-250.14,250.13,-50.25
40528,769.80,766.44,761.66,758.01,763.98,7999.76,-8000.00,2486.33,117.67,-250.14,250.13,-49.97
40564,769.93,766.38,761.62,757.98,763.98,7999.76,-8000.00,2486.33,117.67,-250.14,250.13,-50.57
40600,770.06,766.37,761.53,758.00,763.99,7999.76,-8000.00,2486.33,117.67,-250.14,250.13,-53.45
40636,770.27,766.28,761.61,757.93,764.02,7999.76,-8000.00,2486.33,117.67,-250.14,250.13,-50.45
40672,770.30,766.29,761.60,757.98,764.05,7999.76,-8000.00,2486.33,117.67,-250.14,250.13,-51.65
40711,770.44,766.16,761.49,758.04,764.03,7999.76,-8000.00,2486.33,117.67,-250.14,250.13,-54.74
40747,770.45,766.22,761.48,758.00,764.04,7999.76,-8000.00,2486.33,117.67,-250.14,250.13,-54.84
40783,770.52,766.20,761.47,758.07,764.07,7999.76,-8000.00,2486.33,117.67,-250.14,250.13,-56.21
40819,770.50,766.24,761.50,758.08,764.08,7999.76,-8000.00,2486.33,117.67,-250.14,250.13,-55.99
40855,770.45,766.20,761.48,758.06,764.04,7999.76,-8000.00,2486.33,117.67,-250.14,250.13,-55.59
40891,770.46,766.29,761.49,758.04,764.07,7999.76,-8000.00,2486.33,117.67,-250.14,250.13,-55.79
40929,770.48,766.19,761.48,757.99,764.04,7999.76,-8000.00,2486.33,117.67,-250.14,250.13,-54.52
40965,770.48,766.25,761.51,758.01,764.06,7999.76,-8000.00,2486.33,117.67,-250.14,250.13,-54.63
41001,770.44,766.20,761.50,758.12,764.07,7999.76,-8000.00,2486.33,117.67,-250.14,250.13,-55.86
41038,770.56,766.24,761.52,758.06,764.10,7999.76,-8000.00,2486.33,117.67,-250.14,250.13,-55.43
41074,770.54,766.24,761.53,758.04,764.09,7999.76,-8000.00,2486.33,117.67,-250.14,250.13,-54.88
41113,770.67,766.22,761.47,757.93,764.07,7999.76,-8000.00,2486.33,117.67,-250.14,250.13,-55.01
41149,770.64,766.16,761.47,757.97,764.06,7999.76,-8000.00,2486.33,117.67,-250.14,250.13,-54.90
41185,770.64,766.15,761.49,757.98,764.06,7999.76,-8000.00,2486.33,117.67,-250.14,250.13,-54.32
41221,770.68,766.24,761.43,757.96,764.08,7999.76,-8000.00,2486.33,117.67,-250.14,250.13,-56.38
41257,770.66,766.17,761.46,758.02,764.08,7999.76,-8000.00,2486.33,117.67,-250.14,250.13,-55.86
41296,770.62,766.18,761.46,757.96,764.05,7999.76,-8000.00,2486.33,117.67,-250.14,250.13,-55.11
41332,770.63,766.19,761.50,757.90,764.05,7999.76,-8000.00,2486.33,117.67,-250.14,250.13,-53.32
41368,770.55,766.12,761.50,758.05,764.05,7999.76,-8000.00,2486.33,117.67,-250.14,250.13,-54.58
41404,770.53,766.20,761.49,757.96,764.04,7999.76,-8000.00,2486.33,117.67,-250.14,250.13,-54.28
41441,770.48,766.23,761.52,757.98,764.05,7999.76,-8000.00,2486.33,117.67,-250.14,250.13,-53.84
41477,770.39,766.13,761.48,757.99,764.00,7999.76,-8000.00,2486.33,117.67,-250.14,250.13,-53.89
41516,770.31,766.16,761.52,758.02,764.00,7999.76,-8000.00,2486.33,117.67,-250.14,250.13,-53.22
41552,770.21,766.28,761.52,757.99,764.00,7999.76,-8000.00,2486.33,117.67,-250.14,250.13,-53.47
41589,770.30,766.21,761.47,758.03,764.00,7999.76,-8000.00,2486.33,117.67,-250.14,250.13,-54.95
41625,770.36,766.17,761.53,758.00,764.01,7999.76,-8000.00,2486.33,117.67,-250.14,250.13,-52.99
41661,770.36,766.15,761.53,758.01,764.01,7999.76,-8000.00,2486.33,117.67,-250.14,250.13,-52.85
41700,770.41,766.07,761.48,757.97,763.98,7999.76,-8000.00,2486.33,117.67,-250.14,250.13,-53.11
41736,770.34,766.12,761.47,757.92,763.96,7999.76,-8000.00,2486.33,117.67,-250.14,250.13,-52.62
41772,770.35,766.17,761.49,757.95,763.99,7999.76,-8000.00,2486.33,117.67,-250.14,250.13,-53.19
41809,770.32,766.14,761.50,757.92,763.97,7999.76,-8000.00,2486.33,117.67,-250.14,250.13,-52.00
41845,770.24,766.17,761.49,758.02,763.98,7999.76,-8000.00,2486.33,117.67,-250.14,250.13,-53.85
41884,770.11,766.26,761.55,758.08,764.00,7999.76,-8000.00,2486.33,117.67,-250.14,250.13,-53.53
41920,769.82,766.29,761.63,758.10,763.96,7999.76,-8000.00,2486.33,117.67,-250.14,250.13,-51.19
41956,769.62,766.36,761.59,758.14,763.93,7999.76,-8000.00,2486.33,117.67,-250.14,250.13,-52.35
41992,769.50,766.52,761.59,758.23,763.96,7999.76,-8000.00,2486.33,117.67,-250.14,250.13,-54.62
42028,769.24,766.56,761.70,758.27,763.94,7999.76,-8000.00,2486.33,117.67,-250.14,250.13,-51.80
42065,769.16,766.67,761.77,758.36,763.99,7999.76,-8000.00,2486.33,117.67,-250.14,250.13,-52.22
42103,768.99,766.60,761.72,758.26,763.89,7999.76,-8000.00,2486.33,117.67,-250.14,250.13,-50.93
42139,768.83,766.57,761.71,758.32,763.85,7999.76,-8000.00,2486.33,117.67,-250.14,250.13,-51.10
42178,768.71,766.59,761.76,758.27,763.83,7999.76,-8000.00,2486.33,117.67,-250.14,250.13,-48.83
42214,768.69,766.56,761.77,758.32,763.83,7999.76,-8000.00,2486.33,117.67,-250.14,250.13,-49.14
42250,768.62,766.53,761.76,758.29,763.80,7999.76,-8000.00,2486.33,117.67,-250.14,250.13,-48.46
42289,768.71,766.53,761.70,758.28,763.80,7999.76,-8000.00,2486.33,117.67,-250.14,250.13,-50.01
42325,768.76,766.52,761.67,758.26,763.80,7999.76,-8000.00,2486.33,117.67,-250.14,250.13,-50.69
42361,769.00,766.49,761.73,758.24,763.87,7999.76,-8000.00,2486.33,117.67,-250.14,250.13,-49.58
42397,768.83,766.52,761.73,758.23,763.83,7999.76,-8000.00,2486.33,117.67,-250.14,250.13,-48.85
42433,768.75,766.46,761.63,758.23,763.77,7999.76,-8000.00,2486.33,117.67,-250.14,250.13,-50.55
42472,768.79,766.51,761.64,758.17,763.78,7999.76,-8000.00,2486.33,117.67,-250.14,250.13,-49.92
42508,768.87,766.53,761.72,758.15,763.82,7999.76,-8000.00,2486.33,117.67,-250.14,250.13,-48.16
42545,768.90,766.54,761.70,758.25,763.85,7999.76,-8000.00,2486.33,117.67,-250.14,250.13,-50.28
42581,768.99,766.63,761.69,758.24,763.89,7999.76,-8000.00,2486.33,117.67,-250.14,250.13,-51.51
42617,768.72,766.56,761.71,758.28,763.82,7999.76,-8000.00,2486.33,117.67,-250.14,250.13,-49.96
42653,768.70,766.62,761.68,758.20,763.80,7999.76,-8000.00,2486.33,117.67,-250.14,250.13,-50.25
42692,768.76,766.58,761.74,758.23,763.83,7999.76,-8000.00,2486.33,117.67,-250.14,250.13,-48.90
42728,768.85,766.58,761.74,758.24,763.85,7999.76,-8000.00,2486.33,117.67,-250.14,250.13,-49.46
42764,768.91,766.54,761.67,758.24,763.84,7999.76,-8000.00,2486.33,117.67,-250.14,250.13,-50.90
42800,768.82,766.61,761.75,758.25,763.86,7999.76,-8000.00,2486.33,117.67,-250.14,250.13,-49.46
42836,768.74,766.59,761.69,758.25,763.82,7999.76,-8000.00,2486.33,117.67,-250.14,250.13,-50.50
42875,768.71,766.62,761.69,758.24,763.81,7999.76,-8000.00,2486.33,117.67,-250.14,250.13,-50.48
42911,768.73,766.56,761.61,758.24,763.79,7999.76,-8000.00,2486.33,117.67,-250.14,250.13,-51.98
42947,768.68,766.55,761.64,758.22,763.77,7999.76,-8000.00,2486.33,117.67,-250.14,250.13,-50.63
42983,768.80,766.51,761.69,758.26,763.81,7999.76,-8000.00,2486.33,117.67,-250.14,250.13,-50.15
43019,768.83,766.51,761.67,758.29,763.82,7999.76,-8000.00,2486.33,117.67,-250.14,250.13,-51.18
43058,768.90,766.47,761.72,758.27,763.84,7999.76,-8000.00,2486.33,117.67,-250.14,250.13,-49.49
43094,768.97,766.43,761.66,758.31,763.84,7999.76,-8000.00,2486.33,117.67,-250.14,250.13,-51.54
43130,769.12,766.42,761.61,758.19,763.84,7999.76,-8000.00,2486.33,117.67,-250.14,250.13,-51.34
43166,769.19,766.44,761.68,758.08,763.85,7999.76,-8000.00,2486.33,117.67,-250.14,250.13,-48.36
43202,769.26,766.40,761.58,758.09,763.83,7999.76,-8000.00,2486.33,117.67,-250.14,250.13,-51.14
43238,769.41,766.40,761.55,758.06,763.85,7999.76,-8000.00,2486.33,117.67,-250.14,250.13,-51.88
43277,769.40,766.29,761.57,758.02,763.82,7999.76,-8000.00,2486.33,117.67,-250.14,250.13,-49.99
43313,769.52,766.30,761.55,758.03,763.85,7999.76,-8000.00,2486.33,117.67,-250.14,250.13,-51.05
43349,769.66,766.24,761.55,758.00,763.86,7999.76,-8000.00,2486.33,117.67,-250.14,250.13,-50.67
43386,769.81,766.23,761.52,758.04,763.90,7999.76,-8000.00,2486.33,117.67,-250.14,250.13,-52.39
43422,769.66,766.20,761.53,758.08,763.87,7999.76,-8000.00,2486.33,117.67,-250.14,250.13,-52.00
43461,769.69,766.19,761.57,758.07,763.88,7999.76,-8000.00,2486.33,117.67,-250.14,250.13,-50.95
43497,769.73,766.18,761.59,758.04,763.89,7999.76,-8000.00,2486.33,117.67,-250.14,250.13,-49.98
43534,769.76,766.21,761.54,758.06,763.89,7999.76,-8000.00,2486.33,117.67,-250.14,250.13,-51.85
43570,769.79,766.24,761.58,758.10,763.93,7999.76,-8000.00,2486.33,117.67,-250.14,250.13,-51.76
43606,769.95,766.16,761.48,758.04,763.91,7999.76,-8000.00,2486.33,117.67,-250.14,250.13,-53.29
43644,769.94,766.17,761.55,758.01,763.92,7999.76,-8000.00,2486.33,117.67,-250.14,250.13,-51.10
43680,769.97,766.13,761.57,758.08,763.94,7999.76,-8000.00,2486.33,117.67,-250.14,250.13,-51.35
43716,770.09,766.22,761.51,758.10,763.98,7999.76,-8000.00,2486.33,117.67,-250.14,250.13,-54.22
43752,770.02,766.15,761.55,758.09,763.95,7999.76,-8000.00,2486.33,117.67,-250.14,250.13,-52.32
43788,770.01,766.22,761.56,758.08,763.97,7999.76,-8000.00,2486.33,117.67,-250.14,250.13,-52.67
43824,769.98,766.16,761.65,758.10,763.97,7999.76,-8000.00,2486.33,117.67,-250.14,250.13,-49.95
43862,769.88,766.14,761.56,758.12,763.92,7999.76,-8000.00,2486.33,117.67,-250.14,250.13,-52.01
43898,769.80,766.26,761.56,758.04,763.91,7999.76,-8000.00,2486.33,117.67,-250.14,250.13,-51.65
43934,769.73,766.20,761.59,758.08,763.90,7999.76,-8000.00,2486.33,117.67,-250.14,250.13,-50.82
43970,769.71,766.27,761.58,758.15,763.93,7999.76,-8000.00,2486.33,117.67,-250.14,250.13,-52.36
44006,769.47,766.25,761.62,758.09,763.86,7999.76,-8000.00,2486.33,117.67,-250.14,250.13,-49.59
44044,769.33,766.27,761.68,758.17,763.86,7999.76,-8000.00,2486.33,117.67,-250.14,250.13,-48.83
44080,769.25,766.27,761.59,758.16,763.82,7999.76,-8000.00,2486.33,117.67,-250.14,250.13,-50.84
44117,769.25,766.30,761.66,758.26,763.87,7999.76,-8000.00,2486.33,117.67,-250.14,250.13,-50.77
44153,769.16,766.37,761.66,758.22,763.85,7999.76,-8000.00,2486.33,117.67,-250.14,250.13,-50.46
44189,769.18,766.30,761.71,758.21,763.85,7999.76,-8000.00,2486.33,117.67,-250.14,250.13,-48.67
44228,769.26,766.38,761.66,758.20,763.87,7999.76,-8000.00,2486.33,117.67,-250.14,250.13,-50.65
44264,769.44,766.36,761.60,758.15,763.89,7999.76,-8000.00,2486.33,117.67,-250.14,250.13,-51.85
44300,769.48,766.38,761.61,758.22,763.92,7999.76,-8000.00,2486.33,117.67,-250.14,250.13,-52.73
44337,769.51,766.31,761.61,758.14,763.89,7999.76,-8000.00,2486.33,117.67,-250.14,250.13,-51.17
44373,769.62,766.29,761.56,758.08,763.89,7999.76,-8000.00,2486.33,117.67,-250.14,250.13,-51.76
44409,769.71,766.25,761.61,758.03,763.90,7999.76,-8000.00,2486.33,117.67,-250.14,250.13,-49.85
44448,769.84,766.23,761.59,758.04,763.92,7999.76,-8000.00,2486.33,117.67,-250.14,250.13,-50.76
44485,769.81,766.24,761.55,758.04,763.91,7999.76,-8000.00,2486.33,117.67,-250.14,250.13,-51.76
44521,769.94,766.16,761.49,758.02,763.90,7999.76,-8000.00,2486.33,117.67,-250.14,250.13,-52.76
44557,770.01,766.22,761.51,758.01,763.94,7999.76,-8000.00,2486.33,117.67,-250.14,250.13,-52.69
44593,770.02,766.14,761.46,758.05,763.92,7999.76,-8000.00,2486.33,117.67,-250.14,250.13,-53.94
44632,770.06,766.22,761.49,758.00,763.94,7999.76,-8000.00,2486.33,117.67,-250.14,250.13,-53.22
44668,770.06,766.17,761.41,758.01,763.91,7999.76,-8000.00,2486.33,117.67,-250.14,250.13,-54.99
44704,770.12,766.14,761.45,758.02,763.93,7999.76,-8000.00,2486.33,117.67,-250.14,250.13,-54.05
44740,770.13,766.14,761.54,757.98,763.95,7999.76,-8000.00,2486.33,117.67,-250.14,250.13,-51.54
44776,770.12,766.21,761.45,757.95,763.93,7999.76,-8000.00,2486.33,117.67,-250.14,250.13,-53.75
44815,770.15,766.19,761.48,758.01,763.96,7999.76,-8000.00,2486.33,117.67,-250.14,250.13,-53.77
44851,770.14,766.13,761.47,757.99,763.93,7999.76,-8000.00,2486.33,117.67,-250.14,250.13,-53.12
44888,770.15,766.13,761.42,758.04,763.93,7999.76,-8000.00,2486.33,117.67,-250.14,250.13,-55.30
44926,770.21,766.09,761.49,757.96,763.94,7999.76,-8000.00,2486.33,117.67,-250.14,250.13,-52.21
44962,770.29,766.09,761.52,757.98,763.97,7999.76,-8000.00,2486.33,117.67,-250.14,250.13,-52.11
44998,770.45,766.05,761.42,757.95,763.97,7999.76,-8000.00,2486.33,117.67,-250.14,250.13,-54.21
45037,770.49,766.03,761.45,757.93,763.97,7999.76,-8000.00,2486.33,117.67,-250.14,250.13,-53.24
45074,770.48,766.04,761.45,758.06,764.01,7999.76,-8000.00,2486.33,117.67,-250.14,250.13,-55.13
45110,770.58,766.05,761.45,757.98,764.02,7999.76,-8000.00,2486.33,117.67,-250.14,250.13,-54.27
45146,770.67,765.98,761.47,757.89,764.00,7999.76,-8000.00,2486.33,117.67,-250.14,250.13,-52.47
45182,770.58,765.95,761.41,757.94,763.97,7999.76,-8000.00,2486.33,117.67,-250.14,250.13,-54.10
45221,770.59,766.02,761.50,757.89,764.00,7999.76,-8000.00,2486.33,117.67,-250.14,250.13,-51.68
45257,770.62,765.97,761.40,757.91,763.97,7999.76,-8000.00,2486.33,117.67,-250.14,250.13,-54.27
45293,770.62,765.92,761.44,757.98,763.99,7999.76,-8000.00,2486.33,117.67,-250.14,250.13,-53.72
45329,770.76,765.89,761.41,757.97,764.01,7999.76,-8000.00,2486.33,117.67,-250.14,250.13,-54.58
45364,770.77,765.92,761.43,757.88,764.00,7999.76,-8000.00,2486.33,117.67,-250.14,250.13,-53.20
45404,770.87,765.86,761.43,757.88,764.01,7999.76,-8000.00,2486.33,117.67,-250.14,250.13,-52.76
45440,770.82,765.89,761.39,757.90,764.00,7999.76,-8000.00,2486.33,117.67,-250.14,250.13,-54.32
45476,770.84,765.97,761.38,757.97,764.04,7999.76,-8000.00,2486.33,117.67,-250.14,250.13,-56.34
45512,770.83,765.85,761.38,757.93,764.00,7999.76,-8000.00,2486.33,117.67,-250.14,250.13,-54.58
45548,770.82,765.85,761.32,757.86,763.96,7999.76,-8000.00,2486.33,117.67,-250.14,250.13,-55.04
45584,770.86,765.90,761.35,757.95,764.01,7999.76,-8000.00,2486.33,117.67,-250.14,250.13,-56.22
45622,770.90,765.92,761.40,758.02,764.06,7999.76,-8000.00,2486.33,117.67,-250.14,250.13,-56.12
45659,770.97,765.86,761.37,757.94,764.03,7999.76,-8000.00,2486.33,117.67,-250.14,250.13,-55.68
45695,770.99,765.81,761.38,757.90,764.02,7999.76,-8000.00,2486.33,117.67,-250.14,250.13,-54.42
45731,771.07,765.84,761.32,757.94,764.04,7999.76,-8000.00,2486.33,117.67,-250.14,250.13,-57.13
45767,771.20,765.77,761.38,757.86,764.05,7999.76,-8000.00,2486.33,117.67,-250.14,250.13,-54.38
45806,771.27,765.66,761.36,757.89,764.04,7999.76,-8000.00,2486.33,117.67,-250.14,250.13,-54.70
45842,771.32,765.68,761.30,757.82,764.03,7999.76,-8000.00,2486.33,117.67,-250.14,250.13,-55.52
45878,771.29,765.62,761.30,757.83,764.01,7999.76,-8000.00,2486.33,117.67,-250.14,250.13,-54.91
45914,771.14,765.69,761.29,757.84,763.99,7999.76,-8000.00,2486.33,117.67,-250.14,250.13,-55.44
45951,771.05,765.69,761.27,757.86,763.97,7999.76,-8000.00,2486.33,117.67,-250.14,250.13,-55.76
45990,770.99,765.65,761.24,757.89,763.94,7999.76,-8000.00,2486.33,117.67,-250.14,250.13,-56.53
46026,770.87,765.61,761.27,757.88,763.91,7999.76,-8000.00,2486.33,117.67,-250.14,250.13,-55.10
46062,770.77,765.66,761.32,757.94,763.92,7999.76,-8000.00,2486.33,117.67,-250.14,250.13,-54.71
46098,770.69,765.74,761.29,757.91,763.91,7999.76,-8000.00,2486.33,117.67,-250.14,250.13,-55.10
46134,770.75,765.76,761.26,757.90,763.92,7999.76,-8000.00,2486.33,117.67,-250.14,250.13,-56.04
46171,770.76,765.64,761.30,757.91,763.90,7999.76,-8000.00,2486.33,117.67,-250.14,250.13,-54.40
46209,770.73,765.76,761.27,757.92,763.92,7999.76,-8000.00,2486.33,117.67,-250.14,250.13,-56.22
46246,770.81,765.87,761.37,757.96,764.00,7999.76,-8000.00,2486.33,117.67,-250.14,250.13,-55.40
46282,770.76,765.80,761.36,757.91,763.96,7999.76,-8000.00,2486.33,117.67,-250.14,250.13,-54.19
46318,770.71,765.91,761.33,757.89,763.96,7999.76,-8000.00,2486.33,117.67,-250.14,250.13,-55.34
46354,770.73,765.83,761.39,758.03,764.00,7999.76,-8000.00,2486.33,117.67,-250.14,250.13,-55.40
46394,770.68,765.91,761.38,758.04,764.00,7999.76,-8000.00,2486.33,117.67,-250.14,250.13,-56.29
46430,770.64,765.98,761.41,758.02,764.01,7999.76,-8000.00,2486.33,117.67,-250.14,250.13,-55.63
46466,770.61,766.04,761.34,758.04,764.01,7999.76,-8000.00,2486.33,117.67,-250.14,250.13,-58.10
46502,770.50,766.07,761.44,758.05,764.02,7999.76,-8000.00,2486.33,117.67,-250.14,250.13,-55.50
46538,770.37,766.13,761.46,758.08,764.01,7999.76,-8000.00,2486.33,117.67,-250.14,250.13,-55.62
46577,770.30,766.15,761.48,758.08,764.00,7999.76,-8000.00,2486.33,117.67,-250.14,250.13,-55.09
46613,770.25,766.22,761.48,758.10,764.01,7999.76,-8000.00,2486.33,117.67,-250.14,250.13,-55.71
46649,770.26,766.29,761.50,758.07,764.03,7999.76,-8000.00,2486.33,117.67,-250.14,250.13,-55.18
46685,770.23,766.31,761.52,758.10,764.04,7999.76,-8000.00,2486.33,117.67,-250.14,250.13,-55.43
46721,770.10,766.32,761.55,758.20,764.04,7999.76,-8000.00,2486.33,117.67,-250.14,250.13,-55.56
46757,770.18,766.29,761.47,758.18,764.03,7999.76,-8000.00,2486.33,117.67,-250.14,250.13,-57.49
46795,770.20,766.28,761.53,758.12,764.03,7999.76,-8000.00,2486.33,117.67,-250.14,250.13,-55.08
46831,770.27,766.25,761.48,758.09,764.02,7999.76,-8000.00,2486.33,117.67,-250.14,250.13,-55.70
46867,770.24,766.25,761.46,758.13,764.02,7999.76,-8000.00,2486.33,117.67,-250.14,250.13,-56.74
46902,770.29,766.15,761.49,758.15,764.02,7999.76,-8000.00,2486.33,117.67,-250.14,250.13,-55.68
46938,770.20,766.17,761.50,758.12,764.00,7999.76,-8000.00,2486.33,117.67,-250.14,250.13,-54.91
46977,770.20,766.10,761.47,758.13,763.98,7999.76,-8000.00,2486.33,117.67,-250.14,250.13,-55.31
47013,770.27,766.04,761.45,758.13,763.97,7999.76,-8000.00,2486.33,117.67,-250.14,250.13,-55.44
47049,770.34,766.02,761.53,758.10,764.00,7999.76,-8000.00,2486.33,117.67,-250.14,250.13,-53.16
47085,770.43,765.98,761.42,758.09,763.98,7999.76,-8000.00,2486.33,117.67,-250.14,250.13,-55.58
47121,770.58,766.05,761.41,757.97,764.00,7999.76,-8000.00,2486.33,117.67,-250.14,250.13,-55.18
47159,770.60,765.98,761.37,758.07,764.00,7999.76,-8000.00,2486.33,117.67,-250.14,250.13,-57.04
47195,770.61,765.93,761.39,758.03,763.99,7999.76,-8000.00,2486.33,117.67,-250.14,250.13,-55.87
47231,770.56,765.95,761.34,757.99,763.96,7999.76,-8000.00,2486.33,117.67,-250.14,250.13,-56.46
47267,770.58,765.96,761.40,757.99,763.98,7999.76,-8000.00,2486.33,117.67,-250.14,250.13,-54.98
47303,770.55,766.03,761.41,757.93,763.98,7999.76,-8000.00,2486.33,117.67,-250.14,250.13,-54.37
47340,770.45,766.11,761.41,758.07,764.01,7999.76,-8000.00,2486.33,117.67,-250.14,250.13,-56.76
47379,770.38,766.09,761.41,758.04,763.98,7999.76,-8000.00,2486.33,117.67,-250.14,250.13,-56.03
47415,770.47,766.07,761.39,758.04,763.99,7999.76,-8000.00,2486.33,117.67,-250.14,250.13,-56.62
47451,770.56,766.08,761.41,758.00,764.01,7999.76,-8000.00,2486.33,117.67,-250.14,250.13,-55.89
47487,770.59,766.14,761.51,758.01,764.06,7999.76,-8000.00,2486.33,117.67,-250.14,250.13,-54.21
47523,770.63,765.99,761.42,758.01,764.01,7999.76,-8000.00,2486.33,117.67,-250.14,250.13,-55.38
47561,770.56,765.97,761.41,758.01,763.99,7999.76,-8000.00,2486.33,117.67,-250.14,250.13,-55.12
47598,770.70,766.02,761.37,757.98,764.02,7999.76,-8000.00,2486.33,117.67,-250.14,250.13,-56.77
47634,770.72,766.01,761.37,757.99,764.02,7999.76,-8000.00,2486.33,117.67,-250.14,250.13,-56.65
47672,770.76,766.06,761.30,757.97,764.02,7999.76,-8000.00,2486.33,117.67,-250.14,250.13,-58.62
47708,770.73,766.02,761.38,758.01,764.03,7999.76,-8000.00,2486.33,117.67,-250.14,250.13,-56.92
47747,770.72,766.07,761.31,757.96,764.01,7999.76,-8000.00,2486.33,117.67,-250.14,250.13,-58.41
47782,770.70,766.05,761.33,758.03,764.03,7999.76,-8000.00,2486.33,117.67,-250.14,250.13,-58.68
47819,770.67,766.00,761.36,757.98,764.00,7999.76,-8000.00,2486.33,117.67,-250.14,250.13,-56.53
47855,770.66,766.04,761.33,757.97,764.00,7999.76,-8000.00,2486.33,117.67,-250.14,250.13,-57.39
47891,770.71,766.10,761.38,757.97,764.04,7999.76,-8000.00,2486.33,117.67,-250.14,250.13,-57.03
47927,770.63,766.06,761.34,758.04,764.02,7999.76,-8000.00,2486.33,117.67,-250.14,250.13,-58.36
47965,770.63,765.91,761.37,757.91,763.95,7999.76,-8000.00,2486.33,117.67,-250.14,250.13,-54.36
48001,770.69,766.01,761.42,757.97,764.02,7999.76,-8000.00,2486.33,117.67,-250.14,250.13,-55.06
48037,770.76,765.97,761.37,757.95,764.01,7999.76,-8000.00,2486.33,117.67,-250.14,250.13,-55.94
48073,770.68,766.00,761.39,757.95,764.01,7999.76,-8000.00,2486.33,117.67,-250.14,250.13,-55.38
48110,770.75,766.00,761.28,757.99,764.00,7999.76,-8000.00,2486.33,117.67,-250.14,250.13,-58.92
48148,770.63,765.91,761.36,757.98,763.97,7999.76,-8000.00,2486.33,117.67,-250.14,250.13,-55.80
48184,770.59,765.97,761.35,758.02,763.99,7999.76,-8000.00,2486.33,117.67,-250.14,250.13,-56.98
48220,770.57,765.90,761.31,757.94,763.93,7999.76,-8000.00,2486.33,117.67,-250.14,250.13,-56.02
48256,770.58,766.06,761.33,758.03,764.00,7999.76,-8000.00,2486.33,117.67,-250.14,250.13,-58.34
48293,770.50,765.90,761.34,758.07,763.95,7999.76,-8000.00,2486.33,117.67,-250.14,250.13,-56.90
48332,770.48,765.97,761.38,758.07,763.97,7999.76,-8000.00,2486.33,117.67,-250.14,250.13,-56.38
48368,770.39,766.07,761.38,758.03,763.97,7999.76,-8000.00,2486.33,117.67,-250.14,250.13,-56.27
48403,770.44,766.05,761.41,758.04,763.98,7999.76,-8000.00,2486.33,117.67,-250.14,250.13,-55.95
48440,770.38,766.07,761.39,758.07,763.98,7999.76,-8000.00,2486.33,117.67,-250.14,250.13,-56.80
48475,770.38,766.08,761.32,758.00,763.95,7999.76,-8000.00,2486.33,117.67,-250.14,250.13,-57.53
48511,770.42,766.02,761.39,758.04,763.97,7999.76,-8000.00,2486.33,117.67,-250.14,250.13,-55.88
48550,770.43,765.97,761.34,758.09,763.96,7999.76,-8000.00,2486.33,117.67,-250.14,250.13,-57.73
48586,770.49,765.98,761.28,758.04,763.95,7999.76,-8000.00,2486.33,117.67,-250.14,250.13,-58.88
48622,770.47,765.99,761.28,758.04,763.95,7999.76,-8000.00,2486.33,117.67,-250.14,250.13,-58.66
48658,770.38,766.03,761.38,758.01,763.95,7999.76,-8000.00,2486.33,117.67,-250.14,250.13,-55.78
48693,770.44,765.95,761.43,758.06,763.97,7999.76,-8000.00,2486.33,117.67,-250.14,250.13,-54.71
48732,770.38,765.99,761.37,758.07,763.95,7999.76,-8000.00,2486.33,117.67,-250.14,250.13,-56.55
48768,770.39,766.07,761.39,758.04,763.97,7999.76,-8000.00,2486.33,117.67,-250.14,250.13,-56.36
48804,770.40,766.00,761.37,758.03,763.95,7999.76,-8000.00,2486.33,117.67,-250.14,250.13,-56.12
48840,770.40,766.13,761.33,758.05,763.98,7999.76,-8000.00,2486.33,117.67,-250.14,250.13,-58.55
48876,770.37,766.09,761.36,758.00,763.95,7999.76,-8000.00,2486.33,117.67,-250.14,250.13,-56.59
48915,770.54,766.13,761.42,758.07,764.04,7999.76,-8000.00,2486.33,117.67,-250.14,250.13,-56.86
48951,770.54,766.10,761.37,758.10,764.03,7999.76,-8000.00,2486.33,117.67,-250.14,250.13,-58.34
48987,770.46,766.06,761.36,758.06,763.99,7999.76,-8000.00,2486.33,117.67,-250.14,250.13,-57.55
49023,770.43,766.03,761.40,758.14,764.00,7999.76,-8000.00,2486.33,117.67,-250.14,250.13,-57.39
49059,770.43,765.99,761.40,758.02,763.96,7999.76,-8000.00,2486.33,117.67,-250.14,250.13,-55.17
49095,770.41,766.02,761.40,758.09,763.98,7999.76,-8000.00,2486.33,117.67,-250.14,250.13,-56.56
49134,770.51,766.04,761.37,758.01,763.98,7999.76,-8000.00,2486.33,117.67,-250.14,250.13,-56.62
49170,770.46,766.03,761.40,758.01,763.98,7999.76,-8000.00,2486.33,117.67,-250.14,250.13,-55.56
49207,770.44,766.02,761.33,758.01,763.95,7999.76,-8000.00,2486.33,117.67,-250.14,250.13,-57.06
